"success","timeout","failed_images","failed_audio","failed_video","trial_type","trial_index","time_elapsed","internal_node_id","subject_id","study_id","session_id","view_history","rt","stimulus","response","task","image_index","folder","sequence_type","valuable_image_index","reward_type","correct_choice","chosen_image_index","target_X"
"true","false","[]","[]","[]","preload","0","7955","0.0-0.0","EC6BBA2BFAA1418F8458AF0E36C3D260","019cf0b6-94e5-72e5-bef5-50263df31545","019cf037-5203-781a-b900-108ccb1cab86","","","","","","","","","","","","",""
"","","","","","instructions","1","13372","0.0-1.0","EC6BBA2BFAA1418F8458AF0E36C3D260","019cf0b6-94e5-72e5-bef5-50263df31545","019cf037-5203-781a-b900-108ccb1cab86","[{""page_index"":0,""viewing_time"":5414}]","5415","","","","","","","","","","",""
"","","","","","instructions","2","19794","0.0-2.0","EC6BBA2BFAA1418F8458AF0E36C3D260","019cf0b6-94e5-72e5-bef5-50263df31545","019cf037-5203-781a-b900-108ccb1cab86","[{""page_index"":0,""viewing_time"":6419}]","6420","","","","","","","","","","",""
"true","","","","","fullscreen","3","142873","0.0-3.0","EC6BBA2BFAA1418F8458AF0E36C3D260","019cf0b6-94e5-72e5-bef5-50263df31545","019cf037-5203-781a-b900-108ccb1cab86","","122068","","","","","","","","","","",""
"","","","","","instructions","4","148722","0.0-4.0","EC6BBA2BFAA1418F8458AF0E36C3D260","019cf0b6-94e5-72e5-bef5-50263df31545","019cf037-5203-781a-b900-108ccb1cab86","[{""page_index"":0,""viewing_time"":5846}]","5847","","","","","","","","","","",""
"","","","","","instructions","5","157715","0.0-5.0","EC6BBA2BFAA1418F8458AF0E36C3D260","019cf0b6-94e5-72e5-bef5-50263df31545","019cf037-5203-781a-b900-108ccb1cab86","[{""page_index"":0,""viewing_time"":8989}]","8990","","","","","","","","","","",""
"","","","","","html-keyboard-response","6","161721","0.0-6.0","EC6BBA2BFAA1418F8458AF0E36C3D260","019cf0b6-94e5-72e5-bef5-50263df31545","019cf037-5203-781a-b900-108ccb1cab86","","null","
                <div class=""stimulus-container"">
                    <img src=""images/instructions/movie_1.png"" class=""exp-image"">
                    <div class=""question-area""></div> 
                </div>","null","","","","","","","","",""
"","","","","","html-button-response","7","163099","0.0-7.0","EC6BBA2BFAA1418F8458AF0E36C3D260","019cf0b6-94e5-72e5-bef5-50263df31545","019cf037-5203-781a-b900-108ccb1cab86","","1373","
                <div class=""stimulus-container"">
                    <img src=""images/instructions/movie_1.png"" class=""exp-image"">
                    <div class=""question-area"">
                        <p style=""font-size: 20px; font-weight: bold; margin: 0;"">Was there a person in this image?</p>
                    </div>
                </div>","0","example_question","1","","","","","","",""
"","","","","","html-keyboard-response","8","167101","0.0-8.0","EC6BBA2BFAA1418F8458AF0E36C3D260","019cf0b6-94e5-72e5-bef5-50263df31545","019cf037-5203-781a-b900-108ccb1cab86","","null","
                <div class=""stimulus-container"">
                    <img src=""images/instructions/movie_2.png"" class=""exp-image"">
                    <div class=""question-area""></div> 
                </div>","null","","","","","","","","",""
"","","","","","html-button-response","9","167803","0.0-9.0","EC6BBA2BFAA1418F8458AF0E36C3D260","019cf0b6-94e5-72e5-bef5-50263df31545","019cf037-5203-781a-b900-108ccb1cab86","","699","
                <div class=""stimulus-container"">
                    <img src=""images/instructions/movie_2.png"" class=""exp-image"">
                    <div class=""question-area"">
                        <p style=""font-size: 20px; font-weight: bold; margin: 0;"">Was there a person in this image?</p>
                    </div>
                </div>","0","example_question","2","","","","","","",""
"","","","","","html-keyboard-response","10","171806","0.0-10.0","EC6BBA2BFAA1418F8458AF0E36C3D260","019cf0b6-94e5-72e5-bef5-50263df31545","019cf037-5203-781a-b900-108ccb1cab86","","null","
                <div class=""stimulus-container"">
                    <img src=""images/instructions/movie_3.png"" class=""exp-image"">
                    <div class=""question-area""></div> 
                </div>","null","","","","","","","","",""
"","","","","","html-button-response","11","172491","0.0-11.0","EC6BBA2BFAA1418F8458AF0E36C3D260","019cf0b6-94e5-72e5-bef5-50263df31545","019cf037-5203-781a-b900-108ccb1cab86","","681","
                <div class=""stimulus-container"">
                    <img src=""images/instructions/movie_3.png"" class=""exp-image"">
                    <div class=""question-area"">
                        <p style=""font-size: 20px; font-weight: bold; margin: 0;"">Was there a person in this image?</p>
                    </div>
                </div>","0","example_question","3","","","","","","",""
"","","","","","html-keyboard-response","12","176495","0.0-12.0","EC6BBA2BFAA1418F8458AF0E36C3D260","019cf0b6-94e5-72e5-bef5-50263df31545","019cf037-5203-781a-b900-108ccb1cab86","","null","
                <div class=""stimulus-container"">
                    <img src=""images/instructions/movie_4.png"" class=""exp-image"">
                    <div class=""question-area""></div> 
                </div>","null","","","","","","","","",""
"","","","","","html-button-response","13","177373","0.0-13.0","EC6BBA2BFAA1418F8458AF0E36C3D260","019cf0b6-94e5-72e5-bef5-50263df31545","019cf037-5203-781a-b900-108ccb1cab86","","874","
                <div class=""stimulus-container"">
                    <img src=""images/instructions/movie_4.png"" class=""exp-image"">
                    <div class=""question-area"">
                        <p style=""font-size: 20px; font-weight: bold; margin: 0;"">Was there a person in this image?</p>
                    </div>
                </div>","0","example_question","4","","","","","","",""
"","","","","","instructions","14","179691","0.0-14.0","EC6BBA2BFAA1418F8458AF0E36C3D260","019cf0b6-94e5-72e5-bef5-50263df31545","019cf037-5203-781a-b900-108ccb1cab86","[{""page_index"":0,""viewing_time"":2315}]","2316","","","","","","","","","","",""
"","","","","","instructions","15","186331","0.0-15.0","EC6BBA2BFAA1418F8458AF0E36C3D260","019cf0b6-94e5-72e5-bef5-50263df31545","019cf037-5203-781a-b900-108ccb1cab86","[{""page_index"":0,""viewing_time"":6638}]","6639","","","","","","","","","","",""
"","","","","","html-keyboard-response","16","187334","0.0-16.0","EC6BBA2BFAA1418F8458AF0E36C3D260","019cf0b6-94e5-72e5-bef5-50263df31545","019cf037-5203-781a-b900-108ccb1cab86","","null","<div style=""background-color: white; width: 100vw; height: 100vh;""></div>","null","","","","","","","","",""
"","","","","","html-keyboard-response","17","192337","0.0-17.0","EC6BBA2BFAA1418F8458AF0E36C3D260","019cf0b6-94e5-72e5-bef5-50263df31545","019cf037-5203-781a-b900-108ccb1cab86","","null","
                <div class=""stimulus-container"">
                    <img src=""images/schematic_sequence/interview_scheme/interview_scheme_1.png"" class=""exp-image"">
                    <div class=""question-area""></div> 
                </div>","null","","","","","","","","",""
"","","","","","html-button-response","18","193154","0.0-18.0","EC6BBA2BFAA1418F8458AF0E36C3D260","019cf0b6-94e5-72e5-bef5-50263df31545","019cf037-5203-781a-b900-108ccb1cab86","","814","
                <div class=""stimulus-container"">
                    <img src=""images/schematic_sequence/interview_scheme/interview_scheme_1.png"" class=""exp-image"">
                    <div class=""question-area"">
                        <p style=""font-size: 20px; font-weight: bold; margin: 0;"">Is there a person in this image?</p>
                    </div>
                </div>","1","main_experiment_trial","1","interview_scheme","schematic_sequence","","","","",""
"","","","","","html-keyboard-response","19","198157","0.0-19.0","EC6BBA2BFAA1418F8458AF0E36C3D260","019cf0b6-94e5-72e5-bef5-50263df31545","019cf037-5203-781a-b900-108ccb1cab86","","null","
                <div class=""stimulus-container"">
                    <img src=""images/schematic_sequence/interview_scheme/interview_scheme_2.png"" class=""exp-image"">
                    <div class=""question-area""></div> 
                </div>","null","","","","","","","","",""
"","","","","","html-button-response","20","198979","0.0-20.0","EC6BBA2BFAA1418F8458AF0E36C3D260","019cf0b6-94e5-72e5-bef5-50263df31545","019cf037-5203-781a-b900-108ccb1cab86","","819","
                <div class=""stimulus-container"">
                    <img src=""images/schematic_sequence/interview_scheme/interview_scheme_2.png"" class=""exp-image"">
                    <div class=""question-area"">
                        <p style=""font-size: 20px; font-weight: bold; margin: 0;"">Is there a person in this image?</p>
                    </div>
                </div>","1","main_experiment_trial","2","interview_scheme","schematic_sequence","","","","",""
"","","","","","html-keyboard-response","21","203983","0.0-21.0","EC6BBA2BFAA1418F8458AF0E36C3D260","019cf0b6-94e5-72e5-bef5-50263df31545","019cf037-5203-781a-b900-108ccb1cab86","","null","
                <div class=""stimulus-container"">
                    <img src=""images/schematic_sequence/interview_scheme/interview_scheme_3.png"" class=""exp-image"">
                    <div class=""question-area""></div> 
                </div>","null","","","","","","","","",""
"","","","","","html-button-response","22","204628","0.0-22.0","EC6BBA2BFAA1418F8458AF0E36C3D260","019cf0b6-94e5-72e5-bef5-50263df31545","019cf037-5203-781a-b900-108ccb1cab86","","641","
                <div class=""stimulus-container"">
                    <img src=""images/schematic_sequence/interview_scheme/interview_scheme_3.png"" class=""exp-image"">
                    <div class=""question-area"">
                        <p style=""font-size: 20px; font-weight: bold; margin: 0;"">Is there a person in this image?</p>
                    </div>
                </div>","1","main_experiment_trial","3","interview_scheme","schematic_sequence","","","","",""
"","","","","","html-keyboard-response","23","209632","0.0-23.0","EC6BBA2BFAA1418F8458AF0E36C3D260","019cf0b6-94e5-72e5-bef5-50263df31545","019cf037-5203-781a-b900-108ccb1cab86","","null","
                <div class=""stimulus-container"">
                    <img src=""images/schematic_sequence/interview_scheme/interview_scheme_4.png"" class=""exp-image"">
                    <div class=""question-area""></div> 
                </div>","null","","","","","","","","",""
"","","","","","html-button-response","24","210267","0.0-24.0","EC6BBA2BFAA1418F8458AF0E36C3D260","019cf0b6-94e5-72e5-bef5-50263df31545","019cf037-5203-781a-b900-108ccb1cab86","","632","
                <div class=""stimulus-container"">
                    <img src=""images/schematic_sequence/interview_scheme/interview_scheme_4.png"" class=""exp-image"">
                    <div class=""question-area"">
                        <p style=""font-size: 20px; font-weight: bold; margin: 0;"">Is there a person in this image?</p>
                    </div>
                </div>","1","main_experiment_trial","4","interview_scheme","schematic_sequence","","","","",""
"","","","","","html-keyboard-response","25","215270","0.0-25.0","EC6BBA2BFAA1418F8458AF0E36C3D260","019cf0b6-94e5-72e5-bef5-50263df31545","019cf037-5203-781a-b900-108ccb1cab86","","null","
                <div class=""stimulus-container"">
                    <img src=""images/schematic_sequence/interview_scheme/interview_scheme_5.png"" class=""exp-image"">
                    <div class=""question-area""></div> 
                </div>","null","","","","","","","","",""
"","","","","","html-button-response","26","216115","0.0-26.0","EC6BBA2BFAA1418F8458AF0E36C3D260","019cf0b6-94e5-72e5-bef5-50263df31545","019cf037-5203-781a-b900-108ccb1cab86","","841","
                <div class=""stimulus-container"">
                    <img src=""images/schematic_sequence/interview_scheme/interview_scheme_5.png"" class=""exp-image"">
                    <div class=""question-area"">
                        <p style=""font-size: 20px; font-weight: bold; margin: 0;"">Is there a person in this image?</p>
                    </div>
                </div>","1","main_experiment_trial","5","interview_scheme","schematic_sequence","","","","",""
"","","","","","html-keyboard-response","27","221118","0.0-27.0","EC6BBA2BFAA1418F8458AF0E36C3D260","019cf0b6-94e5-72e5-bef5-50263df31545","019cf037-5203-781a-b900-108ccb1cab86","","null","
                <div class=""stimulus-container"">
                    <img src=""images/schematic_sequence/interview_scheme/interview_scheme_6.png"" class=""exp-image"">
                    <div class=""question-area""></div> 
                </div>","null","","","","","","","","",""
"","","","","","html-button-response","28","221683","0.0-28.0","EC6BBA2BFAA1418F8458AF0E36C3D260","019cf0b6-94e5-72e5-bef5-50263df31545","019cf037-5203-781a-b900-108ccb1cab86","","562","
                <div class=""stimulus-container"">
                    <img src=""images/schematic_sequence/interview_scheme/interview_scheme_6.png"" class=""exp-image"">
                    <div class=""question-area"">
                        <p style=""font-size: 20px; font-weight: bold; margin: 0;"">Is there a person in this image?</p>
                    </div>
                </div>","0","main_experiment_trial","6","interview_scheme","schematic_sequence","","","","",""
"","","","","","html-keyboard-response","29","226687","0.0-29.0","EC6BBA2BFAA1418F8458AF0E36C3D260","019cf0b6-94e5-72e5-bef5-50263df31545","019cf037-5203-781a-b900-108ccb1cab86","","null","
                <div class=""stimulus-container"">
                    <img src=""images/schematic_sequence/interview_scheme/interview_scheme_7.png"" class=""exp-image"">
                    <div class=""question-area""></div> 
                </div>","null","","","","","","","","",""
"","","","","","html-button-response","30","227250","0.0-30.0","EC6BBA2BFAA1418F8458AF0E36C3D260","019cf0b6-94e5-72e5-bef5-50263df31545","019cf037-5203-781a-b900-108ccb1cab86","","560","
                <div class=""stimulus-container"">
                    <img src=""images/schematic_sequence/interview_scheme/interview_scheme_7.png"" class=""exp-image"">
                    <div class=""question-area"">
                        <p style=""font-size: 20px; font-weight: bold; margin: 0;"">Is there a person in this image?</p>
                    </div>
                </div>","0","main_experiment_trial","7","interview_scheme","schematic_sequence","","","","",""
"","","","","","html-keyboard-response","31","232253","0.0-31.0","EC6BBA2BFAA1418F8458AF0E36C3D260","019cf0b6-94e5-72e5-bef5-50263df31545","019cf037-5203-781a-b900-108ccb1cab86","","null","
                <div class=""stimulus-container"">
                    <img src=""images/schematic_sequence/interview_scheme/interview_scheme_8.png"" class=""exp-image"">
                    <div class=""question-area""></div> 
                </div>","null","","","","","","","","",""
"","","","","","html-button-response","32","232843","0.0-32.0","EC6BBA2BFAA1418F8458AF0E36C3D260","019cf0b6-94e5-72e5-bef5-50263df31545","019cf037-5203-781a-b900-108ccb1cab86","","588","
                <div class=""stimulus-container"">
                    <img src=""images/schematic_sequence/interview_scheme/interview_scheme_8.png"" class=""exp-image"">
                    <div class=""question-area"">
                        <p style=""font-size: 20px; font-weight: bold; margin: 0;"">Is there a person in this image?</p>
                    </div>
                </div>","0","main_experiment_trial","8","interview_scheme","schematic_sequence","","","","",""
"","","","","","html-keyboard-response","33","237846","0.0-33.0","EC6BBA2BFAA1418F8458AF0E36C3D260","019cf0b6-94e5-72e5-bef5-50263df31545","019cf037-5203-781a-b900-108ccb1cab86","","null","
                <div class=""stimulus-container"">
                    <img src=""images/schematic_sequence/interview_scheme/interview_scheme_9.png"" class=""exp-image"">
                    <div class=""question-area""></div> 
                </div>","null","","","","","","","","",""
"","","","","","html-button-response","34","238275","0.0-34.0","EC6BBA2BFAA1418F8458AF0E36C3D260","019cf0b6-94e5-72e5-bef5-50263df31545","019cf037-5203-781a-b900-108ccb1cab86","","426","
                <div class=""stimulus-container"">
                    <img src=""images/schematic_sequence/interview_scheme/interview_scheme_9.png"" class=""exp-image"">
                    <div class=""question-area"">
                        <p style=""font-size: 20px; font-weight: bold; margin: 0;"">Is there a person in this image?</p>
                    </div>
                </div>","0","main_experiment_trial","9","interview_scheme","schematic_sequence","","","","",""
"","","","","","html-keyboard-response","35","243278","0.0-35.0","EC6BBA2BFAA1418F8458AF0E36C3D260","019cf0b6-94e5-72e5-bef5-50263df31545","019cf037-5203-781a-b900-108ccb1cab86","","null","
                <div class=""stimulus-container"">
                    <img src=""images/schematic_sequence/interview_scheme/interview_scheme_ten.png"" class=""exp-image"">
                    <div class=""question-area""></div> 
                </div>","null","","","","","","","","",""
"","","","","","html-button-response","36","243972","0.0-36.0","EC6BBA2BFAA1418F8458AF0E36C3D260","019cf0b6-94e5-72e5-bef5-50263df31545","019cf037-5203-781a-b900-108ccb1cab86","","691","
                <div class=""stimulus-container"">
                    <img src=""images/schematic_sequence/interview_scheme/interview_scheme_ten.png"" class=""exp-image"">
                    <div class=""question-area"">
                        <p style=""font-size: 20px; font-weight: bold; margin: 0;"">Is there a person in this image?</p>
                    </div>
                </div>","0","main_experiment_trial","ten","interview_scheme","schematic_sequence","","","","",""
"","","","","","html-keyboard-response","37","244974","0.0-37.0","EC6BBA2BFAA1418F8458AF0E36C3D260","019cf0b6-94e5-72e5-bef5-50263df31545","019cf037-5203-781a-b900-108ccb1cab86","","null","<div style=""background-color: white; width: 100vw; height: 100vh;""></div>","null","","","","","","","","",""
"","","","","","html-keyboard-response","38","249976","0.0-38.0","EC6BBA2BFAA1418F8458AF0E36C3D260","019cf0b6-94e5-72e5-bef5-50263df31545","019cf037-5203-781a-b900-108ccb1cab86","","null","
                <div class=""stimulus-container"">
                    <img src=""images/causal_sequence/museum_causal/museum_causal_1.png"" class=""exp-image"">
                    <div class=""question-area""></div> 
                </div>","null","","","","","","","","",""
"","","","","","html-button-response","39","250643","0.0-39.0","EC6BBA2BFAA1418F8458AF0E36C3D260","019cf0b6-94e5-72e5-bef5-50263df31545","019cf037-5203-781a-b900-108ccb1cab86","","663","
                <div class=""stimulus-container"">
                    <img src=""images/causal_sequence/museum_causal/museum_causal_1.png"" class=""exp-image"">
                    <div class=""question-area"">
                        <p style=""font-size: 20px; font-weight: bold; margin: 0;"">Is there a person in this image?</p>
                    </div>
                </div>","0","main_experiment_trial","1","museum_causal","causal_sequence","","","","",""
"","","","","","html-keyboard-response","40","255646","0.0-40.0","EC6BBA2BFAA1418F8458AF0E36C3D260","019cf0b6-94e5-72e5-bef5-50263df31545","019cf037-5203-781a-b900-108ccb1cab86","","null","
                <div class=""stimulus-container"">
                    <img src=""images/causal_sequence/museum_causal/museum_causal_2.png"" class=""exp-image"">
                    <div class=""question-area""></div> 
                </div>","null","","","","","","","","",""
"","","","","","html-button-response","41","256283","0.0-41.0","EC6BBA2BFAA1418F8458AF0E36C3D260","019cf0b6-94e5-72e5-bef5-50263df31545","019cf037-5203-781a-b900-108ccb1cab86","","634","
                <div class=""stimulus-container"">
                    <img src=""images/causal_sequence/museum_causal/museum_causal_2.png"" class=""exp-image"">
                    <div class=""question-area"">
                        <p style=""font-size: 20px; font-weight: bold; margin: 0;"">Is there a person in this image?</p>
                    </div>
                </div>","1","main_experiment_trial","2","museum_causal","causal_sequence","","","","",""
"","","","","","html-keyboard-response","42","261286","0.0-42.0","EC6BBA2BFAA1418F8458AF0E36C3D260","019cf0b6-94e5-72e5-bef5-50263df31545","019cf037-5203-781a-b900-108ccb1cab86","","null","
                <div class=""stimulus-container"">
                    <img src=""images/causal_sequence/museum_causal/museum_causal_3.png"" class=""exp-image"">
                    <div class=""question-area""></div> 
                </div>","null","","","","","","","","",""
"","","","","","html-button-response","43","263515","0.0-43.0","EC6BBA2BFAA1418F8458AF0E36C3D260","019cf0b6-94e5-72e5-bef5-50263df31545","019cf037-5203-781a-b900-108ccb1cab86","","2226","
                <div class=""stimulus-container"">
                    <img src=""images/causal_sequence/museum_causal/museum_causal_3.png"" class=""exp-image"">
                    <div class=""question-area"">
                        <p style=""font-size: 20px; font-weight: bold; margin: 0;"">Is there a person in this image?</p>
                    </div>
                </div>","0","main_experiment_trial","3","museum_causal","causal_sequence","","","","",""
"","","","","","html-keyboard-response","44","268519","0.0-44.0","EC6BBA2BFAA1418F8458AF0E36C3D260","019cf0b6-94e5-72e5-bef5-50263df31545","019cf037-5203-781a-b900-108ccb1cab86","","null","
                <div class=""stimulus-container"">
                    <img src=""images/causal_sequence/museum_causal/museum_causal_4.png"" class=""exp-image"">
                    <div class=""question-area""></div> 
                </div>","null","","","","","","","","",""
"","","","","","html-button-response","45","269284","0.0-45.0","EC6BBA2BFAA1418F8458AF0E36C3D260","019cf0b6-94e5-72e5-bef5-50263df31545","019cf037-5203-781a-b900-108ccb1cab86","","762","
                <div class=""stimulus-container"">
                    <img src=""images/causal_sequence/museum_causal/museum_causal_4.png"" class=""exp-image"">
                    <div class=""question-area"">
                        <p style=""font-size: 20px; font-weight: bold; margin: 0;"">Is there a person in this image?</p>
                    </div>
                </div>","1","main_experiment_trial","4","museum_causal","causal_sequence","","","","",""
"","","","","","html-keyboard-response","46","274287","0.0-46.0","EC6BBA2BFAA1418F8458AF0E36C3D260","019cf0b6-94e5-72e5-bef5-50263df31545","019cf037-5203-781a-b900-108ccb1cab86","","null","
                <div class=""stimulus-container"">
                    <img src=""images/causal_sequence/museum_causal/museum_causal_5.png"" class=""exp-image"">
                    <div class=""question-area""></div> 
                </div>","null","","","","","","","","",""
"","","","","","html-button-response","47","275139","0.0-47.0","EC6BBA2BFAA1418F8458AF0E36C3D260","019cf0b6-94e5-72e5-bef5-50263df31545","019cf037-5203-781a-b900-108ccb1cab86","","848","
                <div class=""stimulus-container"">
                    <img src=""images/causal_sequence/museum_causal/museum_causal_5.png"" class=""exp-image"">
                    <div class=""question-area"">
                        <p style=""font-size: 20px; font-weight: bold; margin: 0;"">Is there a person in this image?</p>
                    </div>
                </div>","0","main_experiment_trial","5","museum_causal","causal_sequence","","","","",""
"","","","","","html-keyboard-response","48","280143","0.0-48.0","EC6BBA2BFAA1418F8458AF0E36C3D260","019cf0b6-94e5-72e5-bef5-50263df31545","019cf037-5203-781a-b900-108ccb1cab86","","null","
                <div class=""stimulus-container"">
                    <img src=""images/causal_sequence/museum_causal/museum_causal_6.png"" class=""exp-image"">
                    <div class=""question-area""></div> 
                </div>","null","","","","","","","","",""
"","","","","","html-button-response","49","280723","0.0-49.0","EC6BBA2BFAA1418F8458AF0E36C3D260","019cf0b6-94e5-72e5-bef5-50263df31545","019cf037-5203-781a-b900-108ccb1cab86","","577","
                <div class=""stimulus-container"">
                    <img src=""images/causal_sequence/museum_causal/museum_causal_6.png"" class=""exp-image"">
                    <div class=""question-area"">
                        <p style=""font-size: 20px; font-weight: bold; margin: 0;"">Is there a person in this image?</p>
                    </div>
                </div>","0","main_experiment_trial","6","museum_causal","causal_sequence","","","","",""
"","","","","","html-keyboard-response","50","285727","0.0-50.0","EC6BBA2BFAA1418F8458AF0E36C3D260","019cf0b6-94e5-72e5-bef5-50263df31545","019cf037-5203-781a-b900-108ccb1cab86","","null","
                <div class=""stimulus-container"">
                    <img src=""images/causal_sequence/museum_causal/museum_causal_7.png"" class=""exp-image"">
                    <div class=""question-area""></div> 
                </div>","null","","","","","","","","",""
"","","","","","html-button-response","51","286499","0.0-51.0","EC6BBA2BFAA1418F8458AF0E36C3D260","019cf0b6-94e5-72e5-bef5-50263df31545","019cf037-5203-781a-b900-108ccb1cab86","","769","
                <div class=""stimulus-container"">
                    <img src=""images/causal_sequence/museum_causal/museum_causal_7.png"" class=""exp-image"">
                    <div class=""question-area"">
                        <p style=""font-size: 20px; font-weight: bold; margin: 0;"">Is there a person in this image?</p>
                    </div>
                </div>","1","main_experiment_trial","7","museum_causal","causal_sequence","","","","",""
"","","","","","html-keyboard-response","52","291503","0.0-52.0","EC6BBA2BFAA1418F8458AF0E36C3D260","019cf0b6-94e5-72e5-bef5-50263df31545","019cf037-5203-781a-b900-108ccb1cab86","","null","
                <div class=""stimulus-container"">
                    <img src=""images/causal_sequence/museum_causal/museum_causal_8.png"" class=""exp-image"">
                    <div class=""question-area""></div> 
                </div>","null","","","","","","","","",""
"","","","","","html-button-response","53","292338","0.0-53.0","EC6BBA2BFAA1418F8458AF0E36C3D260","019cf0b6-94e5-72e5-bef5-50263df31545","019cf037-5203-781a-b900-108ccb1cab86","","832","
                <div class=""stimulus-container"">
                    <img src=""images/causal_sequence/museum_causal/museum_causal_8.png"" class=""exp-image"">
                    <div class=""question-area"">
                        <p style=""font-size: 20px; font-weight: bold; margin: 0;"">Is there a person in this image?</p>
                    </div>
                </div>","0","main_experiment_trial","8","museum_causal","causal_sequence","","","","",""
"","","","","","html-keyboard-response","54","297342","0.0-54.0","EC6BBA2BFAA1418F8458AF0E36C3D260","019cf0b6-94e5-72e5-bef5-50263df31545","019cf037-5203-781a-b900-108ccb1cab86","","null","
                <div class=""stimulus-container"">
                    <img src=""images/causal_sequence/museum_causal/museum_causal_9.png"" class=""exp-image"">
                    <div class=""question-area""></div> 
                </div>","null","","","","","","","","",""
"","","","","","html-button-response","55","298116","0.0-55.0","EC6BBA2BFAA1418F8458AF0E36C3D260","019cf0b6-94e5-72e5-bef5-50263df31545","019cf037-5203-781a-b900-108ccb1cab86","","771","
                <div class=""stimulus-container"">
                    <img src=""images/causal_sequence/museum_causal/museum_causal_9.png"" class=""exp-image"">
                    <div class=""question-area"">
                        <p style=""font-size: 20px; font-weight: bold; margin: 0;"">Is there a person in this image?</p>
                    </div>
                </div>","1","main_experiment_trial","9","museum_causal","causal_sequence","","","","",""
"","","","","","html-keyboard-response","56","303119","0.0-56.0","EC6BBA2BFAA1418F8458AF0E36C3D260","019cf0b6-94e5-72e5-bef5-50263df31545","019cf037-5203-781a-b900-108ccb1cab86","","null","
                <div class=""stimulus-container"">
                    <img src=""images/causal_sequence/museum_causal/museum_causal_ten.png"" class=""exp-image"">
                    <div class=""question-area""></div> 
                </div>","null","","","","","","","","",""
"","","","","","html-button-response","57","303731","0.0-57.0","EC6BBA2BFAA1418F8458AF0E36C3D260","019cf0b6-94e5-72e5-bef5-50263df31545","019cf037-5203-781a-b900-108ccb1cab86","","608","
                <div class=""stimulus-container"">
                    <img src=""images/causal_sequence/museum_causal/museum_causal_ten.png"" class=""exp-image"">
                    <div class=""question-area"">
                        <p style=""font-size: 20px; font-weight: bold; margin: 0;"">Is there a person in this image?</p>
                    </div>
                </div>","0","main_experiment_trial","ten","museum_causal","causal_sequence","","","","",""
"","","","","","html-keyboard-response","58","304733","0.0-58.0","EC6BBA2BFAA1418F8458AF0E36C3D260","019cf0b6-94e5-72e5-bef5-50263df31545","019cf037-5203-781a-b900-108ccb1cab86","","null","<div style=""background-color: white; width: 100vw; height: 100vh;""></div>","null","","","","","","","","",""
"","","","","","html-keyboard-response","59","309736","0.0-59.0","EC6BBA2BFAA1418F8458AF0E36C3D260","019cf0b6-94e5-72e5-bef5-50263df31545","019cf037-5203-781a-b900-108ccb1cab86","","null","
                <div class=""stimulus-container"">
                    <img src=""images/schematic_sequence/restaurant_scheme/restaurant_scheme_1.png"" class=""exp-image"">
                    <div class=""question-area""></div> 
                </div>","null","","","","","","","","",""
"","","","","","html-button-response","60","310427","0.0-60.0","EC6BBA2BFAA1418F8458AF0E36C3D260","019cf0b6-94e5-72e5-bef5-50263df31545","019cf037-5203-781a-b900-108ccb1cab86","","688","
                <div class=""stimulus-container"">
                    <img src=""images/schematic_sequence/restaurant_scheme/restaurant_scheme_1.png"" class=""exp-image"">
                    <div class=""question-area"">
                        <p style=""font-size: 20px; font-weight: bold; margin: 0;"">Is there a person in this image?</p>
                    </div>
                </div>","0","main_experiment_trial","1","restaurant_scheme","schematic_sequence","","","","",""
"","","","","","html-keyboard-response","61","315430","0.0-61.0","EC6BBA2BFAA1418F8458AF0E36C3D260","019cf0b6-94e5-72e5-bef5-50263df31545","019cf037-5203-781a-b900-108ccb1cab86","","null","
                <div class=""stimulus-container"">
                    <img src=""images/schematic_sequence/restaurant_scheme/restaurant_scheme_2.png"" class=""exp-image"">
                    <div class=""question-area""></div> 
                </div>","null","","","","","","","","",""
"","","","","","html-button-response","62","316066","0.0-62.0","EC6BBA2BFAA1418F8458AF0E36C3D260","019cf0b6-94e5-72e5-bef5-50263df31545","019cf037-5203-781a-b900-108ccb1cab86","","633","
                <div class=""stimulus-container"">
                    <img src=""images/schematic_sequence/restaurant_scheme/restaurant_scheme_2.png"" class=""exp-image"">
                    <div class=""question-area"">
                        <p style=""font-size: 20px; font-weight: bold; margin: 0;"">Is there a person in this image?</p>
                    </div>
                </div>","1","main_experiment_trial","2","restaurant_scheme","schematic_sequence","","","","",""
"","","","","","html-keyboard-response","63","321069","0.0-63.0","EC6BBA2BFAA1418F8458AF0E36C3D260","019cf0b6-94e5-72e5-bef5-50263df31545","019cf037-5203-781a-b900-108ccb1cab86","","null","
                <div class=""stimulus-container"">
                    <img src=""images/schematic_sequence/restaurant_scheme/restaurant_scheme_3.png"" class=""exp-image"">
                    <div class=""question-area""></div> 
                </div>","null","","","","","","","","",""
"","","","","","html-button-response","64","321619","0.0-64.0","EC6BBA2BFAA1418F8458AF0E36C3D260","019cf0b6-94e5-72e5-bef5-50263df31545","019cf037-5203-781a-b900-108ccb1cab86","","547","
                <div class=""stimulus-container"">
                    <img src=""images/schematic_sequence/restaurant_scheme/restaurant_scheme_3.png"" class=""exp-image"">
                    <div class=""question-area"">
                        <p style=""font-size: 20px; font-weight: bold; margin: 0;"">Is there a person in this image?</p>
                    </div>
                </div>","1","main_experiment_trial","3","restaurant_scheme","schematic_sequence","","","","",""
"","","","","","html-keyboard-response","65","326623","0.0-65.0","EC6BBA2BFAA1418F8458AF0E36C3D260","019cf0b6-94e5-72e5-bef5-50263df31545","019cf037-5203-781a-b900-108ccb1cab86","","null","
                <div class=""stimulus-container"">
                    <img src=""images/schematic_sequence/restaurant_scheme/restaurant_scheme_4.png"" class=""exp-image"">
                    <div class=""question-area""></div> 
                </div>","null","","","","","","","","",""
"","","","","","html-button-response","66","327418","0.0-66.0","EC6BBA2BFAA1418F8458AF0E36C3D260","019cf0b6-94e5-72e5-bef5-50263df31545","019cf037-5203-781a-b900-108ccb1cab86","","792","
                <div class=""stimulus-container"">
                    <img src=""images/schematic_sequence/restaurant_scheme/restaurant_scheme_4.png"" class=""exp-image"">
                    <div class=""question-area"">
                        <p style=""font-size: 20px; font-weight: bold; margin: 0;"">Is there a person in this image?</p>
                    </div>
                </div>","0","main_experiment_trial","4","restaurant_scheme","schematic_sequence","","","","",""
"","","","","","html-keyboard-response","67","332422","0.0-67.0","EC6BBA2BFAA1418F8458AF0E36C3D260","019cf0b6-94e5-72e5-bef5-50263df31545","019cf037-5203-781a-b900-108ccb1cab86","","null","
                <div class=""stimulus-container"">
                    <img src=""images/schematic_sequence/restaurant_scheme/restaurant_scheme_5.png"" class=""exp-image"">
                    <div class=""question-area""></div> 
                </div>","null","","","","","","","","",""
"","","","","","html-button-response","68","333028","0.0-68.0","EC6BBA2BFAA1418F8458AF0E36C3D260","019cf0b6-94e5-72e5-bef5-50263df31545","019cf037-5203-781a-b900-108ccb1cab86","","603","
                <div class=""stimulus-container"">
                    <img src=""images/schematic_sequence/restaurant_scheme/restaurant_scheme_5.png"" class=""exp-image"">
                    <div class=""question-area"">
                        <p style=""font-size: 20px; font-weight: bold; margin: 0;"">Is there a person in this image?</p>
                    </div>
                </div>","0","main_experiment_trial","5","restaurant_scheme","schematic_sequence","","","","",""
"","","","","","html-keyboard-response","69","338031","0.0-69.0","EC6BBA2BFAA1418F8458AF0E36C3D260","019cf0b6-94e5-72e5-bef5-50263df31545","019cf037-5203-781a-b900-108ccb1cab86","","null","
                <div class=""stimulus-container"">
                    <img src=""images/schematic_sequence/restaurant_scheme/restaurant_scheme_6.png"" class=""exp-image"">
                    <div class=""question-area""></div> 
                </div>","null","","","","","","","","",""
"","","","","","html-button-response","70","338635","0.0-70.0","EC6BBA2BFAA1418F8458AF0E36C3D260","019cf0b6-94e5-72e5-bef5-50263df31545","019cf037-5203-781a-b900-108ccb1cab86","","600","
                <div class=""stimulus-container"">
                    <img src=""images/schematic_sequence/restaurant_scheme/restaurant_scheme_6.png"" class=""exp-image"">
                    <div class=""question-area"">
                        <p style=""font-size: 20px; font-weight: bold; margin: 0;"">Is there a person in this image?</p>
                    </div>
                </div>","1","main_experiment_trial","6","restaurant_scheme","schematic_sequence","","","","",""
"","","","","","html-keyboard-response","71","343637","0.0-71.0","EC6BBA2BFAA1418F8458AF0E36C3D260","019cf0b6-94e5-72e5-bef5-50263df31545","019cf037-5203-781a-b900-108ccb1cab86","","null","
                <div class=""stimulus-container"">
                    <img src=""images/schematic_sequence/restaurant_scheme/restaurant_scheme_7.png"" class=""exp-image"">
                    <div class=""question-area""></div> 
                </div>","null","","","","","","","","",""
"","","","","","html-button-response","72","344083","0.0-72.0","EC6BBA2BFAA1418F8458AF0E36C3D260","019cf0b6-94e5-72e5-bef5-50263df31545","019cf037-5203-781a-b900-108ccb1cab86","","443","
                <div class=""stimulus-container"">
                    <img src=""images/schematic_sequence/restaurant_scheme/restaurant_scheme_7.png"" class=""exp-image"">
                    <div class=""question-area"">
                        <p style=""font-size: 20px; font-weight: bold; margin: 0;"">Is there a person in this image?</p>
                    </div>
                </div>","1","main_experiment_trial","7","restaurant_scheme","schematic_sequence","","","","",""
"","","","","","html-keyboard-response","73","349086","0.0-73.0","EC6BBA2BFAA1418F8458AF0E36C3D260","019cf0b6-94e5-72e5-bef5-50263df31545","019cf037-5203-781a-b900-108ccb1cab86","","null","
                <div class=""stimulus-container"">
                    <img src=""images/schematic_sequence/restaurant_scheme/restaurant_scheme_8.png"" class=""exp-image"">
                    <div class=""question-area""></div> 
                </div>","null","","","","","","","","",""
"","","","","","html-button-response","74","349739","0.0-74.0","EC6BBA2BFAA1418F8458AF0E36C3D260","019cf0b6-94e5-72e5-bef5-50263df31545","019cf037-5203-781a-b900-108ccb1cab86","","650","
                <div class=""stimulus-container"">
                    <img src=""images/schematic_sequence/restaurant_scheme/restaurant_scheme_8.png"" class=""exp-image"">
                    <div class=""question-area"">
                        <p style=""font-size: 20px; font-weight: bold; margin: 0;"">Is there a person in this image?</p>
                    </div>
                </div>","1","main_experiment_trial","8","restaurant_scheme","schematic_sequence","","","","",""
"","","","","","html-keyboard-response","75","354742","0.0-75.0","EC6BBA2BFAA1418F8458AF0E36C3D260","019cf0b6-94e5-72e5-bef5-50263df31545","019cf037-5203-781a-b900-108ccb1cab86","","null","
                <div class=""stimulus-container"">
                    <img src=""images/schematic_sequence/restaurant_scheme/restaurant_scheme_9.png"" class=""exp-image"">
                    <div class=""question-area""></div> 
                </div>","null","","","","","","","","",""
"","","","","","html-button-response","76","356963","0.0-76.0","EC6BBA2BFAA1418F8458AF0E36C3D260","019cf0b6-94e5-72e5-bef5-50263df31545","019cf037-5203-781a-b900-108ccb1cab86","","2217","
                <div class=""stimulus-container"">
                    <img src=""images/schematic_sequence/restaurant_scheme/restaurant_scheme_9.png"" class=""exp-image"">
                    <div class=""question-area"">
                        <p style=""font-size: 20px; font-weight: bold; margin: 0;"">Is there a person in this image?</p>
                    </div>
                </div>","0","main_experiment_trial","9","restaurant_scheme","schematic_sequence","","","","",""
"","","","","","html-keyboard-response","77","361965","0.0-77.0","EC6BBA2BFAA1418F8458AF0E36C3D260","019cf0b6-94e5-72e5-bef5-50263df31545","019cf037-5203-781a-b900-108ccb1cab86","","null","
                <div class=""stimulus-container"">
                    <img src=""images/schematic_sequence/restaurant_scheme/restaurant_scheme_ten.png"" class=""exp-image"">
                    <div class=""question-area""></div> 
                </div>","null","","","","","","","","",""
"","","","","","html-button-response","78","362643","0.0-78.0","EC6BBA2BFAA1418F8458AF0E36C3D260","019cf0b6-94e5-72e5-bef5-50263df31545","019cf037-5203-781a-b900-108ccb1cab86","","675","
                <div class=""stimulus-container"">
                    <img src=""images/schematic_sequence/restaurant_scheme/restaurant_scheme_ten.png"" class=""exp-image"">
                    <div class=""question-area"">
                        <p style=""font-size: 20px; font-weight: bold; margin: 0;"">Is there a person in this image?</p>
                    </div>
                </div>","0","main_experiment_trial","ten","restaurant_scheme","schematic_sequence","","","","",""
"","","","","","html-keyboard-response","79","363646","0.0-79.0","EC6BBA2BFAA1418F8458AF0E36C3D260","019cf0b6-94e5-72e5-bef5-50263df31545","019cf037-5203-781a-b900-108ccb1cab86","","null","<div style=""background-color: white; width: 100vw; height: 100vh;""></div>","null","","","","","","","","",""
"","","","","","html-keyboard-response","80","368649","0.0-80.0","EC6BBA2BFAA1418F8458AF0E36C3D260","019cf0b6-94e5-72e5-bef5-50263df31545","019cf037-5203-781a-b900-108ccb1cab86","","null","
                <div class=""stimulus-container"">
                    <img src=""images/schematic_sequence/supermarket_scheme/supermarket_scheme_1.png"" class=""exp-image"">
                    <div class=""question-area""></div> 
                </div>","null","","","","","","","","",""
"","","","","","html-button-response","81","369364","0.0-81.0","EC6BBA2BFAA1418F8458AF0E36C3D260","019cf0b6-94e5-72e5-bef5-50263df31545","019cf037-5203-781a-b900-108ccb1cab86","","711","
                <div class=""stimulus-container"">
                    <img src=""images/schematic_sequence/supermarket_scheme/supermarket_scheme_1.png"" class=""exp-image"">
                    <div class=""question-area"">
                        <p style=""font-size: 20px; font-weight: bold; margin: 0;"">Is there a person in this image?</p>
                    </div>
                </div>","1","main_experiment_trial","1","supermarket_scheme","schematic_sequence","","","","",""
"","","","","","html-keyboard-response","82","374367","0.0-82.0","EC6BBA2BFAA1418F8458AF0E36C3D260","019cf0b6-94e5-72e5-bef5-50263df31545","019cf037-5203-781a-b900-108ccb1cab86","","null","
                <div class=""stimulus-container"">
                    <img src=""images/schematic_sequence/supermarket_scheme/supermarket_scheme_2.png"" class=""exp-image"">
                    <div class=""question-area""></div> 
                </div>","null","","","","","","","","",""
"","","","","","html-button-response","83","374835","0.0-83.0","EC6BBA2BFAA1418F8458AF0E36C3D260","019cf0b6-94e5-72e5-bef5-50263df31545","019cf037-5203-781a-b900-108ccb1cab86","","465","
                <div class=""stimulus-container"">
                    <img src=""images/schematic_sequence/supermarket_scheme/supermarket_scheme_2.png"" class=""exp-image"">
                    <div class=""question-area"">
                        <p style=""font-size: 20px; font-weight: bold; margin: 0;"">Is there a person in this image?</p>
                    </div>
                </div>","1","main_experiment_trial","2","supermarket_scheme","schematic_sequence","","","","",""
"","","","","","html-keyboard-response","84","379839","0.0-84.0","EC6BBA2BFAA1418F8458AF0E36C3D260","019cf0b6-94e5-72e5-bef5-50263df31545","019cf037-5203-781a-b900-108ccb1cab86","","null","
                <div class=""stimulus-container"">
                    <img src=""images/schematic_sequence/supermarket_scheme/supermarket_scheme_3.png"" class=""exp-image"">
                    <div class=""question-area""></div> 
                </div>","null","","","","","","","","",""
"","","","","","html-button-response","85","380411","0.0-85.0","EC6BBA2BFAA1418F8458AF0E36C3D260","019cf0b6-94e5-72e5-bef5-50263df31545","019cf037-5203-781a-b900-108ccb1cab86","","569","
                <div class=""stimulus-container"">
                    <img src=""images/schematic_sequence/supermarket_scheme/supermarket_scheme_3.png"" class=""exp-image"">
                    <div class=""question-area"">
                        <p style=""font-size: 20px; font-weight: bold; margin: 0;"">Is there a person in this image?</p>
                    </div>
                </div>","1","main_experiment_trial","3","supermarket_scheme","schematic_sequence","","","","",""
"","","","","","html-keyboard-response","86","385414","0.0-86.0","EC6BBA2BFAA1418F8458AF0E36C3D260","019cf0b6-94e5-72e5-bef5-50263df31545","019cf037-5203-781a-b900-108ccb1cab86","","null","
                <div class=""stimulus-container"">
                    <img src=""images/schematic_sequence/supermarket_scheme/supermarket_scheme_4.png"" class=""exp-image"">
                    <div class=""question-area""></div> 
                </div>","null","","","","","","","","",""
"","","","","","html-button-response","87","385987","0.0-87.0","EC6BBA2BFAA1418F8458AF0E36C3D260","019cf0b6-94e5-72e5-bef5-50263df31545","019cf037-5203-781a-b900-108ccb1cab86","","570","
                <div class=""stimulus-container"">
                    <img src=""images/schematic_sequence/supermarket_scheme/supermarket_scheme_4.png"" class=""exp-image"">
                    <div class=""question-area"">
                        <p style=""font-size: 20px; font-weight: bold; margin: 0;"">Is there a person in this image?</p>
                    </div>
                </div>","0","main_experiment_trial","4","supermarket_scheme","schematic_sequence","","","","",""
"","","","","","html-keyboard-response","88","390991","0.0-88.0","EC6BBA2BFAA1418F8458AF0E36C3D260","019cf0b6-94e5-72e5-bef5-50263df31545","019cf037-5203-781a-b900-108ccb1cab86","","null","
                <div class=""stimulus-container"">
                    <img src=""images/schematic_sequence/supermarket_scheme/supermarket_scheme_5.png"" class=""exp-image"">
                    <div class=""question-area""></div> 
                </div>","null","","","","","","","","",""
"","","","","","html-button-response","89","391715","0.0-89.0","EC6BBA2BFAA1418F8458AF0E36C3D260","019cf0b6-94e5-72e5-bef5-50263df31545","019cf037-5203-781a-b900-108ccb1cab86","","721","
                <div class=""stimulus-container"">
                    <img src=""images/schematic_sequence/supermarket_scheme/supermarket_scheme_5.png"" class=""exp-image"">
                    <div class=""question-area"">
                        <p style=""font-size: 20px; font-weight: bold; margin: 0;"">Is there a person in this image?</p>
                    </div>
                </div>","1","main_experiment_trial","5","supermarket_scheme","schematic_sequence","","","","",""
"","","","","","html-keyboard-response","90","396718","0.0-90.0","EC6BBA2BFAA1418F8458AF0E36C3D260","019cf0b6-94e5-72e5-bef5-50263df31545","019cf037-5203-781a-b900-108ccb1cab86","","null","
                <div class=""stimulus-container"">
                    <img src=""images/schematic_sequence/supermarket_scheme/supermarket_scheme_6.png"" class=""exp-image"">
                    <div class=""question-area""></div> 
                </div>","null","","","","","","","","",""
"","","","","","html-button-response","91","397637","0.0-91.0","EC6BBA2BFAA1418F8458AF0E36C3D260","019cf0b6-94e5-72e5-bef5-50263df31545","019cf037-5203-781a-b900-108ccb1cab86","","915","
                <div class=""stimulus-container"">
                    <img src=""images/schematic_sequence/supermarket_scheme/supermarket_scheme_6.png"" class=""exp-image"">
                    <div class=""question-area"">
                        <p style=""font-size: 20px; font-weight: bold; margin: 0;"">Is there a person in this image?</p>
                    </div>
                </div>","0","main_experiment_trial","6","supermarket_scheme","schematic_sequence","","","","",""
"","","","","","html-keyboard-response","92","402640","0.0-92.0","EC6BBA2BFAA1418F8458AF0E36C3D260","019cf0b6-94e5-72e5-bef5-50263df31545","019cf037-5203-781a-b900-108ccb1cab86","","null","
                <div class=""stimulus-container"">
                    <img src=""images/schematic_sequence/supermarket_scheme/supermarket_scheme_7.png"" class=""exp-image"">
                    <div class=""question-area""></div> 
                </div>","null","","","","","","","","",""
"","","","","","html-button-response","93","403762","0.0-93.0","EC6BBA2BFAA1418F8458AF0E36C3D260","019cf0b6-94e5-72e5-bef5-50263df31545","019cf037-5203-781a-b900-108ccb1cab86","","1120","
                <div class=""stimulus-container"">
                    <img src=""images/schematic_sequence/supermarket_scheme/supermarket_scheme_7.png"" class=""exp-image"">
                    <div class=""question-area"">
                        <p style=""font-size: 20px; font-weight: bold; margin: 0;"">Is there a person in this image?</p>
                    </div>
                </div>","0","main_experiment_trial","7","supermarket_scheme","schematic_sequence","","","","",""
"","","","","","html-keyboard-response","94","408765","0.0-94.0","EC6BBA2BFAA1418F8458AF0E36C3D260","019cf0b6-94e5-72e5-bef5-50263df31545","019cf037-5203-781a-b900-108ccb1cab86","","null","
                <div class=""stimulus-container"">
                    <img src=""images/schematic_sequence/supermarket_scheme/supermarket_scheme_8.png"" class=""exp-image"">
                    <div class=""question-area""></div> 
                </div>","null","","","","","","","","",""
"","","","","","html-button-response","95","409362","0.0-95.0","EC6BBA2BFAA1418F8458AF0E36C3D260","019cf0b6-94e5-72e5-bef5-50263df31545","019cf037-5203-781a-b900-108ccb1cab86","","595","
                <div class=""stimulus-container"">
                    <img src=""images/schematic_sequence/supermarket_scheme/supermarket_scheme_8.png"" class=""exp-image"">
                    <div class=""question-area"">
                        <p style=""font-size: 20px; font-weight: bold; margin: 0;"">Is there a person in this image?</p>
                    </div>
                </div>","0","main_experiment_trial","8","supermarket_scheme","schematic_sequence","","","","",""
"","","","","","html-keyboard-response","96","414366","0.0-96.0","EC6BBA2BFAA1418F8458AF0E36C3D260","019cf0b6-94e5-72e5-bef5-50263df31545","019cf037-5203-781a-b900-108ccb1cab86","","null","
                <div class=""stimulus-container"">
                    <img src=""images/schematic_sequence/supermarket_scheme/supermarket_scheme_9.png"" class=""exp-image"">
                    <div class=""question-area""></div> 
                </div>","null","","","","","","","","",""
"","","","","","html-button-response","97","415018","0.0-97.0","EC6BBA2BFAA1418F8458AF0E36C3D260","019cf0b6-94e5-72e5-bef5-50263df31545","019cf037-5203-781a-b900-108ccb1cab86","","649","
                <div class=""stimulus-container"">
                    <img src=""images/schematic_sequence/supermarket_scheme/supermarket_scheme_9.png"" class=""exp-image"">
                    <div class=""question-area"">
                        <p style=""font-size: 20px; font-weight: bold; margin: 0;"">Is there a person in this image?</p>
                    </div>
                </div>","0","main_experiment_trial","9","supermarket_scheme","schematic_sequence","","","","",""
"","","","","","html-keyboard-response","98","420021","0.0-98.0","EC6BBA2BFAA1418F8458AF0E36C3D260","019cf0b6-94e5-72e5-bef5-50263df31545","019cf037-5203-781a-b900-108ccb1cab86","","null","
                <div class=""stimulus-container"">
                    <img src=""images/schematic_sequence/supermarket_scheme/supermarket_scheme_ten.png"" class=""exp-image"">
                    <div class=""question-area""></div> 
                </div>","null","","","","","","","","",""
"","","","","","html-button-response","99","421452","0.0-99.0","EC6BBA2BFAA1418F8458AF0E36C3D260","019cf0b6-94e5-72e5-bef5-50263df31545","019cf037-5203-781a-b900-108ccb1cab86","","1427","
                <div class=""stimulus-container"">
                    <img src=""images/schematic_sequence/supermarket_scheme/supermarket_scheme_ten.png"" class=""exp-image"">
                    <div class=""question-area"">
                        <p style=""font-size: 20px; font-weight: bold; margin: 0;"">Is there a person in this image?</p>
                    </div>
                </div>","1","main_experiment_trial","ten","supermarket_scheme","schematic_sequence","","","","",""
"","","","","","html-keyboard-response","100","422454","0.0-100.0","EC6BBA2BFAA1418F8458AF0E36C3D260","019cf0b6-94e5-72e5-bef5-50263df31545","019cf037-5203-781a-b900-108ccb1cab86","","null","<div style=""background-color: white; width: 100vw; height: 100vh;""></div>","null","","","","","","","","",""
"","","","","","html-keyboard-response","101","427457","0.0-101.0","EC6BBA2BFAA1418F8458AF0E36C3D260","019cf0b6-94e5-72e5-bef5-50263df31545","019cf037-5203-781a-b900-108ccb1cab86","","null","
                <div class=""stimulus-container"">
                    <img src=""images/causal_sequence/saving_a_cat_causal/saving_a_cat_causal_1.png"" class=""exp-image"">
                    <div class=""question-area""></div> 
                </div>","null","","","","","","","","",""
"","","","","","html-button-response","102","428372","0.0-102.0","EC6BBA2BFAA1418F8458AF0E36C3D260","019cf0b6-94e5-72e5-bef5-50263df31545","019cf037-5203-781a-b900-108ccb1cab86","","912","
                <div class=""stimulus-container"">
                    <img src=""images/causal_sequence/saving_a_cat_causal/saving_a_cat_causal_1.png"" class=""exp-image"">
                    <div class=""question-area"">
                        <p style=""font-size: 20px; font-weight: bold; margin: 0;"">Is there a person in this image?</p>
                    </div>
                </div>","0","main_experiment_trial","1","saving_a_cat_causal","causal_sequence","","","","",""
"","","","","","html-keyboard-response","103","433375","0.0-103.0","EC6BBA2BFAA1418F8458AF0E36C3D260","019cf0b6-94e5-72e5-bef5-50263df31545","019cf037-5203-781a-b900-108ccb1cab86","","null","
                <div class=""stimulus-container"">
                    <img src=""images/causal_sequence/saving_a_cat_causal/saving_a_cat_causal_2.png"" class=""exp-image"">
                    <div class=""question-area""></div> 
                </div>","null","","","","","","","","",""
"","","","","","html-button-response","104","434946","0.0-104.0","EC6BBA2BFAA1418F8458AF0E36C3D260","019cf0b6-94e5-72e5-bef5-50263df31545","019cf037-5203-781a-b900-108ccb1cab86","","1567","
                <div class=""stimulus-container"">
                    <img src=""images/causal_sequence/saving_a_cat_causal/saving_a_cat_causal_2.png"" class=""exp-image"">
                    <div class=""question-area"">
                        <p style=""font-size: 20px; font-weight: bold; margin: 0;"">Is there a person in this image?</p>
                    </div>
                </div>","1","main_experiment_trial","2","saving_a_cat_causal","causal_sequence","","","","",""
"","","","","","html-keyboard-response","105","439949","0.0-105.0","EC6BBA2BFAA1418F8458AF0E36C3D260","019cf0b6-94e5-72e5-bef5-50263df31545","019cf037-5203-781a-b900-108ccb1cab86","","null","
                <div class=""stimulus-container"">
                    <img src=""images/causal_sequence/saving_a_cat_causal/saving_a_cat_causal_3.png"" class=""exp-image"">
                    <div class=""question-area""></div> 
                </div>","null","","","","","","","","",""
"","","","","","html-button-response","106","440931","0.0-106.0","EC6BBA2BFAA1418F8458AF0E36C3D260","019cf0b6-94e5-72e5-bef5-50263df31545","019cf037-5203-781a-b900-108ccb1cab86","","979","
                <div class=""stimulus-container"">
                    <img src=""images/causal_sequence/saving_a_cat_causal/saving_a_cat_causal_3.png"" class=""exp-image"">
                    <div class=""question-area"">
                        <p style=""font-size: 20px; font-weight: bold; margin: 0;"">Is there a person in this image?</p>
                    </div>
                </div>","1","main_experiment_trial","3","saving_a_cat_causal","causal_sequence","","","","",""
"","","","","","html-keyboard-response","107","445934","0.0-107.0","EC6BBA2BFAA1418F8458AF0E36C3D260","019cf0b6-94e5-72e5-bef5-50263df31545","019cf037-5203-781a-b900-108ccb1cab86","","null","
                <div class=""stimulus-container"">
                    <img src=""images/causal_sequence/saving_a_cat_causal/saving_a_cat_causal_4.png"" class=""exp-image"">
                    <div class=""question-area""></div> 
                </div>","null","","","","","","","","",""
"","","","","","html-button-response","108","446787","0.0-108.0","EC6BBA2BFAA1418F8458AF0E36C3D260","019cf0b6-94e5-72e5-bef5-50263df31545","019cf037-5203-781a-b900-108ccb1cab86","","850","
                <div class=""stimulus-container"">
                    <img src=""images/causal_sequence/saving_a_cat_causal/saving_a_cat_causal_4.png"" class=""exp-image"">
                    <div class=""question-area"">
                        <p style=""font-size: 20px; font-weight: bold; margin: 0;"">Is there a person in this image?</p>
                    </div>
                </div>","0","main_experiment_trial","4","saving_a_cat_causal","causal_sequence","","","","",""
"","","","","","html-keyboard-response","109","451791","0.0-109.0","EC6BBA2BFAA1418F8458AF0E36C3D260","019cf0b6-94e5-72e5-bef5-50263df31545","019cf037-5203-781a-b900-108ccb1cab86","","null","
                <div class=""stimulus-container"">
                    <img src=""images/causal_sequence/saving_a_cat_causal/saving_a_cat_causal_5.png"" class=""exp-image"">
                    <div class=""question-area""></div> 
                </div>","null","","","","","","","","",""
"","","","","","html-button-response","110","453075","0.0-110.0","EC6BBA2BFAA1418F8458AF0E36C3D260","019cf0b6-94e5-72e5-bef5-50263df31545","019cf037-5203-781a-b900-108ccb1cab86","","1281","
                <div class=""stimulus-container"">
                    <img src=""images/causal_sequence/saving_a_cat_causal/saving_a_cat_causal_5.png"" class=""exp-image"">
                    <div class=""question-area"">
                        <p style=""font-size: 20px; font-weight: bold; margin: 0;"">Is there a person in this image?</p>
                    </div>
                </div>","0","main_experiment_trial","5","saving_a_cat_causal","causal_sequence","","","","",""
"","","","","","html-keyboard-response","111","458079","0.0-111.0","EC6BBA2BFAA1418F8458AF0E36C3D260","019cf0b6-94e5-72e5-bef5-50263df31545","019cf037-5203-781a-b900-108ccb1cab86","","null","
                <div class=""stimulus-container"">
                    <img src=""images/causal_sequence/saving_a_cat_causal/saving_a_cat_causal_6.png"" class=""exp-image"">
                    <div class=""question-area""></div> 
                </div>","null","","","","","","","","",""
"","","","","","html-button-response","112","458643","0.0-112.0","EC6BBA2BFAA1418F8458AF0E36C3D260","019cf0b6-94e5-72e5-bef5-50263df31545","019cf037-5203-781a-b900-108ccb1cab86","","561","
                <div class=""stimulus-container"">
                    <img src=""images/causal_sequence/saving_a_cat_causal/saving_a_cat_causal_6.png"" class=""exp-image"">
                    <div class=""question-area"">
                        <p style=""font-size: 20px; font-weight: bold; margin: 0;"">Is there a person in this image?</p>
                    </div>
                </div>","0","main_experiment_trial","6","saving_a_cat_causal","causal_sequence","","","","",""
"","","","","","html-keyboard-response","113","463647","0.0-113.0","EC6BBA2BFAA1418F8458AF0E36C3D260","019cf0b6-94e5-72e5-bef5-50263df31545","019cf037-5203-781a-b900-108ccb1cab86","","null","
                <div class=""stimulus-container"">
                    <img src=""images/causal_sequence/saving_a_cat_causal/saving_a_cat_causal_7.png"" class=""exp-image"">
                    <div class=""question-area""></div> 
                </div>","null","","","","","","","","",""
"","","","","","html-button-response","114","464195","0.0-114.0","EC6BBA2BFAA1418F8458AF0E36C3D260","019cf0b6-94e5-72e5-bef5-50263df31545","019cf037-5203-781a-b900-108ccb1cab86","","545","
                <div class=""stimulus-container"">
                    <img src=""images/causal_sequence/saving_a_cat_causal/saving_a_cat_causal_7.png"" class=""exp-image"">
                    <div class=""question-area"">
                        <p style=""font-size: 20px; font-weight: bold; margin: 0;"">Is there a person in this image?</p>
                    </div>
                </div>","0","main_experiment_trial","7","saving_a_cat_causal","causal_sequence","","","","",""
"","","","","","html-keyboard-response","115","469199","0.0-115.0","EC6BBA2BFAA1418F8458AF0E36C3D260","019cf0b6-94e5-72e5-bef5-50263df31545","019cf037-5203-781a-b900-108ccb1cab86","","null","
                <div class=""stimulus-container"">
                    <img src=""images/causal_sequence/saving_a_cat_causal/saving_a_cat_causal_8.png"" class=""exp-image"">
                    <div class=""question-area""></div> 
                </div>","null","","","","","","","","",""
"","","","","","html-button-response","116","469890","0.0-116.0","EC6BBA2BFAA1418F8458AF0E36C3D260","019cf0b6-94e5-72e5-bef5-50263df31545","019cf037-5203-781a-b900-108ccb1cab86","","688","
                <div class=""stimulus-container"">
                    <img src=""images/causal_sequence/saving_a_cat_causal/saving_a_cat_causal_8.png"" class=""exp-image"">
                    <div class=""question-area"">
                        <p style=""font-size: 20px; font-weight: bold; margin: 0;"">Is there a person in this image?</p>
                    </div>
                </div>","0","main_experiment_trial","8","saving_a_cat_causal","causal_sequence","","","","",""
"","","","","","html-keyboard-response","117","474893","0.0-117.0","EC6BBA2BFAA1418F8458AF0E36C3D260","019cf0b6-94e5-72e5-bef5-50263df31545","019cf037-5203-781a-b900-108ccb1cab86","","null","
                <div class=""stimulus-container"">
                    <img src=""images/causal_sequence/saving_a_cat_causal/saving_a_cat_causal_9.png"" class=""exp-image"">
                    <div class=""question-area""></div> 
                </div>","null","","","","","","","","",""
"","","","","","html-button-response","118","475610","0.0-118.0","EC6BBA2BFAA1418F8458AF0E36C3D260","019cf0b6-94e5-72e5-bef5-50263df31545","019cf037-5203-781a-b900-108ccb1cab86","","714","
                <div class=""stimulus-container"">
                    <img src=""images/causal_sequence/saving_a_cat_causal/saving_a_cat_causal_9.png"" class=""exp-image"">
                    <div class=""question-area"">
                        <p style=""font-size: 20px; font-weight: bold; margin: 0;"">Is there a person in this image?</p>
                    </div>
                </div>","0","main_experiment_trial","9","saving_a_cat_causal","causal_sequence","","","","",""
"","","","","","html-keyboard-response","119","480613","0.0-119.0","EC6BBA2BFAA1418F8458AF0E36C3D260","019cf0b6-94e5-72e5-bef5-50263df31545","019cf037-5203-781a-b900-108ccb1cab86","","null","
                <div class=""stimulus-container"">
                    <img src=""images/causal_sequence/saving_a_cat_causal/saving_a_cat_causal_ten.png"" class=""exp-image"">
                    <div class=""question-area""></div> 
                </div>","null","","","","","","","","",""
"","","","","","html-button-response","120","481052","0.0-120.0","EC6BBA2BFAA1418F8458AF0E36C3D260","019cf0b6-94e5-72e5-bef5-50263df31545","019cf037-5203-781a-b900-108ccb1cab86","","436","
                <div class=""stimulus-container"">
                    <img src=""images/causal_sequence/saving_a_cat_causal/saving_a_cat_causal_ten.png"" class=""exp-image"">
                    <div class=""question-area"">
                        <p style=""font-size: 20px; font-weight: bold; margin: 0;"">Is there a person in this image?</p>
                    </div>
                </div>","0","main_experiment_trial","ten","saving_a_cat_causal","causal_sequence","","","","",""
"","","","","","html-keyboard-response","121","482055","0.0-121.0","EC6BBA2BFAA1418F8458AF0E36C3D260","019cf0b6-94e5-72e5-bef5-50263df31545","019cf037-5203-781a-b900-108ccb1cab86","","null","<div style=""background-color: white; width: 100vw; height: 100vh;""></div>","null","","","","","","","","",""
"","","","","","html-keyboard-response","122","487057","0.0-122.0","EC6BBA2BFAA1418F8458AF0E36C3D260","019cf0b6-94e5-72e5-bef5-50263df31545","019cf037-5203-781a-b900-108ccb1cab86","","null","
                <div class=""stimulus-container"">
                    <img src=""images/causal_sequence/package_causal/package_causal_1.png"" class=""exp-image"">
                    <div class=""question-area""></div> 
                </div>","null","","","","","","","","",""
"","","","","","html-button-response","123","487483","0.0-123.0","EC6BBA2BFAA1418F8458AF0E36C3D260","019cf0b6-94e5-72e5-bef5-50263df31545","019cf037-5203-781a-b900-108ccb1cab86","","423","
                <div class=""stimulus-container"">
                    <img src=""images/causal_sequence/package_causal/package_causal_1.png"" class=""exp-image"">
                    <div class=""question-area"">
                        <p style=""font-size: 20px; font-weight: bold; margin: 0;"">Is there a person in this image?</p>
                    </div>
                </div>","0","main_experiment_trial","1","package_causal","causal_sequence","","","","",""
"","","","","","html-keyboard-response","124","492487","0.0-124.0","EC6BBA2BFAA1418F8458AF0E36C3D260","019cf0b6-94e5-72e5-bef5-50263df31545","019cf037-5203-781a-b900-108ccb1cab86","","null","
                <div class=""stimulus-container"">
                    <img src=""images/causal_sequence/package_causal/package_causal_2.png"" class=""exp-image"">
                    <div class=""question-area""></div> 
                </div>","null","","","","","","","","",""
"","","","","","html-button-response","125","493051","0.0-125.0","EC6BBA2BFAA1418F8458AF0E36C3D260","019cf0b6-94e5-72e5-bef5-50263df31545","019cf037-5203-781a-b900-108ccb1cab86","","561","
                <div class=""stimulus-container"">
                    <img src=""images/causal_sequence/package_causal/package_causal_2.png"" class=""exp-image"">
                    <div class=""question-area"">
                        <p style=""font-size: 20px; font-weight: bold; margin: 0;"">Is there a person in this image?</p>
                    </div>
                </div>","0","main_experiment_trial","2","package_causal","causal_sequence","","","","",""
"","","","","","html-keyboard-response","126","498055","0.0-126.0","EC6BBA2BFAA1418F8458AF0E36C3D260","019cf0b6-94e5-72e5-bef5-50263df31545","019cf037-5203-781a-b900-108ccb1cab86","","null","
                <div class=""stimulus-container"">
                    <img src=""images/causal_sequence/package_causal/package_causal_3.png"" class=""exp-image"">
                    <div class=""question-area""></div> 
                </div>","null","","","","","","","","",""
"","","","","","html-button-response","127","498667","0.0-127.0","EC6BBA2BFAA1418F8458AF0E36C3D260","019cf0b6-94e5-72e5-bef5-50263df31545","019cf037-5203-781a-b900-108ccb1cab86","","609","
                <div class=""stimulus-container"">
                    <img src=""images/causal_sequence/package_causal/package_causal_3.png"" class=""exp-image"">
                    <div class=""question-area"">
                        <p style=""font-size: 20px; font-weight: bold; margin: 0;"">Is there a person in this image?</p>
                    </div>
                </div>","0","main_experiment_trial","3","package_causal","causal_sequence","","","","",""
"","","","","","html-keyboard-response","128","503670","0.0-128.0","EC6BBA2BFAA1418F8458AF0E36C3D260","019cf0b6-94e5-72e5-bef5-50263df31545","019cf037-5203-781a-b900-108ccb1cab86","","null","
                <div class=""stimulus-container"">
                    <img src=""images/causal_sequence/package_causal/package_causal_4.png"" class=""exp-image"">
                    <div class=""question-area""></div> 
                </div>","null","","","","","","","","",""
"","","","","","html-button-response","129","504403","0.0-129.0","EC6BBA2BFAA1418F8458AF0E36C3D260","019cf0b6-94e5-72e5-bef5-50263df31545","019cf037-5203-781a-b900-108ccb1cab86","","730","
                <div class=""stimulus-container"">
                    <img src=""images/causal_sequence/package_causal/package_causal_4.png"" class=""exp-image"">
                    <div class=""question-area"">
                        <p style=""font-size: 20px; font-weight: bold; margin: 0;"">Is there a person in this image?</p>
                    </div>
                </div>","1","main_experiment_trial","4","package_causal","causal_sequence","","","","",""
"","","","","","html-keyboard-response","130","509407","0.0-130.0","EC6BBA2BFAA1418F8458AF0E36C3D260","019cf0b6-94e5-72e5-bef5-50263df31545","019cf037-5203-781a-b900-108ccb1cab86","","null","
                <div class=""stimulus-container"">
                    <img src=""images/causal_sequence/package_causal/package_causal_5.png"" class=""exp-image"">
                    <div class=""question-area""></div> 
                </div>","null","","","","","","","","",""
"","","","","","html-button-response","131","510108","0.0-131.0","EC6BBA2BFAA1418F8458AF0E36C3D260","019cf0b6-94e5-72e5-bef5-50263df31545","019cf037-5203-781a-b900-108ccb1cab86","","698","
                <div class=""stimulus-container"">
                    <img src=""images/causal_sequence/package_causal/package_causal_5.png"" class=""exp-image"">
                    <div class=""question-area"">
                        <p style=""font-size: 20px; font-weight: bold; margin: 0;"">Is there a person in this image?</p>
                    </div>
                </div>","0","main_experiment_trial","5","package_causal","causal_sequence","","","","",""
"","","","","","html-keyboard-response","132","515112","0.0-132.0","EC6BBA2BFAA1418F8458AF0E36C3D260","019cf0b6-94e5-72e5-bef5-50263df31545","019cf037-5203-781a-b900-108ccb1cab86","","null","
                <div class=""stimulus-container"">
                    <img src=""images/causal_sequence/package_causal/package_causal_6.png"" class=""exp-image"">
                    <div class=""question-area""></div> 
                </div>","null","","","","","","","","",""
"","","","","","html-button-response","133","515777","0.0-133.0","EC6BBA2BFAA1418F8458AF0E36C3D260","019cf0b6-94e5-72e5-bef5-50263df31545","019cf037-5203-781a-b900-108ccb1cab86","","663","
                <div class=""stimulus-container"">
                    <img src=""images/causal_sequence/package_causal/package_causal_6.png"" class=""exp-image"">
                    <div class=""question-area"">
                        <p style=""font-size: 20px; font-weight: bold; margin: 0;"">Is there a person in this image?</p>
                    </div>
                </div>","0","main_experiment_trial","6","package_causal","causal_sequence","","","","",""
"","","","","","html-keyboard-response","134","520780","0.0-134.0","EC6BBA2BFAA1418F8458AF0E36C3D260","019cf0b6-94e5-72e5-bef5-50263df31545","019cf037-5203-781a-b900-108ccb1cab86","","null","
                <div class=""stimulus-container"">
                    <img src=""images/causal_sequence/package_causal/package_causal_7.png"" class=""exp-image"">
                    <div class=""question-area""></div> 
                </div>","null","","","","","","","","",""
"","","","","","html-button-response","135","521604","0.0-135.0","EC6BBA2BFAA1418F8458AF0E36C3D260","019cf0b6-94e5-72e5-bef5-50263df31545","019cf037-5203-781a-b900-108ccb1cab86","","820","
                <div class=""stimulus-container"">
                    <img src=""images/causal_sequence/package_causal/package_causal_7.png"" class=""exp-image"">
                    <div class=""question-area"">
                        <p style=""font-size: 20px; font-weight: bold; margin: 0;"">Is there a person in this image?</p>
                    </div>
                </div>","0","main_experiment_trial","7","package_causal","causal_sequence","","","","",""
"","","","","","html-keyboard-response","136","526606","0.0-136.0","EC6BBA2BFAA1418F8458AF0E36C3D260","019cf0b6-94e5-72e5-bef5-50263df31545","019cf037-5203-781a-b900-108ccb1cab86","","null","
                <div class=""stimulus-container"">
                    <img src=""images/causal_sequence/package_causal/package_causal_8.png"" class=""exp-image"">
                    <div class=""question-area""></div> 
                </div>","null","","","","","","","","",""
"","","","","","html-button-response","137","527532","0.0-137.0","EC6BBA2BFAA1418F8458AF0E36C3D260","019cf0b6-94e5-72e5-bef5-50263df31545","019cf037-5203-781a-b900-108ccb1cab86","","922","
                <div class=""stimulus-container"">
                    <img src=""images/causal_sequence/package_causal/package_causal_8.png"" class=""exp-image"">
                    <div class=""question-area"">
                        <p style=""font-size: 20px; font-weight: bold; margin: 0;"">Is there a person in this image?</p>
                    </div>
                </div>","0","main_experiment_trial","8","package_causal","causal_sequence","","","","",""
"","","","","","html-keyboard-response","138","532535","0.0-138.0","EC6BBA2BFAA1418F8458AF0E36C3D260","019cf0b6-94e5-72e5-bef5-50263df31545","019cf037-5203-781a-b900-108ccb1cab86","","null","
                <div class=""stimulus-container"">
                    <img src=""images/causal_sequence/package_causal/package_causal_9.png"" class=""exp-image"">
                    <div class=""question-area""></div> 
                </div>","null","","","","","","","","",""
"","","","","","html-button-response","139","533251","0.0-139.0","EC6BBA2BFAA1418F8458AF0E36C3D260","019cf0b6-94e5-72e5-bef5-50263df31545","019cf037-5203-781a-b900-108ccb1cab86","","713","
                <div class=""stimulus-container"">
                    <img src=""images/causal_sequence/package_causal/package_causal_9.png"" class=""exp-image"">
                    <div class=""question-area"">
                        <p style=""font-size: 20px; font-weight: bold; margin: 0;"">Is there a person in this image?</p>
                    </div>
                </div>","0","main_experiment_trial","9","package_causal","causal_sequence","","","","",""
"","","","","","html-keyboard-response","140","538255","0.0-140.0","EC6BBA2BFAA1418F8458AF0E36C3D260","019cf0b6-94e5-72e5-bef5-50263df31545","019cf037-5203-781a-b900-108ccb1cab86","","null","
                <div class=""stimulus-container"">
                    <img src=""images/causal_sequence/package_causal/package_causal_ten.png"" class=""exp-image"">
                    <div class=""question-area""></div> 
                </div>","null","","","","","","","","",""
"","","","","","html-button-response","141","538779","0.0-141.0","EC6BBA2BFAA1418F8458AF0E36C3D260","019cf0b6-94e5-72e5-bef5-50263df31545","019cf037-5203-781a-b900-108ccb1cab86","","521","
                <div class=""stimulus-container"">
                    <img src=""images/causal_sequence/package_causal/package_causal_ten.png"" class=""exp-image"">
                    <div class=""question-area"">
                        <p style=""font-size: 20px; font-weight: bold; margin: 0;"">Is there a person in this image?</p>
                    </div>
                </div>","0","main_experiment_trial","ten","package_causal","causal_sequence","","","","",""
"","","","","","html-keyboard-response","142","539782","0.0-142.0","EC6BBA2BFAA1418F8458AF0E36C3D260","019cf0b6-94e5-72e5-bef5-50263df31545","019cf037-5203-781a-b900-108ccb1cab86","","null","<div style=""background-color: white; width: 100vw; height: 100vh;""></div>","null","","","","","","","","",""
"","","","","","html-keyboard-response","143","544784","0.0-143.0","EC6BBA2BFAA1418F8458AF0E36C3D260","019cf0b6-94e5-72e5-bef5-50263df31545","019cf037-5203-781a-b900-108ccb1cab86","","null","
                <div class=""stimulus-container"">
                    <img src=""images/causal_sequence/the_performance_causal/the_performance_causal_1.png"" class=""exp-image"">
                    <div class=""question-area""></div> 
                </div>","null","","","","","","","","",""
"","","","","","html-button-response","144","545276","0.0-144.0","EC6BBA2BFAA1418F8458AF0E36C3D260","019cf0b6-94e5-72e5-bef5-50263df31545","019cf037-5203-781a-b900-108ccb1cab86","","488","
                <div class=""stimulus-container"">
                    <img src=""images/causal_sequence/the_performance_causal/the_performance_causal_1.png"" class=""exp-image"">
                    <div class=""question-area"">
                        <p style=""font-size: 20px; font-weight: bold; margin: 0;"">Is there a person in this image?</p>
                    </div>
                </div>","0","main_experiment_trial","1","the_performance_causal","causal_sequence","","","","",""
"","","","","","html-keyboard-response","145","550279","0.0-145.0","EC6BBA2BFAA1418F8458AF0E36C3D260","019cf0b6-94e5-72e5-bef5-50263df31545","019cf037-5203-781a-b900-108ccb1cab86","","null","
                <div class=""stimulus-container"">
                    <img src=""images/causal_sequence/the_performance_causal/the_performance_causal_2.png"" class=""exp-image"">
                    <div class=""question-area""></div> 
                </div>","null","","","","","","","","",""
"","","","","","html-button-response","146","551251","0.0-146.0","EC6BBA2BFAA1418F8458AF0E36C3D260","019cf0b6-94e5-72e5-bef5-50263df31545","019cf037-5203-781a-b900-108ccb1cab86","","968","
                <div class=""stimulus-container"">
                    <img src=""images/causal_sequence/the_performance_causal/the_performance_causal_2.png"" class=""exp-image"">
                    <div class=""question-area"">
                        <p style=""font-size: 20px; font-weight: bold; margin: 0;"">Is there a person in this image?</p>
                    </div>
                </div>","0","main_experiment_trial","2","the_performance_causal","causal_sequence","","","","",""
"","","","","","html-keyboard-response","147","556255","0.0-147.0","EC6BBA2BFAA1418F8458AF0E36C3D260","019cf0b6-94e5-72e5-bef5-50263df31545","019cf037-5203-781a-b900-108ccb1cab86","","null","
                <div class=""stimulus-container"">
                    <img src=""images/causal_sequence/the_performance_causal/the_performance_causal_3.png"" class=""exp-image"">
                    <div class=""question-area""></div> 
                </div>","null","","","","","","","","",""
"","","","","","html-button-response","148","556915","0.0-148.0","EC6BBA2BFAA1418F8458AF0E36C3D260","019cf0b6-94e5-72e5-bef5-50263df31545","019cf037-5203-781a-b900-108ccb1cab86","","656","
                <div class=""stimulus-container"">
                    <img src=""images/causal_sequence/the_performance_causal/the_performance_causal_3.png"" class=""exp-image"">
                    <div class=""question-area"">
                        <p style=""font-size: 20px; font-weight: bold; margin: 0;"">Is there a person in this image?</p>
                    </div>
                </div>","0","main_experiment_trial","3","the_performance_causal","causal_sequence","","","","",""
"","","","","","html-keyboard-response","149","561918","0.0-149.0","EC6BBA2BFAA1418F8458AF0E36C3D260","019cf0b6-94e5-72e5-bef5-50263df31545","019cf037-5203-781a-b900-108ccb1cab86","","null","
                <div class=""stimulus-container"">
                    <img src=""images/causal_sequence/the_performance_causal/the_performance_causal_4.png"" class=""exp-image"">
                    <div class=""question-area""></div> 
                </div>","null","","","","","","","","",""
"","","","","","html-button-response","150","562676","0.0-150.0","EC6BBA2BFAA1418F8458AF0E36C3D260","019cf0b6-94e5-72e5-bef5-50263df31545","019cf037-5203-781a-b900-108ccb1cab86","","755","
                <div class=""stimulus-container"">
                    <img src=""images/causal_sequence/the_performance_causal/the_performance_causal_4.png"" class=""exp-image"">
                    <div class=""question-area"">
                        <p style=""font-size: 20px; font-weight: bold; margin: 0;"">Is there a person in this image?</p>
                    </div>
                </div>","0","main_experiment_trial","4","the_performance_causal","causal_sequence","","","","",""
"","","","","","html-keyboard-response","151","567679","0.0-151.0","EC6BBA2BFAA1418F8458AF0E36C3D260","019cf0b6-94e5-72e5-bef5-50263df31545","019cf037-5203-781a-b900-108ccb1cab86","","null","
                <div class=""stimulus-container"">
                    <img src=""images/causal_sequence/the_performance_causal/the_performance_causal_5.png"" class=""exp-image"">
                    <div class=""question-area""></div> 
                </div>","null","","","","","","","","",""
"","","","","","html-button-response","152","568563","0.0-152.0","EC6BBA2BFAA1418F8458AF0E36C3D260","019cf0b6-94e5-72e5-bef5-50263df31545","019cf037-5203-781a-b900-108ccb1cab86","","880","
                <div class=""stimulus-container"">
                    <img src=""images/causal_sequence/the_performance_causal/the_performance_causal_5.png"" class=""exp-image"">
                    <div class=""question-area"">
                        <p style=""font-size: 20px; font-weight: bold; margin: 0;"">Is there a person in this image?</p>
                    </div>
                </div>","0","main_experiment_trial","5","the_performance_causal","causal_sequence","","","","",""
"","","","","","html-keyboard-response","153","573566","0.0-153.0","EC6BBA2BFAA1418F8458AF0E36C3D260","019cf0b6-94e5-72e5-bef5-50263df31545","019cf037-5203-781a-b900-108ccb1cab86","","null","
                <div class=""stimulus-container"">
                    <img src=""images/causal_sequence/the_performance_causal/the_performance_causal_6.png"" class=""exp-image"">
                    <div class=""question-area""></div> 
                </div>","null","","","","","","","","",""
"","","","","","html-button-response","154","574699","0.0-154.0","EC6BBA2BFAA1418F8458AF0E36C3D260","019cf0b6-94e5-72e5-bef5-50263df31545","019cf037-5203-781a-b900-108ccb1cab86","","1130","
                <div class=""stimulus-container"">
                    <img src=""images/causal_sequence/the_performance_causal/the_performance_causal_6.png"" class=""exp-image"">
                    <div class=""question-area"">
                        <p style=""font-size: 20px; font-weight: bold; margin: 0;"">Is there a person in this image?</p>
                    </div>
                </div>","0","main_experiment_trial","6","the_performance_causal","causal_sequence","","","","",""
"","","","","","html-keyboard-response","155","579702","0.0-155.0","EC6BBA2BFAA1418F8458AF0E36C3D260","019cf0b6-94e5-72e5-bef5-50263df31545","019cf037-5203-781a-b900-108ccb1cab86","","null","
                <div class=""stimulus-container"">
                    <img src=""images/causal_sequence/the_performance_causal/the_performance_causal_7.png"" class=""exp-image"">
                    <div class=""question-area""></div> 
                </div>","null","","","","","","","","",""
"","","","","","html-button-response","156","580402","0.0-156.0","EC6BBA2BFAA1418F8458AF0E36C3D260","019cf0b6-94e5-72e5-bef5-50263df31545","019cf037-5203-781a-b900-108ccb1cab86","","697","
                <div class=""stimulus-container"">
                    <img src=""images/causal_sequence/the_performance_causal/the_performance_causal_7.png"" class=""exp-image"">
                    <div class=""question-area"">
                        <p style=""font-size: 20px; font-weight: bold; margin: 0;"">Is there a person in this image?</p>
                    </div>
                </div>","0","main_experiment_trial","7","the_performance_causal","causal_sequence","","","","",""
"","","","","","html-keyboard-response","157","585405","0.0-157.0","EC6BBA2BFAA1418F8458AF0E36C3D260","019cf0b6-94e5-72e5-bef5-50263df31545","019cf037-5203-781a-b900-108ccb1cab86","","null","
                <div class=""stimulus-container"">
                    <img src=""images/causal_sequence/the_performance_causal/the_performance_causal_8.png"" class=""exp-image"">
                    <div class=""question-area""></div> 
                </div>","null","","","","","","","","",""
"","","","","","html-button-response","158","586338","0.0-158.0","EC6BBA2BFAA1418F8458AF0E36C3D260","019cf0b6-94e5-72e5-bef5-50263df31545","019cf037-5203-781a-b900-108ccb1cab86","","930","
                <div class=""stimulus-container"">
                    <img src=""images/causal_sequence/the_performance_causal/the_performance_causal_8.png"" class=""exp-image"">
                    <div class=""question-area"">
                        <p style=""font-size: 20px; font-weight: bold; margin: 0;"">Is there a person in this image?</p>
                    </div>
                </div>","0","main_experiment_trial","8","the_performance_causal","causal_sequence","","","","",""
"","","","","","html-keyboard-response","159","591342","0.0-159.0","EC6BBA2BFAA1418F8458AF0E36C3D260","019cf0b6-94e5-72e5-bef5-50263df31545","019cf037-5203-781a-b900-108ccb1cab86","","null","
                <div class=""stimulus-container"">
                    <img src=""images/causal_sequence/the_performance_causal/the_performance_causal_9.png"" class=""exp-image"">
                    <div class=""question-area""></div> 
                </div>","null","","","","","","","","",""
"","","","","","html-button-response","160","592141","0.0-160.0","EC6BBA2BFAA1418F8458AF0E36C3D260","019cf0b6-94e5-72e5-bef5-50263df31545","019cf037-5203-781a-b900-108ccb1cab86","","797","
                <div class=""stimulus-container"">
                    <img src=""images/causal_sequence/the_performance_causal/the_performance_causal_9.png"" class=""exp-image"">
                    <div class=""question-area"">
                        <p style=""font-size: 20px; font-weight: bold; margin: 0;"">Is there a person in this image?</p>
                    </div>
                </div>","0","main_experiment_trial","9","the_performance_causal","causal_sequence","","","","",""
"","","","","","html-keyboard-response","161","597145","0.0-161.0","EC6BBA2BFAA1418F8458AF0E36C3D260","019cf0b6-94e5-72e5-bef5-50263df31545","019cf037-5203-781a-b900-108ccb1cab86","","null","
                <div class=""stimulus-container"">
                    <img src=""images/causal_sequence/the_performance_causal/the_performance_causal_ten.png"" class=""exp-image"">
                    <div class=""question-area""></div> 
                </div>","null","","","","","","","","",""
"","","","","","html-button-response","162","598116","0.0-162.0","EC6BBA2BFAA1418F8458AF0E36C3D260","019cf0b6-94e5-72e5-bef5-50263df31545","019cf037-5203-781a-b900-108ccb1cab86","","967","
                <div class=""stimulus-container"">
                    <img src=""images/causal_sequence/the_performance_causal/the_performance_causal_ten.png"" class=""exp-image"">
                    <div class=""question-area"">
                        <p style=""font-size: 20px; font-weight: bold; margin: 0;"">Is there a person in this image?</p>
                    </div>
                </div>","0","main_experiment_trial","ten","the_performance_causal","causal_sequence","","","","",""
"","","","","","html-keyboard-response","163","599118","0.0-163.0","EC6BBA2BFAA1418F8458AF0E36C3D260","019cf0b6-94e5-72e5-bef5-50263df31545","019cf037-5203-781a-b900-108ccb1cab86","","null","<div style=""background-color: white; width: 100vw; height: 100vh;""></div>","null","","","","","","","","",""
"","","","","","html-keyboard-response","164","604121","0.0-164.0","EC6BBA2BFAA1418F8458AF0E36C3D260","019cf0b6-94e5-72e5-bef5-50263df31545","019cf037-5203-781a-b900-108ccb1cab86","","null","
                <div class=""stimulus-container"">
                    <img src=""images/schematic_sequence/hotel_scheme/hotel_scheme_1.png"" class=""exp-image"">
                    <div class=""question-area""></div> 
                </div>","null","","","","","","","","",""
"","","","","","html-button-response","165","604699","0.0-165.0","EC6BBA2BFAA1418F8458AF0E36C3D260","019cf0b6-94e5-72e5-bef5-50263df31545","019cf037-5203-781a-b900-108ccb1cab86","","575","
                <div class=""stimulus-container"">
                    <img src=""images/schematic_sequence/hotel_scheme/hotel_scheme_1.png"" class=""exp-image"">
                    <div class=""question-area"">
                        <p style=""font-size: 20px; font-weight: bold; margin: 0;"">Is there a person in this image?</p>
                    </div>
                </div>","1","main_experiment_trial","1","hotel_scheme","schematic_sequence","","","","",""
"","","","","","html-keyboard-response","166","609702","0.0-166.0","EC6BBA2BFAA1418F8458AF0E36C3D260","019cf0b6-94e5-72e5-bef5-50263df31545","019cf037-5203-781a-b900-108ccb1cab86","","null","
                <div class=""stimulus-container"">
                    <img src=""images/schematic_sequence/hotel_scheme/hotel_scheme_2.png"" class=""exp-image"">
                    <div class=""question-area""></div> 
                </div>","null","","","","","","","","",""
"","","","","","html-button-response","167","610331","0.0-167.0","EC6BBA2BFAA1418F8458AF0E36C3D260","019cf0b6-94e5-72e5-bef5-50263df31545","019cf037-5203-781a-b900-108ccb1cab86","","625","
                <div class=""stimulus-container"">
                    <img src=""images/schematic_sequence/hotel_scheme/hotel_scheme_2.png"" class=""exp-image"">
                    <div class=""question-area"">
                        <p style=""font-size: 20px; font-weight: bold; margin: 0;"">Is there a person in this image?</p>
                    </div>
                </div>","0","main_experiment_trial","2","hotel_scheme","schematic_sequence","","","","",""
"","","","","","html-keyboard-response","168","615333","0.0-168.0","EC6BBA2BFAA1418F8458AF0E36C3D260","019cf0b6-94e5-72e5-bef5-50263df31545","019cf037-5203-781a-b900-108ccb1cab86","","null","
                <div class=""stimulus-container"">
                    <img src=""images/schematic_sequence/hotel_scheme/hotel_scheme_3.png"" class=""exp-image"">
                    <div class=""question-area""></div> 
                </div>","null","","","","","","","","",""
"","","","","","html-button-response","169","615795","0.0-169.0","EC6BBA2BFAA1418F8458AF0E36C3D260","019cf0b6-94e5-72e5-bef5-50263df31545","019cf037-5203-781a-b900-108ccb1cab86","","458","
                <div class=""stimulus-container"">
                    <img src=""images/schematic_sequence/hotel_scheme/hotel_scheme_3.png"" class=""exp-image"">
                    <div class=""question-area"">
                        <p style=""font-size: 20px; font-weight: bold; margin: 0;"">Is there a person in this image?</p>
                    </div>
                </div>","0","main_experiment_trial","3","hotel_scheme","schematic_sequence","","","","",""
"","","","","","html-keyboard-response","170","620799","0.0-170.0","EC6BBA2BFAA1418F8458AF0E36C3D260","019cf0b6-94e5-72e5-bef5-50263df31545","019cf037-5203-781a-b900-108ccb1cab86","","null","
                <div class=""stimulus-container"">
                    <img src=""images/schematic_sequence/hotel_scheme/hotel_scheme_4.png"" class=""exp-image"">
                    <div class=""question-area""></div> 
                </div>","null","","","","","","","","",""
"","","","","","html-button-response","171","622579","0.0-171.0","EC6BBA2BFAA1418F8458AF0E36C3D260","019cf0b6-94e5-72e5-bef5-50263df31545","019cf037-5203-781a-b900-108ccb1cab86","","1777","
                <div class=""stimulus-container"">
                    <img src=""images/schematic_sequence/hotel_scheme/hotel_scheme_4.png"" class=""exp-image"">
                    <div class=""question-area"">
                        <p style=""font-size: 20px; font-weight: bold; margin: 0;"">Is there a person in this image?</p>
                    </div>
                </div>","1","main_experiment_trial","4","hotel_scheme","schematic_sequence","","","","",""
"","","","","","html-keyboard-response","172","627582","0.0-172.0","EC6BBA2BFAA1418F8458AF0E36C3D260","019cf0b6-94e5-72e5-bef5-50263df31545","019cf037-5203-781a-b900-108ccb1cab86","","null","
                <div class=""stimulus-container"">
                    <img src=""images/schematic_sequence/hotel_scheme/hotel_scheme_5.png"" class=""exp-image"">
                    <div class=""question-area""></div> 
                </div>","null","","","","","","","","",""
"","","","","","html-button-response","173","628354","0.0-173.0","EC6BBA2BFAA1418F8458AF0E36C3D260","019cf0b6-94e5-72e5-bef5-50263df31545","019cf037-5203-781a-b900-108ccb1cab86","","770","
                <div class=""stimulus-container"">
                    <img src=""images/schematic_sequence/hotel_scheme/hotel_scheme_5.png"" class=""exp-image"">
                    <div class=""question-area"">
                        <p style=""font-size: 20px; font-weight: bold; margin: 0;"">Is there a person in this image?</p>
                    </div>
                </div>","0","main_experiment_trial","5","hotel_scheme","schematic_sequence","","","","",""
"","","","","","html-keyboard-response","174","633357","0.0-174.0","EC6BBA2BFAA1418F8458AF0E36C3D260","019cf0b6-94e5-72e5-bef5-50263df31545","019cf037-5203-781a-b900-108ccb1cab86","","null","
                <div class=""stimulus-container"">
                    <img src=""images/schematic_sequence/hotel_scheme/hotel_scheme_6.png"" class=""exp-image"">
                    <div class=""question-area""></div> 
                </div>","null","","","","","","","","",""
"","","","","","html-button-response","175","633779","0.0-175.0","EC6BBA2BFAA1418F8458AF0E36C3D260","019cf0b6-94e5-72e5-bef5-50263df31545","019cf037-5203-781a-b900-108ccb1cab86","","419","
                <div class=""stimulus-container"">
                    <img src=""images/schematic_sequence/hotel_scheme/hotel_scheme_6.png"" class=""exp-image"">
                    <div class=""question-area"">
                        <p style=""font-size: 20px; font-weight: bold; margin: 0;"">Is there a person in this image?</p>
                    </div>
                </div>","0","main_experiment_trial","6","hotel_scheme","schematic_sequence","","","","",""
"","","","","","html-keyboard-response","176","638783","0.0-176.0","EC6BBA2BFAA1418F8458AF0E36C3D260","019cf0b6-94e5-72e5-bef5-50263df31545","019cf037-5203-781a-b900-108ccb1cab86","","null","
                <div class=""stimulus-container"">
                    <img src=""images/schematic_sequence/hotel_scheme/hotel_scheme_7.png"" class=""exp-image"">
                    <div class=""question-area""></div> 
                </div>","null","","","","","","","","",""
"","","","","","html-button-response","177","639330","0.0-177.0","EC6BBA2BFAA1418F8458AF0E36C3D260","019cf0b6-94e5-72e5-bef5-50263df31545","019cf037-5203-781a-b900-108ccb1cab86","","544","
                <div class=""stimulus-container"">
                    <img src=""images/schematic_sequence/hotel_scheme/hotel_scheme_7.png"" class=""exp-image"">
                    <div class=""question-area"">
                        <p style=""font-size: 20px; font-weight: bold; margin: 0;"">Is there a person in this image?</p>
                    </div>
                </div>","0","main_experiment_trial","7","hotel_scheme","schematic_sequence","","","","",""
"","","","","","html-keyboard-response","178","644334","0.0-178.0","EC6BBA2BFAA1418F8458AF0E36C3D260","019cf0b6-94e5-72e5-bef5-50263df31545","019cf037-5203-781a-b900-108ccb1cab86","","null","
                <div class=""stimulus-container"">
                    <img src=""images/schematic_sequence/hotel_scheme/hotel_scheme_8.png"" class=""exp-image"">
                    <div class=""question-area""></div> 
                </div>","null","","","","","","","","",""
"","","","","","html-button-response","179","645170","0.0-179.0","EC6BBA2BFAA1418F8458AF0E36C3D260","019cf0b6-94e5-72e5-bef5-50263df31545","019cf037-5203-781a-b900-108ccb1cab86","","833","
                <div class=""stimulus-container"">
                    <img src=""images/schematic_sequence/hotel_scheme/hotel_scheme_8.png"" class=""exp-image"">
                    <div class=""question-area"">
                        <p style=""font-size: 20px; font-weight: bold; margin: 0;"">Is there a person in this image?</p>
                    </div>
                </div>","0","main_experiment_trial","8","hotel_scheme","schematic_sequence","","","","",""
"","","","","","html-keyboard-response","180","650173","0.0-180.0","EC6BBA2BFAA1418F8458AF0E36C3D260","019cf0b6-94e5-72e5-bef5-50263df31545","019cf037-5203-781a-b900-108ccb1cab86","","null","
                <div class=""stimulus-container"">
                    <img src=""images/schematic_sequence/hotel_scheme/hotel_scheme_9.png"" class=""exp-image"">
                    <div class=""question-area""></div> 
                </div>","null","","","","","","","","",""
"","","","","","html-button-response","181","650906","0.0-181.0","EC6BBA2BFAA1418F8458AF0E36C3D260","019cf0b6-94e5-72e5-bef5-50263df31545","019cf037-5203-781a-b900-108ccb1cab86","","730","
                <div class=""stimulus-container"">
                    <img src=""images/schematic_sequence/hotel_scheme/hotel_scheme_9.png"" class=""exp-image"">
                    <div class=""question-area"">
                        <p style=""font-size: 20px; font-weight: bold; margin: 0;"">Is there a person in this image?</p>
                    </div>
                </div>","0","main_experiment_trial","9","hotel_scheme","schematic_sequence","","","","",""
"","","","","","html-keyboard-response","182","655908","0.0-182.0","EC6BBA2BFAA1418F8458AF0E36C3D260","019cf0b6-94e5-72e5-bef5-50263df31545","019cf037-5203-781a-b900-108ccb1cab86","","null","
                <div class=""stimulus-container"">
                    <img src=""images/schematic_sequence/hotel_scheme/hotel_scheme_ten.png"" class=""exp-image"">
                    <div class=""question-area""></div> 
                </div>","null","","","","","","","","",""
"","","","","","html-button-response","183","656603","0.0-183.0","EC6BBA2BFAA1418F8458AF0E36C3D260","019cf0b6-94e5-72e5-bef5-50263df31545","019cf037-5203-781a-b900-108ccb1cab86","","691","
