"success","timeout","failed_images","failed_audio","failed_video","trial_type","trial_index","time_elapsed","internal_node_id","subject_id","study_id","session_id","view_history","rt","stimulus","response","task","image_index","folder","sequence_type","valuable_image_index","reward_type","chosen_image_index","target_X","correct_choice"
"true","false","[]","[]","[]","preload","0","1898","0.0-0.0","37D2277BFA854B588336510E8A720AC1","019cf05f-1bdb-70e5-b9fc-f23dd7efb677","019ceff9-9f67-7034-9722-02cda2445e09","","","","","","","","","","","","",""
"","","","","","instructions","1","4273","0.0-1.0","37D2277BFA854B588336510E8A720AC1","019cf05f-1bdb-70e5-b9fc-f23dd7efb677","019ceff9-9f67-7034-9722-02cda2445e09","[{""page_index"":0,""viewing_time"":2373}]","2374","","","","","","","","","","",""
"","","","","","instructions","2","53481","0.0-2.0","37D2277BFA854B588336510E8A720AC1","019cf05f-1bdb-70e5-b9fc-f23dd7efb677","019ceff9-9f67-7034-9722-02cda2445e09","[{""page_index"":0,""viewing_time"":49206}]","49206","","","","","","","","","","",""
"true","","","","","fullscreen","3","56253","0.0-3.0","37D2277BFA854B588336510E8A720AC1","019cf05f-1bdb-70e5-b9fc-f23dd7efb677","019ceff9-9f67-7034-9722-02cda2445e09","","1766","","","","","","","","","","",""
"","","","","","instructions","4","61987","0.0-4.0","37D2277BFA854B588336510E8A720AC1","019cf05f-1bdb-70e5-b9fc-f23dd7efb677","019ceff9-9f67-7034-9722-02cda2445e09","[{""page_index"":0,""viewing_time"":5733}]","5733","","","","","","","","","","",""
"","","","","","instructions","5","71389","0.0-5.0","37D2277BFA854B588336510E8A720AC1","019cf05f-1bdb-70e5-b9fc-f23dd7efb677","019ceff9-9f67-7034-9722-02cda2445e09","[{""page_index"":0,""viewing_time"":9399}]","9400","","","","","","","","","","",""
"","","","","","html-keyboard-response","6","75399","0.0-6.0","37D2277BFA854B588336510E8A720AC1","019cf05f-1bdb-70e5-b9fc-f23dd7efb677","019ceff9-9f67-7034-9722-02cda2445e09","","null","
                <div class=""stimulus-container"">
                    <img src=""images/instructions/movie_1.png"" class=""exp-image"">
                    <div class=""question-area""></div> 
                </div>","null","","","","","","","","",""
"","","","","","html-button-response","7","78409","0.0-7.0","37D2277BFA854B588336510E8A720AC1","019cf05f-1bdb-70e5-b9fc-f23dd7efb677","019ceff9-9f67-7034-9722-02cda2445e09","","null","
                <div class=""stimulus-container"">
                    <img src=""images/instructions/movie_1.png"" class=""exp-image"">
                    <div class=""question-area"">
                        <p style=""font-size: 20px; font-weight: bold; margin: 0;"">Was there a person in this image?</p>
                    </div>
                </div>","null","example_question","1","","","","","","",""
"","","","","","html-keyboard-response","8","82411","0.0-8.0","37D2277BFA854B588336510E8A720AC1","019cf05f-1bdb-70e5-b9fc-f23dd7efb677","019ceff9-9f67-7034-9722-02cda2445e09","","null","
                <div class=""stimulus-container"">
                    <img src=""images/instructions/movie_2.png"" class=""exp-image"">
                    <div class=""question-area""></div> 
                </div>","null","","","","","","","","",""
"","","","","","html-button-response","9","83195","0.0-9.0","37D2277BFA854B588336510E8A720AC1","019cf05f-1bdb-70e5-b9fc-f23dd7efb677","019ceff9-9f67-7034-9722-02cda2445e09","","782","
                <div class=""stimulus-container"">
                    <img src=""images/instructions/movie_2.png"" class=""exp-image"">
                    <div class=""question-area"">
                        <p style=""font-size: 20px; font-weight: bold; margin: 0;"">Was there a person in this image?</p>
                    </div>
                </div>","1","example_question","2","","","","","","",""
"","","","","","html-keyboard-response","10","87211","0.0-10.0","37D2277BFA854B588336510E8A720AC1","019cf05f-1bdb-70e5-b9fc-f23dd7efb677","019ceff9-9f67-7034-9722-02cda2445e09","","null","
                <div class=""stimulus-container"">
                    <img src=""images/instructions/movie_3.png"" class=""exp-image"">
                    <div class=""question-area""></div> 
                </div>","null","","","","","","","","",""
"","","","","","html-button-response","11","88172","0.0-11.0","37D2277BFA854B588336510E8A720AC1","019cf05f-1bdb-70e5-b9fc-f23dd7efb677","019ceff9-9f67-7034-9722-02cda2445e09","","959","
                <div class=""stimulus-container"">
                    <img src=""images/instructions/movie_3.png"" class=""exp-image"">
                    <div class=""question-area"">
                        <p style=""font-size: 20px; font-weight: bold; margin: 0;"">Was there a person in this image?</p>
                    </div>
                </div>","0","example_question","3","","","","","","",""
"","","","","","html-keyboard-response","12","92182","0.0-12.0","37D2277BFA854B588336510E8A720AC1","019cf05f-1bdb-70e5-b9fc-f23dd7efb677","019ceff9-9f67-7034-9722-02cda2445e09","","null","
                <div class=""stimulus-container"">
                    <img src=""images/instructions/movie_4.png"" class=""exp-image"">
                    <div class=""question-area""></div> 
                </div>","null","","","","","","","","",""
"","","","","","html-button-response","13","93006","0.0-13.0","37D2277BFA854B588336510E8A720AC1","019cf05f-1bdb-70e5-b9fc-f23dd7efb677","019ceff9-9f67-7034-9722-02cda2445e09","","822","
                <div class=""stimulus-container"">
                    <img src=""images/instructions/movie_4.png"" class=""exp-image"">
                    <div class=""question-area"">
                        <p style=""font-size: 20px; font-weight: bold; margin: 0;"">Was there a person in this image?</p>
                    </div>
                </div>","0","example_question","4","","","","","","",""
"","","","","","instructions","14","94762","0.0-14.0","37D2277BFA854B588336510E8A720AC1","019cf05f-1bdb-70e5-b9fc-f23dd7efb677","019ceff9-9f67-7034-9722-02cda2445e09","[{""page_index"":0,""viewing_time"":1756}]","1756","","","","","","","","","","",""
"","","","","","instructions","15","100589","0.0-15.0","37D2277BFA854B588336510E8A720AC1","019cf05f-1bdb-70e5-b9fc-f23dd7efb677","019ceff9-9f67-7034-9722-02cda2445e09","[{""page_index"":0,""viewing_time"":5825}]","5825","","","","","","","","","","",""
"","","","","","html-keyboard-response","16","101591","0.0-16.0","37D2277BFA854B588336510E8A720AC1","019cf05f-1bdb-70e5-b9fc-f23dd7efb677","019ceff9-9f67-7034-9722-02cda2445e09","","null","<div style=""background-color: white; width: 100vw; height: 100vh;""></div>","null","","","","","","","","",""
"","","","","","html-keyboard-response","17","106608","0.0-17.0","37D2277BFA854B588336510E8A720AC1","019cf05f-1bdb-70e5-b9fc-f23dd7efb677","019ceff9-9f67-7034-9722-02cda2445e09","","null","
                <div class=""stimulus-container"">
                    <img src=""images/causal_sequence/museum_causal/museum_causal_1.png"" class=""exp-image"">
                    <div class=""question-area""></div> 
                </div>","null","","","","","","","","",""
"","","","","","html-button-response","18","107778","0.0-18.0","37D2277BFA854B588336510E8A720AC1","019cf05f-1bdb-70e5-b9fc-f23dd7efb677","019ceff9-9f67-7034-9722-02cda2445e09","","1168","
                <div class=""stimulus-container"">
                    <img src=""images/causal_sequence/museum_causal/museum_causal_1.png"" class=""exp-image"">
                    <div class=""question-area"">
                        <p style=""font-size: 20px; font-weight: bold; margin: 0;"">Is there a person in this image?</p>
                    </div>
                </div>","0","main_experiment_trial","1","museum_causal","causal_sequence","","","","",""
"","","","","","html-keyboard-response","19","112788","0.0-19.0","37D2277BFA854B588336510E8A720AC1","019cf05f-1bdb-70e5-b9fc-f23dd7efb677","019ceff9-9f67-7034-9722-02cda2445e09","","null","
                <div class=""stimulus-container"">
                    <img src=""images/causal_sequence/museum_causal/museum_causal_2.png"" class=""exp-image"">
                    <div class=""question-area""></div> 
                </div>","null","","","","","","","","",""
"","","","","","html-button-response","20","113594","0.0-20.0","37D2277BFA854B588336510E8A720AC1","019cf05f-1bdb-70e5-b9fc-f23dd7efb677","019ceff9-9f67-7034-9722-02cda2445e09","","804","
                <div class=""stimulus-container"">
                    <img src=""images/causal_sequence/museum_causal/museum_causal_2.png"" class=""exp-image"">
                    <div class=""question-area"">
                        <p style=""font-size: 20px; font-weight: bold; margin: 0;"">Is there a person in this image?</p>
                    </div>
                </div>","0","main_experiment_trial","2","museum_causal","causal_sequence","","","","",""
"","","","","","html-keyboard-response","21","118609","0.0-21.0","37D2277BFA854B588336510E8A720AC1","019cf05f-1bdb-70e5-b9fc-f23dd7efb677","019ceff9-9f67-7034-9722-02cda2445e09","","null","
                <div class=""stimulus-container"">
                    <img src=""images/causal_sequence/museum_causal/museum_causal_3.png"" class=""exp-image"">
                    <div class=""question-area""></div> 
                </div>","null","","","","","","","","",""
"","","","","","html-button-response","22","119607","0.0-22.0","37D2277BFA854B588336510E8A720AC1","019cf05f-1bdb-70e5-b9fc-f23dd7efb677","019ceff9-9f67-7034-9722-02cda2445e09","","997","
                <div class=""stimulus-container"">
                    <img src=""images/causal_sequence/museum_causal/museum_causal_3.png"" class=""exp-image"">
                    <div class=""question-area"">
                        <p style=""font-size: 20px; font-weight: bold; margin: 0;"">Is there a person in this image?</p>
                    </div>
                </div>","0","main_experiment_trial","3","museum_causal","causal_sequence","","","","",""
"","","","","","html-keyboard-response","23","124622","0.0-23.0","37D2277BFA854B588336510E8A720AC1","019cf05f-1bdb-70e5-b9fc-f23dd7efb677","019ceff9-9f67-7034-9722-02cda2445e09","","null","
                <div class=""stimulus-container"">
                    <img src=""images/causal_sequence/museum_causal/museum_causal_4.png"" class=""exp-image"">
                    <div class=""question-area""></div> 
                </div>","null","","","","","","","","",""
"","","","","","html-button-response","24","125837","0.0-24.0","37D2277BFA854B588336510E8A720AC1","019cf05f-1bdb-70e5-b9fc-f23dd7efb677","019ceff9-9f67-7034-9722-02cda2445e09","","1213","
                <div class=""stimulus-container"">
                    <img src=""images/causal_sequence/museum_causal/museum_causal_4.png"" class=""exp-image"">
                    <div class=""question-area"">
                        <p style=""font-size: 20px; font-weight: bold; margin: 0;"">Is there a person in this image?</p>
                    </div>
                </div>","1","main_experiment_trial","4","museum_causal","causal_sequence","","","","",""
"","","","","","html-keyboard-response","25","130841","0.0-25.0","37D2277BFA854B588336510E8A720AC1","019cf05f-1bdb-70e5-b9fc-f23dd7efb677","019ceff9-9f67-7034-9722-02cda2445e09","","null","
                <div class=""stimulus-container"">
                    <img src=""images/causal_sequence/museum_causal/museum_causal_5.png"" class=""exp-image"">
                    <div class=""question-area""></div> 
                </div>","null","","","","","","","","",""
"","","","","","html-button-response","26","131921","0.0-26.0","37D2277BFA854B588336510E8A720AC1","019cf05f-1bdb-70e5-b9fc-f23dd7efb677","019ceff9-9f67-7034-9722-02cda2445e09","","1077","
                <div class=""stimulus-container"">
                    <img src=""images/causal_sequence/museum_causal/museum_causal_5.png"" class=""exp-image"">
                    <div class=""question-area"">
                        <p style=""font-size: 20px; font-weight: bold; margin: 0;"">Is there a person in this image?</p>
                    </div>
                </div>","0","main_experiment_trial","5","museum_causal","causal_sequence","","","","",""
"","","","","","html-keyboard-response","27","136929","0.0-27.0","37D2277BFA854B588336510E8A720AC1","019cf05f-1bdb-70e5-b9fc-f23dd7efb677","019ceff9-9f67-7034-9722-02cda2445e09","","null","
                <div class=""stimulus-container"">
                    <img src=""images/causal_sequence/museum_causal/museum_causal_6.png"" class=""exp-image"">
                    <div class=""question-area""></div> 
                </div>","null","","","","","","","","",""
"","","","","","html-button-response","28","138103","0.0-28.0","37D2277BFA854B588336510E8A720AC1","019cf05f-1bdb-70e5-b9fc-f23dd7efb677","019ceff9-9f67-7034-9722-02cda2445e09","","1172","
                <div class=""stimulus-container"">
                    <img src=""images/causal_sequence/museum_causal/museum_causal_6.png"" class=""exp-image"">
                    <div class=""question-area"">
                        <p style=""font-size: 20px; font-weight: bold; margin: 0;"">Is there a person in this image?</p>
                    </div>
                </div>","0","main_experiment_trial","6","museum_causal","causal_sequence","","","","",""
"","","","","","html-keyboard-response","29","143106","0.0-29.0","37D2277BFA854B588336510E8A720AC1","019cf05f-1bdb-70e5-b9fc-f23dd7efb677","019ceff9-9f67-7034-9722-02cda2445e09","","null","
                <div class=""stimulus-container"">
                    <img src=""images/causal_sequence/museum_causal/museum_causal_7.png"" class=""exp-image"">
                    <div class=""question-area""></div> 
                </div>","null","","","","","","","","",""
"","","","","","html-button-response","30","144111","0.0-30.0","37D2277BFA854B588336510E8A720AC1","019cf05f-1bdb-70e5-b9fc-f23dd7efb677","019ceff9-9f67-7034-9722-02cda2445e09","","1003","
                <div class=""stimulus-container"">
                    <img src=""images/causal_sequence/museum_causal/museum_causal_7.png"" class=""exp-image"">
                    <div class=""question-area"">
                        <p style=""font-size: 20px; font-weight: bold; margin: 0;"">Is there a person in this image?</p>
                    </div>
                </div>","1","main_experiment_trial","7","museum_causal","causal_sequence","","","","",""
"","","","","","html-keyboard-response","31","149121","0.0-31.0","37D2277BFA854B588336510E8A720AC1","019cf05f-1bdb-70e5-b9fc-f23dd7efb677","019ceff9-9f67-7034-9722-02cda2445e09","","null","
                <div class=""stimulus-container"">
                    <img src=""images/causal_sequence/museum_causal/museum_causal_8.png"" class=""exp-image"">
                    <div class=""question-area""></div> 
                </div>","null","","","","","","","","",""
"","","","","","html-button-response","32","150471","0.0-32.0","37D2277BFA854B588336510E8A720AC1","019cf05f-1bdb-70e5-b9fc-f23dd7efb677","019ceff9-9f67-7034-9722-02cda2445e09","","1348","
                <div class=""stimulus-container"">
                    <img src=""images/causal_sequence/museum_causal/museum_causal_8.png"" class=""exp-image"">
                    <div class=""question-area"">
                        <p style=""font-size: 20px; font-weight: bold; margin: 0;"">Is there a person in this image?</p>
                    </div>
                </div>","0","main_experiment_trial","8","museum_causal","causal_sequence","","","","",""
"","","","","","html-keyboard-response","33","155484","0.0-33.0","37D2277BFA854B588336510E8A720AC1","019cf05f-1bdb-70e5-b9fc-f23dd7efb677","019ceff9-9f67-7034-9722-02cda2445e09","","null","
                <div class=""stimulus-container"">
                    <img src=""images/causal_sequence/museum_causal/museum_causal_9.png"" class=""exp-image"">
                    <div class=""question-area""></div> 
                </div>","null","","","","","","","","",""
"","","","","","html-button-response","34","157311","0.0-34.0","37D2277BFA854B588336510E8A720AC1","019cf05f-1bdb-70e5-b9fc-f23dd7efb677","019ceff9-9f67-7034-9722-02cda2445e09","","1825","
                <div class=""stimulus-container"">
                    <img src=""images/causal_sequence/museum_causal/museum_causal_9.png"" class=""exp-image"">
                    <div class=""question-area"">
                        <p style=""font-size: 20px; font-weight: bold; margin: 0;"">Is there a person in this image?</p>
                    </div>
                </div>","1","main_experiment_trial","9","museum_causal","causal_sequence","","","","",""
"","","","","","html-keyboard-response","35","162326","0.0-35.0","37D2277BFA854B588336510E8A720AC1","019cf05f-1bdb-70e5-b9fc-f23dd7efb677","019ceff9-9f67-7034-9722-02cda2445e09","","null","
                <div class=""stimulus-container"">
                    <img src=""images/causal_sequence/museum_causal/museum_causal_ten.png"" class=""exp-image"">
                    <div class=""question-area""></div> 
                </div>","null","","","","","","","","",""
"","","","","","html-button-response","36","163605","0.0-36.0","37D2277BFA854B588336510E8A720AC1","019cf05f-1bdb-70e5-b9fc-f23dd7efb677","019ceff9-9f67-7034-9722-02cda2445e09","","1278","
                <div class=""stimulus-container"">
                    <img src=""images/causal_sequence/museum_causal/museum_causal_ten.png"" class=""exp-image"">
                    <div class=""question-area"">
                        <p style=""font-size: 20px; font-weight: bold; margin: 0;"">Is there a person in this image?</p>
                    </div>
                </div>","0","main_experiment_trial","ten","museum_causal","causal_sequence","","","","",""
"","","","","","html-keyboard-response","37","164609","0.0-37.0","37D2277BFA854B588336510E8A720AC1","019cf05f-1bdb-70e5-b9fc-f23dd7efb677","019ceff9-9f67-7034-9722-02cda2445e09","","null","<div style=""background-color: white; width: 100vw; height: 100vh;""></div>","null","","","","","","","","",""
"","","","","","html-keyboard-response","38","169623","0.0-38.0","37D2277BFA854B588336510E8A720AC1","019cf05f-1bdb-70e5-b9fc-f23dd7efb677","019ceff9-9f67-7034-9722-02cda2445e09","","null","
                <div class=""stimulus-container"">
                    <img src=""images/causal_sequence/dog_causal/dog_causal_1.png"" class=""exp-image"">
                    <div class=""question-area""></div> 
                </div>","null","","","","","","","","",""
"","","","","","html-button-response","39","170345","0.0-39.0","37D2277BFA854B588336510E8A720AC1","019cf05f-1bdb-70e5-b9fc-f23dd7efb677","019ceff9-9f67-7034-9722-02cda2445e09","","721","
                <div class=""stimulus-container"">
                    <img src=""images/causal_sequence/dog_causal/dog_causal_1.png"" class=""exp-image"">
                    <div class=""question-area"">
                        <p style=""font-size: 20px; font-weight: bold; margin: 0;"">Is there a person in this image?</p>
                    </div>
                </div>","0","main_experiment_trial","1","dog_causal","causal_sequence","","","","",""
"","","","","","html-keyboard-response","40","175354","0.0-40.0","37D2277BFA854B588336510E8A720AC1","019cf05f-1bdb-70e5-b9fc-f23dd7efb677","019ceff9-9f67-7034-9722-02cda2445e09","","null","
                <div class=""stimulus-container"">
                    <img src=""images/causal_sequence/dog_causal/dog_causal_2.png"" class=""exp-image"">
                    <div class=""question-area""></div> 
                </div>","null","","","","","","","","",""
"","","","","","html-button-response","41","176975","0.0-41.0","37D2277BFA854B588336510E8A720AC1","019cf05f-1bdb-70e5-b9fc-f23dd7efb677","019ceff9-9f67-7034-9722-02cda2445e09","","1620","
                <div class=""stimulus-container"">
                    <img src=""images/causal_sequence/dog_causal/dog_causal_2.png"" class=""exp-image"">
                    <div class=""question-area"">
                        <p style=""font-size: 20px; font-weight: bold; margin: 0;"">Is there a person in this image?</p>
                    </div>
                </div>","0","main_experiment_trial","2","dog_causal","causal_sequence","","","","",""
"","","","","","html-keyboard-response","42","181986","0.0-42.0","37D2277BFA854B588336510E8A720AC1","019cf05f-1bdb-70e5-b9fc-f23dd7efb677","019ceff9-9f67-7034-9722-02cda2445e09","","null","
                <div class=""stimulus-container"">
                    <img src=""images/causal_sequence/dog_causal/dog_causal_3.png"" class=""exp-image"">
                    <div class=""question-area""></div> 
                </div>","null","","","","","","","","",""
"","","","","","html-button-response","43","182942","0.0-43.0","37D2277BFA854B588336510E8A720AC1","019cf05f-1bdb-70e5-b9fc-f23dd7efb677","019ceff9-9f67-7034-9722-02cda2445e09","","955","
                <div class=""stimulus-container"">
                    <img src=""images/causal_sequence/dog_causal/dog_causal_3.png"" class=""exp-image"">
                    <div class=""question-area"">
                        <p style=""font-size: 20px; font-weight: bold; margin: 0;"">Is there a person in this image?</p>
                    </div>
                </div>","0","main_experiment_trial","3","dog_causal","causal_sequence","","","","",""
"","","","","","html-keyboard-response","44","187951","0.0-44.0","37D2277BFA854B588336510E8A720AC1","019cf05f-1bdb-70e5-b9fc-f23dd7efb677","019ceff9-9f67-7034-9722-02cda2445e09","","null","
                <div class=""stimulus-container"">
                    <img src=""images/causal_sequence/dog_causal/dog_causal_4.png"" class=""exp-image"">
                    <div class=""question-area""></div> 
                </div>","null","","","","","","","","",""
"","","","","","html-button-response","45","190961","0.0-45.0","37D2277BFA854B588336510E8A720AC1","019cf05f-1bdb-70e5-b9fc-f23dd7efb677","019ceff9-9f67-7034-9722-02cda2445e09","","null","
                <div class=""stimulus-container"">
                    <img src=""images/causal_sequence/dog_causal/dog_causal_4.png"" class=""exp-image"">
                    <div class=""question-area"">
                        <p style=""font-size: 20px; font-weight: bold; margin: 0;"">Is there a person in this image?</p>
                    </div>
                </div>","null","main_experiment_trial","4","dog_causal","causal_sequence","","","","",""
"","","","","","html-keyboard-response","46","195975","0.0-46.0","37D2277BFA854B588336510E8A720AC1","019cf05f-1bdb-70e5-b9fc-f23dd7efb677","019ceff9-9f67-7034-9722-02cda2445e09","","null","
                <div class=""stimulus-container"">
                    <img src=""images/causal_sequence/dog_causal/dog_causal_5.png"" class=""exp-image"">
                    <div class=""question-area""></div> 
                </div>","null","","","","","","","","",""
"","","","","","html-button-response","47","197148","0.0-47.0","37D2277BFA854B588336510E8A720AC1","019cf05f-1bdb-70e5-b9fc-f23dd7efb677","019ceff9-9f67-7034-9722-02cda2445e09","","1172","
                <div class=""stimulus-container"">
                    <img src=""images/causal_sequence/dog_causal/dog_causal_5.png"" class=""exp-image"">
                    <div class=""question-area"">
                        <p style=""font-size: 20px; font-weight: bold; margin: 0;"">Is there a person in this image?</p>
                    </div>
                </div>","0","main_experiment_trial","5","dog_causal","causal_sequence","","","","",""
"","","","","","html-keyboard-response","48","202164","0.0-48.0","37D2277BFA854B588336510E8A720AC1","019cf05f-1bdb-70e5-b9fc-f23dd7efb677","019ceff9-9f67-7034-9722-02cda2445e09","","null","
                <div class=""stimulus-container"">
                    <img src=""images/causal_sequence/dog_causal/dog_causal_6.png"" class=""exp-image"">
                    <div class=""question-area""></div> 
                </div>","null","","","","","","","","",""
"","","","","","html-button-response","49","204111","0.0-49.0","37D2277BFA854B588336510E8A720AC1","019cf05f-1bdb-70e5-b9fc-f23dd7efb677","019ceff9-9f67-7034-9722-02cda2445e09","","1946","
                <div class=""stimulus-container"">
                    <img src=""images/causal_sequence/dog_causal/dog_causal_6.png"" class=""exp-image"">
                    <div class=""question-area"">
                        <p style=""font-size: 20px; font-weight: bold; margin: 0;"">Is there a person in this image?</p>
                    </div>
                </div>","0","main_experiment_trial","6","dog_causal","causal_sequence","","","","",""
"","","","","","html-keyboard-response","50","209116","0.0-50.0","37D2277BFA854B588336510E8A720AC1","019cf05f-1bdb-70e5-b9fc-f23dd7efb677","019ceff9-9f67-7034-9722-02cda2445e09","","null","
                <div class=""stimulus-container"">
                    <img src=""images/causal_sequence/dog_causal/dog_causal_7.png"" class=""exp-image"">
                    <div class=""question-area""></div> 
                </div>","null","","","","","","","","",""
"","","","","","html-button-response","51","211338","0.0-51.0","37D2277BFA854B588336510E8A720AC1","019cf05f-1bdb-70e5-b9fc-f23dd7efb677","019ceff9-9f67-7034-9722-02cda2445e09","","2220","
                <div class=""stimulus-container"">
                    <img src=""images/causal_sequence/dog_causal/dog_causal_7.png"" class=""exp-image"">
                    <div class=""question-area"">
                        <p style=""font-size: 20px; font-weight: bold; margin: 0;"">Is there a person in this image?</p>
                    </div>
                </div>","0","main_experiment_trial","7","dog_causal","causal_sequence","","","","",""
"","","","","","html-keyboard-response","52","216349","0.0-52.0","37D2277BFA854B588336510E8A720AC1","019cf05f-1bdb-70e5-b9fc-f23dd7efb677","019ceff9-9f67-7034-9722-02cda2445e09","","null","
                <div class=""stimulus-container"">
                    <img src=""images/causal_sequence/dog_causal/dog_causal_8.png"" class=""exp-image"">
                    <div class=""question-area""></div> 
                </div>","null","","","","","","","","",""
"","","","","","html-button-response","53","218426","0.0-53.0","37D2277BFA854B588336510E8A720AC1","019cf05f-1bdb-70e5-b9fc-f23dd7efb677","019ceff9-9f67-7034-9722-02cda2445e09","","2073","
                <div class=""stimulus-container"">
                    <img src=""images/causal_sequence/dog_causal/dog_causal_8.png"" class=""exp-image"">
                    <div class=""question-area"">
                        <p style=""font-size: 20px; font-weight: bold; margin: 0;"">Is there a person in this image?</p>
                    </div>
                </div>","0","main_experiment_trial","8","dog_causal","causal_sequence","","","","",""
"","","","","","html-keyboard-response","54","223435","0.0-54.0","37D2277BFA854B588336510E8A720AC1","019cf05f-1bdb-70e5-b9fc-f23dd7efb677","019ceff9-9f67-7034-9722-02cda2445e09","","null","
                <div class=""stimulus-container"">
                    <img src=""images/causal_sequence/dog_causal/dog_causal_9.png"" class=""exp-image"">
                    <div class=""question-area""></div> 
                </div>","null","","","","","","","","",""
"","","","","","html-button-response","55","225014","0.0-55.0","37D2277BFA854B588336510E8A720AC1","019cf05f-1bdb-70e5-b9fc-f23dd7efb677","019ceff9-9f67-7034-9722-02cda2445e09","","1577","
                <div class=""stimulus-container"">
                    <img src=""images/causal_sequence/dog_causal/dog_causal_9.png"" class=""exp-image"">
                    <div class=""question-area"">
                        <p style=""font-size: 20px; font-weight: bold; margin: 0;"">Is there a person in this image?</p>
                    </div>
                </div>","0","main_experiment_trial","9","dog_causal","causal_sequence","","","","",""
"","","","","","html-keyboard-response","56","230026","0.0-56.0","37D2277BFA854B588336510E8A720AC1","019cf05f-1bdb-70e5-b9fc-f23dd7efb677","019ceff9-9f67-7034-9722-02cda2445e09","","null","
                <div class=""stimulus-container"">
                    <img src=""images/causal_sequence/dog_causal/dog_causal_ten.png"" class=""exp-image"">
                    <div class=""question-area""></div> 
                </div>","null","","","","","","","","",""
"","","","","","html-button-response","57","231256","0.0-57.0","37D2277BFA854B588336510E8A720AC1","019cf05f-1bdb-70e5-b9fc-f23dd7efb677","019ceff9-9f67-7034-9722-02cda2445e09","","1228","
                <div class=""stimulus-container"">
                    <img src=""images/causal_sequence/dog_causal/dog_causal_ten.png"" class=""exp-image"">
                    <div class=""question-area"">
                        <p style=""font-size: 20px; font-weight: bold; margin: 0;"">Is there a person in this image?</p>
                    </div>
                </div>","0","main_experiment_trial","ten","dog_causal","causal_sequence","","","","",""
"","","","","","html-keyboard-response","58","232265","0.0-58.0","37D2277BFA854B588336510E8A720AC1","019cf05f-1bdb-70e5-b9fc-f23dd7efb677","019ceff9-9f67-7034-9722-02cda2445e09","","null","<div style=""background-color: white; width: 100vw; height: 100vh;""></div>","null","","","","","","","","",""
"","","","","","html-keyboard-response","59","237285","0.0-59.0","37D2277BFA854B588336510E8A720AC1","019cf05f-1bdb-70e5-b9fc-f23dd7efb677","019ceff9-9f67-7034-9722-02cda2445e09","","null","
                <div class=""stimulus-container"">
                    <img src=""images/schematic_sequence/dinner_party_scheme/dinner_party_scheme_1.png"" class=""exp-image"">
                    <div class=""question-area""></div> 
                </div>","null","","","","","","","","",""
"","","","","","html-button-response","60","238292","0.0-60.0","37D2277BFA854B588336510E8A720AC1","019cf05f-1bdb-70e5-b9fc-f23dd7efb677","019ceff9-9f67-7034-9722-02cda2445e09","","1006","
                <div class=""stimulus-container"">
                    <img src=""images/schematic_sequence/dinner_party_scheme/dinner_party_scheme_1.png"" class=""exp-image"">
                    <div class=""question-area"">
                        <p style=""font-size: 20px; font-weight: bold; margin: 0;"">Is there a person in this image?</p>
                    </div>
                </div>","0","main_experiment_trial","1","dinner_party_scheme","schematic_sequence","","","","",""
"","","","","","html-keyboard-response","61","243304","0.0-61.0","37D2277BFA854B588336510E8A720AC1","019cf05f-1bdb-70e5-b9fc-f23dd7efb677","019ceff9-9f67-7034-9722-02cda2445e09","","null","
                <div class=""stimulus-container"">
                    <img src=""images/schematic_sequence/dinner_party_scheme/dinner_party_scheme_2.png"" class=""exp-image"">
                    <div class=""question-area""></div> 
                </div>","null","","","","","","","","",""
"","","","","","html-button-response","62","244153","0.0-62.0","37D2277BFA854B588336510E8A720AC1","019cf05f-1bdb-70e5-b9fc-f23dd7efb677","019ceff9-9f67-7034-9722-02cda2445e09","","847","
                <div class=""stimulus-container"">
                    <img src=""images/schematic_sequence/dinner_party_scheme/dinner_party_scheme_2.png"" class=""exp-image"">
                    <div class=""question-area"">
                        <p style=""font-size: 20px; font-weight: bold; margin: 0;"">Is there a person in this image?</p>
                    </div>
                </div>","0","main_experiment_trial","2","dinner_party_scheme","schematic_sequence","","","","",""
"","","","","","html-keyboard-response","63","249168","0.0-63.0","37D2277BFA854B588336510E8A720AC1","019cf05f-1bdb-70e5-b9fc-f23dd7efb677","019ceff9-9f67-7034-9722-02cda2445e09","","null","
                <div class=""stimulus-container"">
                    <img src=""images/schematic_sequence/dinner_party_scheme/dinner_party_scheme_3.png"" class=""exp-image"">
                    <div class=""question-area""></div> 
                </div>","null","","","","","","","","",""
"","","","","","html-button-response","64","250024","0.0-64.0","37D2277BFA854B588336510E8A720AC1","019cf05f-1bdb-70e5-b9fc-f23dd7efb677","019ceff9-9f67-7034-9722-02cda2445e09","","854","
                <div class=""stimulus-container"">
                    <img src=""images/schematic_sequence/dinner_party_scheme/dinner_party_scheme_3.png"" class=""exp-image"">
                    <div class=""question-area"">
                        <p style=""font-size: 20px; font-weight: bold; margin: 0;"">Is there a person in this image?</p>
                    </div>
                </div>","0","main_experiment_trial","3","dinner_party_scheme","schematic_sequence","","","","",""
"","","","","","html-keyboard-response","65","255029","0.0-65.0","37D2277BFA854B588336510E8A720AC1","019cf05f-1bdb-70e5-b9fc-f23dd7efb677","019ceff9-9f67-7034-9722-02cda2445e09","","null","
                <div class=""stimulus-container"">
                    <img src=""images/schematic_sequence/dinner_party_scheme/dinner_party_scheme_4.png"" class=""exp-image"">
                    <div class=""question-area""></div> 
                </div>","null","","","","","","","","",""
"","","","","","html-button-response","66","256313","0.0-66.0","37D2277BFA854B588336510E8A720AC1","019cf05f-1bdb-70e5-b9fc-f23dd7efb677","019ceff9-9f67-7034-9722-02cda2445e09","","1283","
                <div class=""stimulus-container"">
                    <img src=""images/schematic_sequence/dinner_party_scheme/dinner_party_scheme_4.png"" class=""exp-image"">
                    <div class=""question-area"">
                        <p style=""font-size: 20px; font-weight: bold; margin: 0;"">Is there a person in this image?</p>
                    </div>
                </div>","0","main_experiment_trial","4","dinner_party_scheme","schematic_sequence","","","","",""
"","","","","","html-keyboard-response","67","261319","0.0-67.0","37D2277BFA854B588336510E8A720AC1","019cf05f-1bdb-70e5-b9fc-f23dd7efb677","019ceff9-9f67-7034-9722-02cda2445e09","","null","
                <div class=""stimulus-container"">
                    <img src=""images/schematic_sequence/dinner_party_scheme/dinner_party_scheme_5.png"" class=""exp-image"">
                    <div class=""question-area""></div> 
                </div>","null","","","","","","","","",""
"","","","","","html-button-response","68","262547","0.0-68.0","37D2277BFA854B588336510E8A720AC1","019cf05f-1bdb-70e5-b9fc-f23dd7efb677","019ceff9-9f67-7034-9722-02cda2445e09","","1226","
                <div class=""stimulus-container"">
                    <img src=""images/schematic_sequence/dinner_party_scheme/dinner_party_scheme_5.png"" class=""exp-image"">
                    <div class=""question-area"">
                        <p style=""font-size: 20px; font-weight: bold; margin: 0;"">Is there a person in this image?</p>
                    </div>
                </div>","0","main_experiment_trial","5","dinner_party_scheme","schematic_sequence","","","","",""
"","","","","","html-keyboard-response","69","267556","0.0-69.0","37D2277BFA854B588336510E8A720AC1","019cf05f-1bdb-70e5-b9fc-f23dd7efb677","019ceff9-9f67-7034-9722-02cda2445e09","","null","
                <div class=""stimulus-container"">
                    <img src=""images/schematic_sequence/dinner_party_scheme/dinner_party_scheme_6.png"" class=""exp-image"">
                    <div class=""question-area""></div> 
                </div>","null","","","","","","","","",""
"","","","","","html-button-response","70","268464","0.0-70.0","37D2277BFA854B588336510E8A720AC1","019cf05f-1bdb-70e5-b9fc-f23dd7efb677","019ceff9-9f67-7034-9722-02cda2445e09","","907","
                <div class=""stimulus-container"">
                    <img src=""images/schematic_sequence/dinner_party_scheme/dinner_party_scheme_6.png"" class=""exp-image"">
                    <div class=""question-area"">
                        <p style=""font-size: 20px; font-weight: bold; margin: 0;"">Is there a person in this image?</p>
                    </div>
                </div>","0","main_experiment_trial","6","dinner_party_scheme","schematic_sequence","","","","",""
"","","","","","html-keyboard-response","71","273481","0.0-71.0","37D2277BFA854B588336510E8A720AC1","019cf05f-1bdb-70e5-b9fc-f23dd7efb677","019ceff9-9f67-7034-9722-02cda2445e09","","null","
                <div class=""stimulus-container"">
                    <img src=""images/schematic_sequence/dinner_party_scheme/dinner_party_scheme_7.png"" class=""exp-image"">
                    <div class=""question-area""></div> 
                </div>","null","","","","","","","","",""
"","","","","","html-button-response","72","274365","0.0-72.0","37D2277BFA854B588336510E8A720AC1","019cf05f-1bdb-70e5-b9fc-f23dd7efb677","019ceff9-9f67-7034-9722-02cda2445e09","","880","
                <div class=""stimulus-container"">
                    <img src=""images/schematic_sequence/dinner_party_scheme/dinner_party_scheme_7.png"" class=""exp-image"">
                    <div class=""question-area"">
                        <p style=""font-size: 20px; font-weight: bold; margin: 0;"">Is there a person in this image?</p>
                    </div>
                </div>","0","main_experiment_trial","7","dinner_party_scheme","schematic_sequence","","","","",""
"","","","","","html-keyboard-response","73","279369","0.0-73.0","37D2277BFA854B588336510E8A720AC1","019cf05f-1bdb-70e5-b9fc-f23dd7efb677","019ceff9-9f67-7034-9722-02cda2445e09","","null","
                <div class=""stimulus-container"">
                    <img src=""images/schematic_sequence/dinner_party_scheme/dinner_party_scheme_8.png"" class=""exp-image"">
                    <div class=""question-area""></div> 
                </div>","null","","","","","","","","",""
"","","","","","html-button-response","74","280446","0.0-74.0","37D2277BFA854B588336510E8A720AC1","019cf05f-1bdb-70e5-b9fc-f23dd7efb677","019ceff9-9f67-7034-9722-02cda2445e09","","1075","
                <div class=""stimulus-container"">
                    <img src=""images/schematic_sequence/dinner_party_scheme/dinner_party_scheme_8.png"" class=""exp-image"">
                    <div class=""question-area"">
                        <p style=""font-size: 20px; font-weight: bold; margin: 0;"">Is there a person in this image?</p>
                    </div>
                </div>","0","main_experiment_trial","8","dinner_party_scheme","schematic_sequence","","","","",""
"","","","","","html-keyboard-response","75","285452","0.0-75.0","37D2277BFA854B588336510E8A720AC1","019cf05f-1bdb-70e5-b9fc-f23dd7efb677","019ceff9-9f67-7034-9722-02cda2445e09","","null","
                <div class=""stimulus-container"">
                    <img src=""images/schematic_sequence/dinner_party_scheme/dinner_party_scheme_9.png"" class=""exp-image"">
                    <div class=""question-area""></div> 
                </div>","null","","","","","","","","",""
"","","","","","html-button-response","76","286381","0.0-76.0","37D2277BFA854B588336510E8A720AC1","019cf05f-1bdb-70e5-b9fc-f23dd7efb677","019ceff9-9f67-7034-9722-02cda2445e09","","928","
                <div class=""stimulus-container"">
                    <img src=""images/schematic_sequence/dinner_party_scheme/dinner_party_scheme_9.png"" class=""exp-image"">
                    <div class=""question-area"">
                        <p style=""font-size: 20px; font-weight: bold; margin: 0;"">Is there a person in this image?</p>
                    </div>
                </div>","0","main_experiment_trial","9","dinner_party_scheme","schematic_sequence","","","","",""
"","","","","","html-keyboard-response","77","291397","0.0-77.0","37D2277BFA854B588336510E8A720AC1","019cf05f-1bdb-70e5-b9fc-f23dd7efb677","019ceff9-9f67-7034-9722-02cda2445e09","","null","
                <div class=""stimulus-container"">
                    <img src=""images/schematic_sequence/dinner_party_scheme/dinner_party_scheme_ten.png"" class=""exp-image"">
                    <div class=""question-area""></div> 
                </div>","null","","","","","","","","",""
"","","","","","html-button-response","78","292913","0.0-78.0","37D2277BFA854B588336510E8A720AC1","019cf05f-1bdb-70e5-b9fc-f23dd7efb677","019ceff9-9f67-7034-9722-02cda2445e09","","1514","
                <div class=""stimulus-container"">
                    <img src=""images/schematic_sequence/dinner_party_scheme/dinner_party_scheme_ten.png"" class=""exp-image"">
                    <div class=""question-area"">
                        <p style=""font-size: 20px; font-weight: bold; margin: 0;"">Is there a person in this image?</p>
                    </div>
                </div>","0","main_experiment_trial","ten","dinner_party_scheme","schematic_sequence","","","","",""
"","","","","","html-keyboard-response","79","293926","0.0-79.0","37D2277BFA854B588336510E8A720AC1","019cf05f-1bdb-70e5-b9fc-f23dd7efb677","019ceff9-9f67-7034-9722-02cda2445e09","","null","<div style=""background-color: white; width: 100vw; height: 100vh;""></div>","null","","","","","","","","",""
"","","","","","html-keyboard-response","80","298942","0.0-80.0","37D2277BFA854B588336510E8A720AC1","019cf05f-1bdb-70e5-b9fc-f23dd7efb677","019ceff9-9f67-7034-9722-02cda2445e09","","null","
                <div class=""stimulus-container"">
                    <img src=""images/causal_sequence/saving_a_cat_causal/saving_a_cat_causal_1.png"" class=""exp-image"">
                    <div class=""question-area""></div> 
                </div>","null","","","","","","","","",""
"","","","","","html-button-response","81","300179","0.0-81.0","37D2277BFA854B588336510E8A720AC1","019cf05f-1bdb-70e5-b9fc-f23dd7efb677","019ceff9-9f67-7034-9722-02cda2445e09","","1236","
                <div class=""stimulus-container"">
                    <img src=""images/causal_sequence/saving_a_cat_causal/saving_a_cat_causal_1.png"" class=""exp-image"">
                    <div class=""question-area"">
                        <p style=""font-size: 20px; font-weight: bold; margin: 0;"">Is there a person in this image?</p>
                    </div>
                </div>","0","main_experiment_trial","1","saving_a_cat_causal","causal_sequence","","","","",""
"","","","","","html-keyboard-response","82","305193","0.0-82.0","37D2277BFA854B588336510E8A720AC1","019cf05f-1bdb-70e5-b9fc-f23dd7efb677","019ceff9-9f67-7034-9722-02cda2445e09","","null","
                <div class=""stimulus-container"">
                    <img src=""images/causal_sequence/saving_a_cat_causal/saving_a_cat_causal_2.png"" class=""exp-image"">
                    <div class=""question-area""></div> 
                </div>","null","","","","","","","","",""
"","","","","","html-button-response","83","305917","0.0-83.0","37D2277BFA854B588336510E8A720AC1","019cf05f-1bdb-70e5-b9fc-f23dd7efb677","019ceff9-9f67-7034-9722-02cda2445e09","","723","
                <div class=""stimulus-container"">
                    <img src=""images/causal_sequence/saving_a_cat_causal/saving_a_cat_causal_2.png"" class=""exp-image"">
                    <div class=""question-area"">
                        <p style=""font-size: 20px; font-weight: bold; margin: 0;"">Is there a person in this image?</p>
                    </div>
                </div>","1","main_experiment_trial","2","saving_a_cat_causal","causal_sequence","","","","",""
"","","","","","html-keyboard-response","84","310929","0.0-84.0","37D2277BFA854B588336510E8A720AC1","019cf05f-1bdb-70e5-b9fc-f23dd7efb677","019ceff9-9f67-7034-9722-02cda2445e09","","null","
                <div class=""stimulus-container"">
                    <img src=""images/causal_sequence/saving_a_cat_causal/saving_a_cat_causal_3.png"" class=""exp-image"">
                    <div class=""question-area""></div> 
                </div>","null","","","","","","","","",""
"","","","","","html-button-response","85","311978","0.0-85.0","37D2277BFA854B588336510E8A720AC1","019cf05f-1bdb-70e5-b9fc-f23dd7efb677","019ceff9-9f67-7034-9722-02cda2445e09","","1048","
                <div class=""stimulus-container"">
                    <img src=""images/causal_sequence/saving_a_cat_causal/saving_a_cat_causal_3.png"" class=""exp-image"">
                    <div class=""question-area"">
                        <p style=""font-size: 20px; font-weight: bold; margin: 0;"">Is there a person in this image?</p>
                    </div>
                </div>","1","main_experiment_trial","3","saving_a_cat_causal","causal_sequence","","","","",""
"","","","","","html-keyboard-response","86","316994","0.0-86.0","37D2277BFA854B588336510E8A720AC1","019cf05f-1bdb-70e5-b9fc-f23dd7efb677","019ceff9-9f67-7034-9722-02cda2445e09","","null","
                <div class=""stimulus-container"">
                    <img src=""images/causal_sequence/saving_a_cat_causal/saving_a_cat_causal_4.png"" class=""exp-image"">
                    <div class=""question-area""></div> 
                </div>","null","","","","","","","","",""
"","","","","","html-button-response","87","317798","0.0-87.0","37D2277BFA854B588336510E8A720AC1","019cf05f-1bdb-70e5-b9fc-f23dd7efb677","019ceff9-9f67-7034-9722-02cda2445e09","","802","
                <div class=""stimulus-container"">
                    <img src=""images/causal_sequence/saving_a_cat_causal/saving_a_cat_causal_4.png"" class=""exp-image"">
                    <div class=""question-area"">
                        <p style=""font-size: 20px; font-weight: bold; margin: 0;"">Is there a person in this image?</p>
                    </div>
                </div>","0","main_experiment_trial","4","saving_a_cat_causal","causal_sequence","","","","",""
"","","","","","html-keyboard-response","88","322810","0.0-88.0","37D2277BFA854B588336510E8A720AC1","019cf05f-1bdb-70e5-b9fc-f23dd7efb677","019ceff9-9f67-7034-9722-02cda2445e09","","null","
                <div class=""stimulus-container"">
                    <img src=""images/causal_sequence/saving_a_cat_causal/saving_a_cat_causal_5.png"" class=""exp-image"">
                    <div class=""question-area""></div> 
                </div>","null","","","","","","","","",""
"","","","","","html-button-response","89","323800","0.0-89.0","37D2277BFA854B588336510E8A720AC1","019cf05f-1bdb-70e5-b9fc-f23dd7efb677","019ceff9-9f67-7034-9722-02cda2445e09","","989","
                <div class=""stimulus-container"">
                    <img src=""images/causal_sequence/saving_a_cat_causal/saving_a_cat_causal_5.png"" class=""exp-image"">
                    <div class=""question-area"">
                        <p style=""font-size: 20px; font-weight: bold; margin: 0;"">Is there a person in this image?</p>
                    </div>
                </div>","0","main_experiment_trial","5","saving_a_cat_causal","causal_sequence","","","","",""
"","","","","","html-keyboard-response","90","328805","0.0-90.0","37D2277BFA854B588336510E8A720AC1","019cf05f-1bdb-70e5-b9fc-f23dd7efb677","019ceff9-9f67-7034-9722-02cda2445e09","","null","
                <div class=""stimulus-container"">
                    <img src=""images/causal_sequence/saving_a_cat_causal/saving_a_cat_causal_6.png"" class=""exp-image"">
                    <div class=""question-area""></div> 
                </div>","null","","","","","","","","",""
"","","","","","html-button-response","91","329458","0.0-91.0","37D2277BFA854B588336510E8A720AC1","019cf05f-1bdb-70e5-b9fc-f23dd7efb677","019ceff9-9f67-7034-9722-02cda2445e09","","652","
                <div class=""stimulus-container"">
                    <img src=""images/causal_sequence/saving_a_cat_causal/saving_a_cat_causal_6.png"" class=""exp-image"">
                    <div class=""question-area"">
                        <p style=""font-size: 20px; font-weight: bold; margin: 0;"">Is there a person in this image?</p>
                    </div>
                </div>","0","main_experiment_trial","6","saving_a_cat_causal","causal_sequence","","","","",""
"","","","","","html-keyboard-response","92","334470","0.0-92.0","37D2277BFA854B588336510E8A720AC1","019cf05f-1bdb-70e5-b9fc-f23dd7efb677","019ceff9-9f67-7034-9722-02cda2445e09","","null","
                <div class=""stimulus-container"">
                    <img src=""images/causal_sequence/saving_a_cat_causal/saving_a_cat_causal_7.png"" class=""exp-image"">
                    <div class=""question-area""></div> 
                </div>","null","","","","","","","","",""
"","","","","","html-button-response","93","335572","0.0-93.0","37D2277BFA854B588336510E8A720AC1","019cf05f-1bdb-70e5-b9fc-f23dd7efb677","019ceff9-9f67-7034-9722-02cda2445e09","","1101","
                <div class=""stimulus-container"">
                    <img src=""images/causal_sequence/saving_a_cat_causal/saving_a_cat_causal_7.png"" class=""exp-image"">
                    <div class=""question-area"">
                        <p style=""font-size: 20px; font-weight: bold; margin: 0;"">Is there a person in this image?</p>
                    </div>
                </div>","0","main_experiment_trial","7","saving_a_cat_causal","causal_sequence","","","","",""
"","","","","","html-keyboard-response","94","340586","0.0-94.0","37D2277BFA854B588336510E8A720AC1","019cf05f-1bdb-70e5-b9fc-f23dd7efb677","019ceff9-9f67-7034-9722-02cda2445e09","","null","
                <div class=""stimulus-container"">
                    <img src=""images/causal_sequence/saving_a_cat_causal/saving_a_cat_causal_8.png"" class=""exp-image"">
                    <div class=""question-area""></div> 
                </div>","null","","","","","","","","",""
"","","","","","html-button-response","95","341577","0.0-95.0","37D2277BFA854B588336510E8A720AC1","019cf05f-1bdb-70e5-b9fc-f23dd7efb677","019ceff9-9f67-7034-9722-02cda2445e09","","989","
                <div class=""stimulus-container"">
                    <img src=""images/causal_sequence/saving_a_cat_causal/saving_a_cat_causal_8.png"" class=""exp-image"">
                    <div class=""question-area"">
                        <p style=""font-size: 20px; font-weight: bold; margin: 0;"">Is there a person in this image?</p>
                    </div>
                </div>","0","main_experiment_trial","8","saving_a_cat_causal","causal_sequence","","","","",""
"","","","","","html-keyboard-response","96","346587","0.0-96.0","37D2277BFA854B588336510E8A720AC1","019cf05f-1bdb-70e5-b9fc-f23dd7efb677","019ceff9-9f67-7034-9722-02cda2445e09","","null","
                <div class=""stimulus-container"">
                    <img src=""images/causal_sequence/saving_a_cat_causal/saving_a_cat_causal_9.png"" class=""exp-image"">
                    <div class=""question-area""></div> 
                </div>","null","","","","","","","","",""
"","","","","","html-button-response","97","347409","0.0-97.0","37D2277BFA854B588336510E8A720AC1","019cf05f-1bdb-70e5-b9fc-f23dd7efb677","019ceff9-9f67-7034-9722-02cda2445e09","","821","
                <div class=""stimulus-container"">
                    <img src=""images/causal_sequence/saving_a_cat_causal/saving_a_cat_causal_9.png"" class=""exp-image"">
                    <div class=""question-area"">
                        <p style=""font-size: 20px; font-weight: bold; margin: 0;"">Is there a person in this image?</p>
                    </div>
                </div>","0","main_experiment_trial","9","saving_a_cat_causal","causal_sequence","","","","",""
"","","","","","html-keyboard-response","98","352416","0.0-98.0","37D2277BFA854B588336510E8A720AC1","019cf05f-1bdb-70e5-b9fc-f23dd7efb677","019ceff9-9f67-7034-9722-02cda2445e09","","null","
                <div class=""stimulus-container"">
                    <img src=""images/causal_sequence/saving_a_cat_causal/saving_a_cat_causal_ten.png"" class=""exp-image"">
                    <div class=""question-area""></div> 
                </div>","null","","","","","","","","",""
"","","","","","html-button-response","99","353853","0.0-99.0","37D2277BFA854B588336510E8A720AC1","019cf05f-1bdb-70e5-b9fc-f23dd7efb677","019ceff9-9f67-7034-9722-02cda2445e09","","1436","
                <div class=""stimulus-container"">
                    <img src=""images/causal_sequence/saving_a_cat_causal/saving_a_cat_causal_ten.png"" class=""exp-image"">
                    <div class=""question-area"">
                        <p style=""font-size: 20px; font-weight: bold; margin: 0;"">Is there a person in this image?</p>
                    </div>
                </div>","0","main_experiment_trial","ten","saving_a_cat_causal","causal_sequence","","","","",""
"","","","","","html-keyboard-response","100","354860","0.0-100.0","37D2277BFA854B588336510E8A720AC1","019cf05f-1bdb-70e5-b9fc-f23dd7efb677","019ceff9-9f67-7034-9722-02cda2445e09","","null","<div style=""background-color: white; width: 100vw; height: 100vh;""></div>","null","","","","","","","","",""
"","","","","","html-keyboard-response","101","359867","0.0-101.0","37D2277BFA854B588336510E8A720AC1","019cf05f-1bdb-70e5-b9fc-f23dd7efb677","019ceff9-9f67-7034-9722-02cda2445e09","","null","
                <div class=""stimulus-container"">
                    <img src=""images/schematic_sequence/interview_scheme/interview_scheme_1.png"" class=""exp-image"">
                    <div class=""question-area""></div> 
                </div>","null","","","","","","","","",""
"","","","","","html-button-response","102","360877","0.0-102.0","37D2277BFA854B588336510E8A720AC1","019cf05f-1bdb-70e5-b9fc-f23dd7efb677","019ceff9-9f67-7034-9722-02cda2445e09","","1008","
                <div class=""stimulus-container"">
                    <img src=""images/schematic_sequence/interview_scheme/interview_scheme_1.png"" class=""exp-image"">
                    <div class=""question-area"">
                        <p style=""font-size: 20px; font-weight: bold; margin: 0;"">Is there a person in this image?</p>
                    </div>
                </div>","1","main_experiment_trial","1","interview_scheme","schematic_sequence","","","","",""
"","","","","","html-keyboard-response","103","365891","0.0-103.0","37D2277BFA854B588336510E8A720AC1","019cf05f-1bdb-70e5-b9fc-f23dd7efb677","019ceff9-9f67-7034-9722-02cda2445e09","","null","
                <div class=""stimulus-container"">
                    <img src=""images/schematic_sequence/interview_scheme/interview_scheme_2.png"" class=""exp-image"">
                    <div class=""question-area""></div> 
                </div>","null","","","","","","","","",""
"","","","","","html-button-response","104","368006","0.0-104.0","37D2277BFA854B588336510E8A720AC1","019cf05f-1bdb-70e5-b9fc-f23dd7efb677","019ceff9-9f67-7034-9722-02cda2445e09","","2114","
                <div class=""stimulus-container"">
                    <img src=""images/schematic_sequence/interview_scheme/interview_scheme_2.png"" class=""exp-image"">
                    <div class=""question-area"">
                        <p style=""font-size: 20px; font-weight: bold; margin: 0;"">Is there a person in this image?</p>
                    </div>
                </div>","0","main_experiment_trial","2","interview_scheme","schematic_sequence","","","","",""
"","","","","","html-keyboard-response","105","373008","0.0-105.0","37D2277BFA854B588336510E8A720AC1","019cf05f-1bdb-70e5-b9fc-f23dd7efb677","019ceff9-9f67-7034-9722-02cda2445e09","","null","
                <div class=""stimulus-container"">
                    <img src=""images/schematic_sequence/interview_scheme/interview_scheme_3.png"" class=""exp-image"">
                    <div class=""question-area""></div> 
                </div>","null","","","","","","","","",""
"","","","","","html-button-response","106","373763","0.0-106.0","37D2277BFA854B588336510E8A720AC1","019cf05f-1bdb-70e5-b9fc-f23dd7efb677","019ceff9-9f67-7034-9722-02cda2445e09","","753","
                <div class=""stimulus-container"">
                    <img src=""images/schematic_sequence/interview_scheme/interview_scheme_3.png"" class=""exp-image"">
                    <div class=""question-area"">
                        <p style=""font-size: 20px; font-weight: bold; margin: 0;"">Is there a person in this image?</p>
                    </div>
                </div>","1","main_experiment_trial","3","interview_scheme","schematic_sequence","","","","",""
"","","","","","html-keyboard-response","107","378768","0.0-107.0","37D2277BFA854B588336510E8A720AC1","019cf05f-1bdb-70e5-b9fc-f23dd7efb677","019ceff9-9f67-7034-9722-02cda2445e09","","null","
                <div class=""stimulus-container"">
                    <img src=""images/schematic_sequence/interview_scheme/interview_scheme_4.png"" class=""exp-image"">
                    <div class=""question-area""></div> 
                </div>","null","","","","","","","","",""
"","","","","","html-button-response","108","380550","0.0-108.0","37D2277BFA854B588336510E8A720AC1","019cf05f-1bdb-70e5-b9fc-f23dd7efb677","019ceff9-9f67-7034-9722-02cda2445e09","","1779","
                <div class=""stimulus-container"">
                    <img src=""images/schematic_sequence/interview_scheme/interview_scheme_4.png"" class=""exp-image"">
                    <div class=""question-area"">
                        <p style=""font-size: 20px; font-weight: bold; margin: 0;"">Is there a person in this image?</p>
                    </div>
                </div>","1","main_experiment_trial","4","interview_scheme","schematic_sequence","","","","",""
"","","","","","html-keyboard-response","109","385570","0.0-109.0","37D2277BFA854B588336510E8A720AC1","019cf05f-1bdb-70e5-b9fc-f23dd7efb677","019ceff9-9f67-7034-9722-02cda2445e09","","null","
                <div class=""stimulus-container"">
                    <img src=""images/schematic_sequence/interview_scheme/interview_scheme_5.png"" class=""exp-image"">
                    <div class=""question-area""></div> 
                </div>","null","","","","","","","","",""
"","","","","","html-button-response","110","387159","0.0-110.0","37D2277BFA854B588336510E8A720AC1","019cf05f-1bdb-70e5-b9fc-f23dd7efb677","019ceff9-9f67-7034-9722-02cda2445e09","","1587","
                <div class=""stimulus-container"">
                    <img src=""images/schematic_sequence/interview_scheme/interview_scheme_5.png"" class=""exp-image"">
                    <div class=""question-area"">
                        <p style=""font-size: 20px; font-weight: bold; margin: 0;"">Is there a person in this image?</p>
                    </div>
                </div>","0","main_experiment_trial","5","interview_scheme","schematic_sequence","","","","",""
"","","","","","html-keyboard-response","111","392163","0.0-111.0","37D2277BFA854B588336510E8A720AC1","019cf05f-1bdb-70e5-b9fc-f23dd7efb677","019ceff9-9f67-7034-9722-02cda2445e09","","null","
                <div class=""stimulus-container"">
                    <img src=""images/schematic_sequence/interview_scheme/interview_scheme_6.png"" class=""exp-image"">
                    <div class=""question-area""></div> 
                </div>","null","","","","","","","","",""
"","","","","","html-button-response","112","392724","0.0-112.0","37D2277BFA854B588336510E8A720AC1","019cf05f-1bdb-70e5-b9fc-f23dd7efb677","019ceff9-9f67-7034-9722-02cda2445e09","","558","
                <div class=""stimulus-container"">
                    <img src=""images/schematic_sequence/interview_scheme/interview_scheme_6.png"" class=""exp-image"">
                    <div class=""question-area"">
                        <p style=""font-size: 20px; font-weight: bold; margin: 0;"">Is there a person in this image?</p>
                    </div>
                </div>","0","main_experiment_trial","6","interview_scheme","schematic_sequence","","","","",""
"","","","","","html-keyboard-response","113","397727","0.0-113.0","37D2277BFA854B588336510E8A720AC1","019cf05f-1bdb-70e5-b9fc-f23dd7efb677","019ceff9-9f67-7034-9722-02cda2445e09","","null","
                <div class=""stimulus-container"">
                    <img src=""images/schematic_sequence/interview_scheme/interview_scheme_7.png"" class=""exp-image"">
                    <div class=""question-area""></div> 
                </div>","null","","","","","","","","",""
"","","","","","html-button-response","114","398380","0.0-114.0","37D2277BFA854B588336510E8A720AC1","019cf05f-1bdb-70e5-b9fc-f23dd7efb677","019ceff9-9f67-7034-9722-02cda2445e09","","652","
                <div class=""stimulus-container"">
                    <img src=""images/schematic_sequence/interview_scheme/interview_scheme_7.png"" class=""exp-image"">
                    <div class=""question-area"">
                        <p style=""font-size: 20px; font-weight: bold; margin: 0;"">Is there a person in this image?</p>
                    </div>
                </div>","0","main_experiment_trial","7","interview_scheme","schematic_sequence","","","","",""
"","","","","","html-keyboard-response","115","403383","0.0-115.0","37D2277BFA854B588336510E8A720AC1","019cf05f-1bdb-70e5-b9fc-f23dd7efb677","019ceff9-9f67-7034-9722-02cda2445e09","","null","
                <div class=""stimulus-container"">
                    <img src=""images/schematic_sequence/interview_scheme/interview_scheme_8.png"" class=""exp-image"">
                    <div class=""question-area""></div> 
                </div>","null","","","","","","","","",""
"","","","","","html-button-response","116","404467","0.0-116.0","37D2277BFA854B588336510E8A720AC1","019cf05f-1bdb-70e5-b9fc-f23dd7efb677","019ceff9-9f67-7034-9722-02cda2445e09","","1083","
                <div class=""stimulus-container"">
                    <img src=""images/schematic_sequence/interview_scheme/interview_scheme_8.png"" class=""exp-image"">
                    <div class=""question-area"">
                        <p style=""font-size: 20px; font-weight: bold; margin: 0;"">Is there a person in this image?</p>
                    </div>
                </div>","0","main_experiment_trial","8","interview_scheme","schematic_sequence","","","","",""
"","","","","","html-keyboard-response","117","409476","0.0-117.0","37D2277BFA854B588336510E8A720AC1","019cf05f-1bdb-70e5-b9fc-f23dd7efb677","019ceff9-9f67-7034-9722-02cda2445e09","","null","
                <div class=""stimulus-container"">
                    <img src=""images/schematic_sequence/interview_scheme/interview_scheme_9.png"" class=""exp-image"">
                    <div class=""question-area""></div> 
                </div>","null","","","","","","","","",""
"","","","","","html-button-response","118","410137","0.0-118.0","37D2277BFA854B588336510E8A720AC1","019cf05f-1bdb-70e5-b9fc-f23dd7efb677","019ceff9-9f67-7034-9722-02cda2445e09","","660","
                <div class=""stimulus-container"">
                    <img src=""images/schematic_sequence/interview_scheme/interview_scheme_9.png"" class=""exp-image"">
                    <div class=""question-area"">
                        <p style=""font-size: 20px; font-weight: bold; margin: 0;"">Is there a person in this image?</p>
                    </div>
                </div>","0","main_experiment_trial","9","interview_scheme","schematic_sequence","","","","",""
"","","","","","html-keyboard-response","119","415154","0.0-119.0","37D2277BFA854B588336510E8A720AC1","019cf05f-1bdb-70e5-b9fc-f23dd7efb677","019ceff9-9f67-7034-9722-02cda2445e09","","null","
                <div class=""stimulus-container"">
                    <img src=""images/schematic_sequence/interview_scheme/interview_scheme_ten.png"" class=""exp-image"">
                    <div class=""question-area""></div> 
                </div>","null","","","","","","","","",""
"","","","","","html-button-response","120","415999","0.0-120.0","37D2277BFA854B588336510E8A720AC1","019cf05f-1bdb-70e5-b9fc-f23dd7efb677","019ceff9-9f67-7034-9722-02cda2445e09","","844","
                <div class=""stimulus-container"">
                    <img src=""images/schematic_sequence/interview_scheme/interview_scheme_ten.png"" class=""exp-image"">
                    <div class=""question-area"">
                        <p style=""font-size: 20px; font-weight: bold; margin: 0;"">Is there a person in this image?</p>
                    </div>
                </div>","0","main_experiment_trial","ten","interview_scheme","schematic_sequence","","","","",""
"","","","","","html-keyboard-response","121","417007","0.0-121.0","37D2277BFA854B588336510E8A720AC1","019cf05f-1bdb-70e5-b9fc-f23dd7efb677","019ceff9-9f67-7034-9722-02cda2445e09","","null","<div style=""background-color: white; width: 100vw; height: 100vh;""></div>","null","","","","","","","","",""
"","","","","","html-keyboard-response","122","422024","0.0-122.0","37D2277BFA854B588336510E8A720AC1","019cf05f-1bdb-70e5-b9fc-f23dd7efb677","019ceff9-9f67-7034-9722-02cda2445e09","","null","
                <div class=""stimulus-container"">
                    <img src=""images/schematic_sequence/flight_scheme/flight_scheme_1.png"" class=""exp-image"">
                    <div class=""question-area""></div> 
                </div>","null","","","","","","","","",""
"","","","","","html-button-response","123","424096","0.0-123.0","37D2277BFA854B588336510E8A720AC1","019cf05f-1bdb-70e5-b9fc-f23dd7efb677","019ceff9-9f67-7034-9722-02cda2445e09","","2070","
                <div class=""stimulus-container"">
                    <img src=""images/schematic_sequence/flight_scheme/flight_scheme_1.png"" class=""exp-image"">
                    <div class=""question-area"">
                        <p style=""font-size: 20px; font-weight: bold; margin: 0;"">Is there a person in this image?</p>
                    </div>
                </div>","0","main_experiment_trial","1","flight_scheme","schematic_sequence","","","","",""
"","","","","","html-keyboard-response","124","429111","0.0-124.0","37D2277BFA854B588336510E8A720AC1","019cf05f-1bdb-70e5-b9fc-f23dd7efb677","019ceff9-9f67-7034-9722-02cda2445e09","","null","
                <div class=""stimulus-container"">
                    <img src=""images/schematic_sequence/flight_scheme/flight_scheme_2.png"" class=""exp-image"">
                    <div class=""question-area""></div> 
                </div>","null","","","","","","","","",""
"","","","","","html-button-response","125","430835","0.0-125.0","37D2277BFA854B588336510E8A720AC1","019cf05f-1bdb-70e5-b9fc-f23dd7efb677","019ceff9-9f67-7034-9722-02cda2445e09","","1722","
                <div class=""stimulus-container"">
                    <img src=""images/schematic_sequence/flight_scheme/flight_scheme_2.png"" class=""exp-image"">
                    <div class=""question-area"">
                        <p style=""font-size: 20px; font-weight: bold; margin: 0;"">Is there a person in this image?</p>
                    </div>
                </div>","1","main_experiment_trial","2","flight_scheme","schematic_sequence","","","","",""
"","","","","","html-keyboard-response","126","435849","0.0-126.0","37D2277BFA854B588336510E8A720AC1","019cf05f-1bdb-70e5-b9fc-f23dd7efb677","019ceff9-9f67-7034-9722-02cda2445e09","","null","
                <div class=""stimulus-container"">
                    <img src=""images/schematic_sequence/flight_scheme/flight_scheme_3.png"" class=""exp-image"">
                    <div class=""question-area""></div> 
                </div>","null","","","","","","","","",""
"","","","","","html-button-response","127","438843","0.0-127.0","37D2277BFA854B588336510E8A720AC1","019cf05f-1bdb-70e5-b9fc-f23dd7efb677","019ceff9-9f67-7034-9722-02cda2445e09","","2993","
                <div class=""stimulus-container"">
                    <img src=""images/schematic_sequence/flight_scheme/flight_scheme_3.png"" class=""exp-image"">
                    <div class=""question-area"">
                        <p style=""font-size: 20px; font-weight: bold; margin: 0;"">Is there a person in this image?</p>
                    </div>
                </div>","0","main_experiment_trial","3","flight_scheme","schematic_sequence","","","","",""
"","","","","","html-keyboard-response","128","443859","0.0-128.0","37D2277BFA854B588336510E8A720AC1","019cf05f-1bdb-70e5-b9fc-f23dd7efb677","019ceff9-9f67-7034-9722-02cda2445e09","","null","
                <div class=""stimulus-container"">
                    <img src=""images/schematic_sequence/flight_scheme/flight_scheme_4.png"" class=""exp-image"">
                    <div class=""question-area""></div> 
                </div>","null","","","","","","","","",""
"","","","","","html-button-response","129","445182","0.0-129.0","37D2277BFA854B588336510E8A720AC1","019cf05f-1bdb-70e5-b9fc-f23dd7efb677","019ceff9-9f67-7034-9722-02cda2445e09","","1320","
                <div class=""stimulus-container"">
                    <img src=""images/schematic_sequence/flight_scheme/flight_scheme_4.png"" class=""exp-image"">
                    <div class=""question-area"">
                        <p style=""font-size: 20px; font-weight: bold; margin: 0;"">Is there a person in this image?</p>
                    </div>
                </div>","0","main_experiment_trial","4","flight_scheme","schematic_sequence","","","","",""
"","","","","","html-keyboard-response","130","450198","0.0-130.0","37D2277BFA854B588336510E8A720AC1","019cf05f-1bdb-70e5-b9fc-f23dd7efb677","019ceff9-9f67-7034-9722-02cda2445e09","","null","
                <div class=""stimulus-container"">
                    <img src=""images/schematic_sequence/flight_scheme/flight_scheme_5.png"" class=""exp-image"">
                    <div class=""question-area""></div> 
                </div>","null","","","","","","","","",""
"","","","","","html-button-response","131","450838","0.0-131.0","37D2277BFA854B588336510E8A720AC1","019cf05f-1bdb-70e5-b9fc-f23dd7efb677","019ceff9-9f67-7034-9722-02cda2445e09","","638","
                <div class=""stimulus-container"">
                    <img src=""images/schematic_sequence/flight_scheme/flight_scheme_5.png"" class=""exp-image"">
                    <div class=""question-area"">
                        <p style=""font-size: 20px; font-weight: bold; margin: 0;"">Is there a person in this image?</p>
                    </div>
                </div>","0","main_experiment_trial","5","flight_scheme","schematic_sequence","","","","",""
"","","","","","html-keyboard-response","132","455849","0.0-132.0","37D2277BFA854B588336510E8A720AC1","019cf05f-1bdb-70e5-b9fc-f23dd7efb677","019ceff9-9f67-7034-9722-02cda2445e09","","null","
                <div class=""stimulus-container"">
                    <img src=""images/schematic_sequence/flight_scheme/flight_scheme_6.png"" class=""exp-image"">
                    <div class=""question-area""></div> 
                </div>","null","","","","","","","","",""
"","","","","","html-button-response","133","456856","0.0-133.0","37D2277BFA854B588336510E8A720AC1","019cf05f-1bdb-70e5-b9fc-f23dd7efb677","019ceff9-9f67-7034-9722-02cda2445e09","","1006","
                <div class=""stimulus-container"">
                    <img src=""images/schematic_sequence/flight_scheme/flight_scheme_6.png"" class=""exp-image"">
                    <div class=""question-area"">
                        <p style=""font-size: 20px; font-weight: bold; margin: 0;"">Is there a person in this image?</p>
                    </div>
                </div>","1","main_experiment_trial","6","flight_scheme","schematic_sequence","","","","",""
"","","","","","html-keyboard-response","134","461860","0.0-134.0","37D2277BFA854B588336510E8A720AC1","019cf05f-1bdb-70e5-b9fc-f23dd7efb677","019ceff9-9f67-7034-9722-02cda2445e09","","null","
                <div class=""stimulus-container"">
                    <img src=""images/schematic_sequence/flight_scheme/flight_scheme_7.png"" class=""exp-image"">
                    <div class=""question-area""></div> 
                </div>","null","","","","","","","","",""
"","","","","","html-button-response","135","462643","0.0-135.0","37D2277BFA854B588336510E8A720AC1","019cf05f-1bdb-70e5-b9fc-f23dd7efb677","019ceff9-9f67-7034-9722-02cda2445e09","","782","
                <div class=""stimulus-container"">
                    <img src=""images/schematic_sequence/flight_scheme/flight_scheme_7.png"" class=""exp-image"">
                    <div class=""question-area"">
                        <p style=""font-size: 20px; font-weight: bold; margin: 0;"">Is there a person in this image?</p>
                    </div>
                </div>","0","main_experiment_trial","7","flight_scheme","schematic_sequence","","","","",""
"","","","","","html-keyboard-response","136","467649","0.0-136.0","37D2277BFA854B588336510E8A720AC1","019cf05f-1bdb-70e5-b9fc-f23dd7efb677","019ceff9-9f67-7034-9722-02cda2445e09","","null","
                <div class=""stimulus-container"">
                    <img src=""images/schematic_sequence/flight_scheme/flight_scheme_8.png"" class=""exp-image"">
                    <div class=""question-area""></div> 
                </div>","null","","","","","","","","",""
"","","","","","html-button-response","137","468246","0.0-137.0","37D2277BFA854B588336510E8A720AC1","019cf05f-1bdb-70e5-b9fc-f23dd7efb677","019ceff9-9f67-7034-9722-02cda2445e09","","596","
                <div class=""stimulus-container"">
                    <img src=""images/schematic_sequence/flight_scheme/flight_scheme_8.png"" class=""exp-image"">
                    <div class=""question-area"">
                        <p style=""font-size: 20px; font-weight: bold; margin: 0;"">Is there a person in this image?</p>
                    </div>
                </div>","1","main_experiment_trial","8","flight_scheme","schematic_sequence","","","","",""
"","","","","","html-keyboard-response","138","473257","0.0-138.0","37D2277BFA854B588336510E8A720AC1","019cf05f-1bdb-70e5-b9fc-f23dd7efb677","019ceff9-9f67-7034-9722-02cda2445e09","","null","
                <div class=""stimulus-container"">
                    <img src=""images/schematic_sequence/flight_scheme/flight_scheme_9.png"" class=""exp-image"">
                    <div class=""question-area""></div> 
                </div>","null","","","","","","","","",""
"","","","","","html-button-response","139","474271","0.0-139.0","37D2277BFA854B588336510E8A720AC1","019cf05f-1bdb-70e5-b9fc-f23dd7efb677","019ceff9-9f67-7034-9722-02cda2445e09","","1012","
                <div class=""stimulus-container"">
                    <img src=""images/schematic_sequence/flight_scheme/flight_scheme_9.png"" class=""exp-image"">
                    <div class=""question-area"">
                        <p style=""font-size: 20px; font-weight: bold; margin: 0;"">Is there a person in this image?</p>
                    </div>
                </div>","0","main_experiment_trial","9","flight_scheme","schematic_sequence","","","","",""
"","","","","","html-keyboard-response","140","479283","0.0-140.0","37D2277BFA854B588336510E8A720AC1","019cf05f-1bdb-70e5-b9fc-f23dd7efb677","019ceff9-9f67-7034-9722-02cda2445e09","","null","
                <div class=""stimulus-container"">
                    <img src=""images/schematic_sequence/flight_scheme/flight_scheme_ten.png"" class=""exp-image"">
                    <div class=""question-area""></div> 
                </div>","null","","","","","","","","",""
"","","","","","html-button-response","141","480040","0.0-141.0","37D2277BFA854B588336510E8A720AC1","019cf05f-1bdb-70e5-b9fc-f23dd7efb677","019ceff9-9f67-7034-9722-02cda2445e09","","756","
                <div class=""stimulus-container"">
                    <img src=""images/schematic_sequence/flight_scheme/flight_scheme_ten.png"" class=""exp-image"">
                    <div class=""question-area"">
                        <p style=""font-size: 20px; font-weight: bold; margin: 0;"">Is there a person in this image?</p>
                    </div>
                </div>","0","main_experiment_trial","ten","flight_scheme","schematic_sequence","","","","",""
"","","","","","html-keyboard-response","142","481056","0.0-142.0","37D2277BFA854B588336510E8A720AC1","019cf05f-1bdb-70e5-b9fc-f23dd7efb677","019ceff9-9f67-7034-9722-02cda2445e09","","null","<div style=""background-color: white; width: 100vw; height: 100vh;""></div>","null","","","","","","","","",""
"","","","","","html-keyboard-response","143","486071","0.0-143.0","37D2277BFA854B588336510E8A720AC1","019cf05f-1bdb-70e5-b9fc-f23dd7efb677","019ceff9-9f67-7034-9722-02cda2445e09","","null","
                <div class=""stimulus-container"">
                    <img src=""images/causal_sequence/coin_causal/coin_causal_1.png"" class=""exp-image"">
                    <div class=""question-area""></div> 
                </div>","null","","","","","","","","",""
"","","","","","html-button-response","144","487174","0.0-144.0","37D2277BFA854B588336510E8A720AC1","019cf05f-1bdb-70e5-b9fc-f23dd7efb677","019ceff9-9f67-7034-9722-02cda2445e09","","1102","
                <div class=""stimulus-container"">
                    <img src=""images/causal_sequence/coin_causal/coin_causal_1.png"" class=""exp-image"">
                    <div class=""question-area"">
                        <p style=""font-size: 20px; font-weight: bold; margin: 0;"">Is there a person in this image?</p>
                    </div>
                </div>","0","main_experiment_trial","1","coin_causal","causal_sequence","","","","",""
"","","","","","html-keyboard-response","145","492185","0.0-145.0","37D2277BFA854B588336510E8A720AC1","019cf05f-1bdb-70e5-b9fc-f23dd7efb677","019ceff9-9f67-7034-9722-02cda2445e09","","null","
                <div class=""stimulus-container"">
                    <img src=""images/causal_sequence/coin_causal/coin_causal_2.png"" class=""exp-image"">
                    <div class=""question-area""></div> 
                </div>","null","","","","","","","","",""
"","","","","","html-button-response","146","492912","0.0-146.0","37D2277BFA854B588336510E8A720AC1","019cf05f-1bdb-70e5-b9fc-f23dd7efb677","019ceff9-9f67-7034-9722-02cda2445e09","","726","
                <div class=""stimulus-container"">
                    <img src=""images/causal_sequence/coin_causal/coin_causal_2.png"" class=""exp-image"">
                    <div class=""question-area"">
                        <p style=""font-size: 20px; font-weight: bold; margin: 0;"">Is there a person in this image?</p>
                    </div>
                </div>","0","main_experiment_trial","2","coin_causal","causal_sequence","","","","",""
"","","","","","html-keyboard-response","147","497918","0.0-147.0","37D2277BFA854B588336510E8A720AC1","019cf05f-1bdb-70e5-b9fc-f23dd7efb677","019ceff9-9f67-7034-9722-02cda2445e09","","null","
                <div class=""stimulus-container"">
                    <img src=""images/causal_sequence/coin_causal/coin_causal_3.png"" class=""exp-image"">
                    <div class=""question-area""></div> 
                </div>","null","","","","","","","","",""
"","","","","","html-button-response","148","498375","0.0-148.0","37D2277BFA854B588336510E8A720AC1","019cf05f-1bdb-70e5-b9fc-f23dd7efb677","019ceff9-9f67-7034-9722-02cda2445e09","","455","
                <div class=""stimulus-container"">
                    <img src=""images/causal_sequence/coin_causal/coin_causal_3.png"" class=""exp-image"">
                    <div class=""question-area"">
                        <p style=""font-size: 20px; font-weight: bold; margin: 0;"">Is there a person in this image?</p>
                    </div>
                </div>","0","main_experiment_trial","3","coin_causal","causal_sequence","","","","",""
"","","","","","html-keyboard-response","149","503384","0.0-149.0","37D2277BFA854B588336510E8A720AC1","019cf05f-1bdb-70e5-b9fc-f23dd7efb677","019ceff9-9f67-7034-9722-02cda2445e09","","null","
                <div class=""stimulus-container"">
                    <img src=""images/causal_sequence/coin_causal/coin_causal_4.png"" class=""exp-image"">
                    <div class=""question-area""></div> 
                </div>","null","","","","","","","","",""
"","","","","","html-button-response","150","504685","0.0-150.0","37D2277BFA854B588336510E8A720AC1","019cf05f-1bdb-70e5-b9fc-f23dd7efb677","019ceff9-9f67-7034-9722-02cda2445e09","","1300","
                <div class=""stimulus-container"">
                    <img src=""images/causal_sequence/coin_causal/coin_causal_4.png"" class=""exp-image"">
                    <div class=""question-area"">
                        <p style=""font-size: 20px; font-weight: bold; margin: 0;"">Is there a person in this image?</p>
                    </div>
                </div>","0","main_experiment_trial","4","coin_causal","causal_sequence","","","","",""
"","","","","","html-keyboard-response","151","509695","0.0-151.0","37D2277BFA854B588336510E8A720AC1","019cf05f-1bdb-70e5-b9fc-f23dd7efb677","019ceff9-9f67-7034-9722-02cda2445e09","","null","
                <div class=""stimulus-container"">
                    <img src=""images/causal_sequence/coin_causal/coin_causal_5.png"" class=""exp-image"">
                    <div class=""question-area""></div> 
                </div>","null","","","","","","","","",""
"","","","","","html-button-response","152","510372","0.0-152.0","37D2277BFA854B588336510E8A720AC1","019cf05f-1bdb-70e5-b9fc-f23dd7efb677","019ceff9-9f67-7034-9722-02cda2445e09","","676","
                <div class=""stimulus-container"">
                    <img src=""images/causal_sequence/coin_causal/coin_causal_5.png"" class=""exp-image"">
                    <div class=""question-area"">
                        <p style=""font-size: 20px; font-weight: bold; margin: 0;"">Is there a person in this image?</p>
                    </div>
                </div>","0","main_experiment_trial","5","coin_causal","causal_sequence","","","","",""
"","","","","","html-keyboard-response","153","515388","0.0-153.0","37D2277BFA854B588336510E8A720AC1","019cf05f-1bdb-70e5-b9fc-f23dd7efb677","019ceff9-9f67-7034-9722-02cda2445e09","","null","
                <div class=""stimulus-container"">
                    <img src=""images/causal_sequence/coin_causal/coin_causal_6.png"" class=""exp-image"">
                    <div class=""question-area""></div> 
                </div>","null","","","","","","","","",""
"","","","","","html-button-response","154","516058","0.0-154.0","37D2277BFA854B588336510E8A720AC1","019cf05f-1bdb-70e5-b9fc-f23dd7efb677","019ceff9-9f67-7034-9722-02cda2445e09","","668","
                <div class=""stimulus-container"">
                    <img src=""images/causal_sequence/coin_causal/coin_causal_6.png"" class=""exp-image"">
                    <div class=""question-area"">
                        <p style=""font-size: 20px; font-weight: bold; margin: 0;"">Is there a person in this image?</p>
                    </div>
                </div>","0","main_experiment_trial","6","coin_causal","causal_sequence","","","","",""
"","","","","","html-keyboard-response","155","521065","0.0-155.0","37D2277BFA854B588336510E8A720AC1","019cf05f-1bdb-70e5-b9fc-f23dd7efb677","019ceff9-9f67-7034-9722-02cda2445e09","","null","
                <div class=""stimulus-container"">
                    <img src=""images/causal_sequence/coin_causal/coin_causal_7.png"" class=""exp-image"">
                    <div class=""question-area""></div> 
                </div>","null","","","","","","","","",""
"","","","","","html-button-response","156","522082","0.0-156.0","37D2277BFA854B588336510E8A720AC1","019cf05f-1bdb-70e5-b9fc-f23dd7efb677","019ceff9-9f67-7034-9722-02cda2445e09","","1015","
                <div class=""stimulus-container"">
                    <img src=""images/causal_sequence/coin_causal/coin_causal_7.png"" class=""exp-image"">
                    <div class=""question-area"">
                        <p style=""font-size: 20px; font-weight: bold; margin: 0;"">Is there a person in this image?</p>
                    </div>
                </div>","1","main_experiment_trial","7","coin_causal","causal_sequence","","","","",""
"","","","","","html-keyboard-response","157","527094","0.0-157.0","37D2277BFA854B588336510E8A720AC1","019cf05f-1bdb-70e5-b9fc-f23dd7efb677","019ceff9-9f67-7034-9722-02cda2445e09","","null","
                <div class=""stimulus-container"">
                    <img src=""images/causal_sequence/coin_causal/coin_causal_8.png"" class=""exp-image"">
                    <div class=""question-area""></div> 
                </div>","null","","","","","","","","",""
"","","","","","html-button-response","158","529161","0.0-158.0","37D2277BFA854B588336510E8A720AC1","019cf05f-1bdb-70e5-b9fc-f23dd7efb677","019ceff9-9f67-7034-9722-02cda2445e09","","2065","
                <div class=""stimulus-container"">
                    <img src=""images/causal_sequence/coin_causal/coin_causal_8.png"" class=""exp-image"">
                    <div class=""question-area"">
                        <p style=""font-size: 20px; font-weight: bold; margin: 0;"">Is there a person in this image?</p>
                    </div>
                </div>","0","main_experiment_trial","8","coin_causal","causal_sequence","","","","",""
"","","","","","html-keyboard-response","159","534167","0.0-159.0","37D2277BFA854B588336510E8A720AC1","019cf05f-1bdb-70e5-b9fc-f23dd7efb677","019ceff9-9f67-7034-9722-02cda2445e09","","null","
                <div class=""stimulus-container"">
                    <img src=""images/causal_sequence/coin_causal/coin_causal_9.png"" class=""exp-image"">
                    <div class=""question-area""></div> 
                </div>","null","","","","","","","","",""
"","","","","","html-button-response","160","535131","0.0-160.0","37D2277BFA854B588336510E8A720AC1","019cf05f-1bdb-70e5-b9fc-f23dd7efb677","019ceff9-9f67-7034-9722-02cda2445e09","","960","
                <div class=""stimulus-container"">
                    <img src=""images/causal_sequence/coin_causal/coin_causal_9.png"" class=""exp-image"">
                    <div class=""question-area"">
                        <p style=""font-size: 20px; font-weight: bold; margin: 0;"">Is there a person in this image?</p>
                    </div>
                </div>","0","main_experiment_trial","9","coin_causal","causal_sequence","","","","",""
"","","","","","html-keyboard-response","161","540137","0.0-161.0","37D2277BFA854B588336510E8A720AC1","019cf05f-1bdb-70e5-b9fc-f23dd7efb677","019ceff9-9f67-7034-9722-02cda2445e09","","null","
                <div class=""stimulus-container"">
                    <img src=""images/causal_sequence/coin_causal/coin_causal_ten.png"" class=""exp-image"">
                    <div class=""question-area""></div> 
                </div>","null","","","","","","","","",""
"","","","","","html-button-response","162","543114","0.0-162.0","37D2277BFA854B588336510E8A720AC1","019cf05f-1bdb-70e5-b9fc-f23dd7efb677","019ceff9-9f67-7034-9722-02cda2445e09","","2974","
                <div class=""stimulus-container"">
                    <img src=""images/causal_sequence/coin_causal/coin_causal_ten.png"" class=""exp-image"">
                    <div class=""question-area"">
                        <p style=""font-size: 20px; font-weight: bold; margin: 0;"">Is there a person in this image?</p>
                    </div>
                </div>","0","main_experiment_trial","ten","coin_causal","causal_sequence","","","","",""
"","","","","","html-keyboard-response","163","544120","0.0-163.0","37D2277BFA854B588336510E8A720AC1","019cf05f-1bdb-70e5-b9fc-f23dd7efb677","019ceff9-9f67-7034-9722-02cda2445e09","","null","<div style=""background-color: white; width: 100vw; height: 100vh;""></div>","null","","","","","","","","",""
"","","","","","html-keyboard-response","164","549133","0.0-164.0","37D2277BFA854B588336510E8A720AC1","019cf05f-1bdb-70e5-b9fc-f23dd7efb677","019ceff9-9f67-7034-9722-02cda2445e09","","null","
                <div class=""stimulus-container"">
                    <img src=""images/schematic_sequence/supermarket_scheme/supermarket_scheme_1.png"" class=""exp-image"">
                    <div class=""question-area""></div> 
                </div>","null","","","","","","","","",""
"","","","","","html-button-response","165","550315","0.0-165.0","37D2277BFA854B588336510E8A720AC1","019cf05f-1bdb-70e5-b9fc-f23dd7efb677","019ceff9-9f67-7034-9722-02cda2445e09","","1180","
                <div class=""stimulus-container"">
                    <img src=""images/schematic_sequence/supermarket_scheme/supermarket_scheme_1.png"" class=""exp-image"">
                    <div class=""question-area"">
                        <p style=""font-size: 20px; font-weight: bold; margin: 0;"">Is there a person in this image?</p>
                    </div>
                </div>","1","main_experiment_trial","1","supermarket_scheme","schematic_sequence","","","","",""
"","","","","","html-keyboard-response","166","555334","0.0-166.0","37D2277BFA854B588336510E8A720AC1","019cf05f-1bdb-70e5-b9fc-f23dd7efb677","019ceff9-9f67-7034-9722-02cda2445e09","","null","
                <div class=""stimulus-container"">
                    <img src=""images/schematic_sequence/supermarket_scheme/supermarket_scheme_2.png"" class=""exp-image"">
                    <div class=""question-area""></div> 
                </div>","null","","","","","","","","",""
"","","","","","html-button-response","167","557155","0.0-167.0","37D2277BFA854B588336510E8A720AC1","019cf05f-1bdb-70e5-b9fc-f23dd7efb677","019ceff9-9f67-7034-9722-02cda2445e09","","1819","
                <div class=""stimulus-container"">
                    <img src=""images/schematic_sequence/supermarket_scheme/supermarket_scheme_2.png"" class=""exp-image"">
                    <div class=""question-area"">
                        <p style=""font-size: 20px; font-weight: bold; margin: 0;"">Is there a person in this image?</p>
                    </div>
                </div>","1","main_experiment_trial","2","supermarket_scheme","schematic_sequence","","","","",""
"","","","","","html-keyboard-response","168","562163","0.0-168.0","37D2277BFA854B588336510E8A720AC1","019cf05f-1bdb-70e5-b9fc-f23dd7efb677","019ceff9-9f67-7034-9722-02cda2445e09","","null","
                <div class=""stimulus-container"">
                    <img src=""images/schematic_sequence/supermarket_scheme/supermarket_scheme_3.png"" class=""exp-image"">
                    <div class=""question-area""></div> 
                </div>","null","","","","","","","","",""
"","","","","","html-button-response","169","563816","0.0-169.0","37D2277BFA854B588336510E8A720AC1","019cf05f-1bdb-70e5-b9fc-f23dd7efb677","019ceff9-9f67-7034-9722-02cda2445e09","","1652","
                <div class=""stimulus-container"">
                    <img src=""images/schematic_sequence/supermarket_scheme/supermarket_scheme_3.png"" class=""exp-image"">
                    <div class=""question-area"">
                        <p style=""font-size: 20px; font-weight: bold; margin: 0;"">Is there a person in this image?</p>
                    </div>
                </div>","1","main_experiment_trial","3","supermarket_scheme","schematic_sequence","","","","",""
"","","","","","html-keyboard-response","170","568832","0.0-170.0","37D2277BFA854B588336510E8A720AC1","019cf05f-1bdb-70e5-b9fc-f23dd7efb677","019ceff9-9f67-7034-9722-02cda2445e09","","null","
                <div class=""stimulus-container"">
                    <img src=""images/schematic_sequence/supermarket_scheme/supermarket_scheme_4.png"" class=""exp-image"">
                    <div class=""question-area""></div> 
                </div>","null","","","","","","","","",""
"","","","","","html-button-response","171","570024","0.0-171.0","37D2277BFA854B588336510E8A720AC1","019cf05f-1bdb-70e5-b9fc-f23dd7efb677","019ceff9-9f67-7034-9722-02cda2445e09","","1191","
                <div class=""stimulus-container"">
                    <img src=""images/schematic_sequence/supermarket_scheme/supermarket_scheme_4.png"" class=""exp-image"">
                    <div class=""question-area"">
                        <p style=""font-size: 20px; font-weight: bold; margin: 0;"">Is there a person in this image?</p>
                    </div>
                </div>","0","main_experiment_trial","4","supermarket_scheme","schematic_sequence","","","","",""
"","","","","","html-keyboard-response","172","575037","0.0-172.0","37D2277BFA854B588336510E8A720AC1","019cf05f-1bdb-70e5-b9fc-f23dd7efb677","019ceff9-9f67-7034-9722-02cda2445e09","","null","
                <div class=""stimulus-container"">
                    <img src=""images/schematic_sequence/supermarket_scheme/supermarket_scheme_5.png"" class=""exp-image"">
                    <div class=""question-area""></div> 
                </div>","null","","","","","","","","",""
"","","","","","html-button-response","173","576441","0.0-173.0","37D2277BFA854B588336510E8A720AC1","019cf05f-1bdb-70e5-b9fc-f23dd7efb677","019ceff9-9f67-7034-9722-02cda2445e09","","1402","
                <div class=""stimulus-container"">
                    <img src=""images/schematic_sequence/supermarket_scheme/supermarket_scheme_5.png"" class=""exp-image"">
                    <div class=""question-area"">
                        <p style=""font-size: 20px; font-weight: bold; margin: 0;"">Is there a person in this image?</p>
                    </div>
                </div>","1","main_experiment_trial","5","supermarket_scheme","schematic_sequence","","","","",""
"","","","","","html-keyboard-response","174","581450","0.0-174.0","37D2277BFA854B588336510E8A720AC1","019cf05f-1bdb-70e5-b9fc-f23dd7efb677","019ceff9-9f67-7034-9722-02cda2445e09","","null","
                <div class=""stimulus-container"">
                    <img src=""images/schematic_sequence/supermarket_scheme/supermarket_scheme_6.png"" class=""exp-image"">
                    <div class=""question-area""></div> 
                </div>","null","","","","","","","","",""
"","","","","","html-button-response","175","583897","0.0-175.0","37D2277BFA854B588336510E8A720AC1","019cf05f-1bdb-70e5-b9fc-f23dd7efb677","019ceff9-9f67-7034-9722-02cda2445e09","","2446","
                <div class=""stimulus-container"">
                    <img src=""images/schematic_sequence/supermarket_scheme/supermarket_scheme_6.png"" class=""exp-image"">
                    <div class=""question-area"">
                        <p style=""font-size: 20px; font-weight: bold; margin: 0;"">Is there a person in this image?</p>
                    </div>
                </div>","0","main_experiment_trial","6","supermarket_scheme","schematic_sequence","","","","",""
"","","","","","html-keyboard-response","176","588915","0.0-176.0","37D2277BFA854B588336510E8A720AC1","019cf05f-1bdb-70e5-b9fc-f23dd7efb677","019ceff9-9f67-7034-9722-02cda2445e09","","null","
                <div class=""stimulus-container"">
                    <img src=""images/schematic_sequence/supermarket_scheme/supermarket_scheme_7.png"" class=""exp-image"">
                    <div class=""question-area""></div> 
                </div>","null","","","","","","","","",""
"","","","","","html-button-response","177","589795","0.0-177.0","37D2277BFA854B588336510E8A720AC1","019cf05f-1bdb-70e5-b9fc-f23dd7efb677","019ceff9-9f67-7034-9722-02cda2445e09","","878","
                <div class=""stimulus-container"">
                    <img src=""images/schematic_sequence/supermarket_scheme/supermarket_scheme_7.png"" class=""exp-image"">
                    <div class=""question-area"">
                        <p style=""font-size: 20px; font-weight: bold; margin: 0;"">Is there a person in this image?</p>
                    </div>
                </div>","0","main_experiment_trial","7","supermarket_scheme","schematic_sequence","","","","",""
"","","","","","html-keyboard-response","178","594799","0.0-178.0","37D2277BFA854B588336510E8A720AC1","019cf05f-1bdb-70e5-b9fc-f23dd7efb677","019ceff9-9f67-7034-9722-02cda2445e09","","null","
                <div class=""stimulus-container"">
                    <img src=""images/schematic_sequence/supermarket_scheme/supermarket_scheme_8.png"" class=""exp-image"">
                    <div class=""question-area""></div> 
                </div>","null","","","","","","","","",""
"","","","","","html-button-response","179","596692","0.0-179.0","37D2277BFA854B588336510E8A720AC1","019cf05f-1bdb-70e5-b9fc-f23dd7efb677","019ceff9-9f67-7034-9722-02cda2445e09","","1892","
                <div class=""stimulus-container"">
                    <img src=""images/schematic_sequence/supermarket_scheme/supermarket_scheme_8.png"" class=""exp-image"">
                    <div class=""question-area"">
                        <p style=""font-size: 20px; font-weight: bold; margin: 0;"">Is there a person in this image?</p>
                    </div>
                </div>","0","main_experiment_trial","8","supermarket_scheme","schematic_sequence","","","","",""
"","","","","","html-keyboard-response","180","601700","0.0-180.0","37D2277BFA854B588336510E8A720AC1","019cf05f-1bdb-70e5-b9fc-f23dd7efb677","019ceff9-9f67-7034-9722-02cda2445e09","","null","
                <div class=""stimulus-container"">
                    <img src=""images/schematic_sequence/supermarket_scheme/supermarket_scheme_9.png"" class=""exp-image"">
                    <div class=""question-area""></div> 
                </div>","null","","","","","","","","",""
"","","","","","html-button-response","181","602563","0.0-181.0","37D2277BFA854B588336510E8A720AC1","019cf05f-1bdb-70e5-b9fc-f23dd7efb677","019ceff9-9f67-7034-9722-02cda2445e09","","861","
                <div class=""stimulus-container"">
                    <img src=""images/schematic_sequence/supermarket_scheme/supermarket_scheme_9.png"" class=""exp-image"">
                    <div class=""question-area"">
                        <p style=""font-size: 20px; font-weight: bold; margin: 0;"">Is there a person in this image?</p>
                    </div>
                </div>","0","main_experiment_trial","9","supermarket_scheme","schematic_sequence","","","","",""
"","","","","","html-keyboard-response","182","607573","0.0-182.0","37D2277BFA854B588336510E8A720AC1","019cf05f-1bdb-70e5-b9fc-f23dd7efb677","019ceff9-9f67-7034-9722-02cda2445e09","","null","
                <div class=""stimulus-container"">
                    <img src=""images/schematic_sequence/supermarket_scheme/supermarket_scheme_ten.png"" class=""exp-image"">
                    <div class=""question-area""></div> 
                </div>","null","","","","","","","","",""
"","","","","","html-button-response","183","609148","0.0-183.0","37D2277BFA854B588336510E8A720AC1","019cf05f-1bdb-70e5-b9fc-f23dd7efb677","019ceff9-9f67-7034-9722-02cda2445e09","","1573","
                <div class=""stimulus-container"">
                    <img src=""images/schematic_sequence/supermarket_scheme/supermarket_scheme_ten.png"" class=""exp-image"">
                    <div class=""question-area"">
                        <p style=""font-size: 20px; font-weight: bold; margin: 0;"">Is there a person in this image?</p>
                    </div>
                </div>","1","main_experiment_trial","ten","supermarket_scheme","schematic_sequence","","","","",""
