"success","timeout","failed_images","failed_audio","failed_video","trial_type","trial_index","time_elapsed","internal_node_id","subject_id","study_id","session_id","view_history","rt","stimulus","response","task","image_index","folder","sequence_type","valuable_image_index","reward_type","correct_choice","chosen_image_index","target_X"
"true","false","[]","[]","[]","preload","0","7895","0.0-0.0","279C6736060D4CFFB2EB114EC800B71F","019cf706-e610-727f-a01f-f8858cb8bd18","019cf6fe-235e-7d95-bb9b-b011d2fe188e","","","","","","","","","","","","",""
"","","","","","instructions","1","10839","0.0-1.0","279C6736060D4CFFB2EB114EC800B71F","019cf706-e610-727f-a01f-f8858cb8bd18","019cf6fe-235e-7d95-bb9b-b011d2fe188e","[{""page_index"":0,""viewing_time"":2942}]","2942","","","","","","","","","","",""
"","","","","","instructions","2","17195","0.0-2.0","279C6736060D4CFFB2EB114EC800B71F","019cf706-e610-727f-a01f-f8858cb8bd18","019cf6fe-235e-7d95-bb9b-b011d2fe188e","[{""page_index"":0,""viewing_time"":6355}]","6355","","","","","","","","","","",""
"true","","","","","fullscreen","3","19720","0.0-3.0","279C6736060D4CFFB2EB114EC800B71F","019cf706-e610-727f-a01f-f8858cb8bd18","019cf6fe-235e-7d95-bb9b-b011d2fe188e","","1522","","","","","","","","","","",""
"","","","","","instructions","4","27225","0.0-4.0","279C6736060D4CFFB2EB114EC800B71F","019cf706-e610-727f-a01f-f8858cb8bd18","019cf6fe-235e-7d95-bb9b-b011d2fe188e","[{""page_index"":0,""viewing_time"":7503}]","7504","","","","","","","","","","",""
"","","","","","instructions","5","33197","0.0-5.0","279C6736060D4CFFB2EB114EC800B71F","019cf706-e610-727f-a01f-f8858cb8bd18","019cf6fe-235e-7d95-bb9b-b011d2fe188e","[{""page_index"":0,""viewing_time"":5972}]","5972","","","","","","","","","","",""
"","","","","","html-keyboard-response","6","37199","0.0-6.0","279C6736060D4CFFB2EB114EC800B71F","019cf706-e610-727f-a01f-f8858cb8bd18","019cf6fe-235e-7d95-bb9b-b011d2fe188e","","null","
                <div class=""stimulus-container"">
                    <img src=""images/instructions/movie_1.png"" class=""exp-image"">
                    <div class=""question-area""></div> 
                </div>","null","","","","","","","","",""
"","","","","","html-button-response","7","40201","0.0-7.0","279C6736060D4CFFB2EB114EC800B71F","019cf706-e610-727f-a01f-f8858cb8bd18","019cf6fe-235e-7d95-bb9b-b011d2fe188e","","null","
                <div class=""stimulus-container"">
                    <img src=""images/instructions/movie_1.png"" class=""exp-image"">
                    <div class=""question-area"">
                        <p style=""font-size: 20px; font-weight: bold; margin: 0;"">Was there a person in this image?</p>
                    </div>
                </div>","null","example_question","1","","","","","","",""
"","","","","","html-keyboard-response","8","44203","0.0-8.0","279C6736060D4CFFB2EB114EC800B71F","019cf706-e610-727f-a01f-f8858cb8bd18","019cf6fe-235e-7d95-bb9b-b011d2fe188e","","null","
                <div class=""stimulus-container"">
                    <img src=""images/instructions/movie_2.png"" class=""exp-image"">
                    <div class=""question-area""></div> 
                </div>","null","","","","","","","","",""
"","","","","","html-button-response","9","46421","0.0-9.0","279C6736060D4CFFB2EB114EC800B71F","019cf706-e610-727f-a01f-f8858cb8bd18","019cf6fe-235e-7d95-bb9b-b011d2fe188e","","2216","
                <div class=""stimulus-container"">
                    <img src=""images/instructions/movie_2.png"" class=""exp-image"">
                    <div class=""question-area"">
                        <p style=""font-size: 20px; font-weight: bold; margin: 0;"">Was there a person in this image?</p>
                    </div>
                </div>","1","example_question","2","","","","","","",""
"","","","","","html-keyboard-response","10","50422","0.0-10.0","279C6736060D4CFFB2EB114EC800B71F","019cf706-e610-727f-a01f-f8858cb8bd18","019cf6fe-235e-7d95-bb9b-b011d2fe188e","","null","
                <div class=""stimulus-container"">
                    <img src=""images/instructions/movie_3.png"" class=""exp-image"">
                    <div class=""question-area""></div> 
                </div>","null","","","","","","","","",""
"","","","","","html-button-response","11","51819","0.0-11.0","279C6736060D4CFFB2EB114EC800B71F","019cf706-e610-727f-a01f-f8858cb8bd18","019cf6fe-235e-7d95-bb9b-b011d2fe188e","","1395","
                <div class=""stimulus-container"">
                    <img src=""images/instructions/movie_3.png"" class=""exp-image"">
                    <div class=""question-area"">
                        <p style=""font-size: 20px; font-weight: bold; margin: 0;"">Was there a person in this image?</p>
                    </div>
                </div>","0","example_question","3","","","","","","",""
"","","","","","html-keyboard-response","12","55820","0.0-12.0","279C6736060D4CFFB2EB114EC800B71F","019cf706-e610-727f-a01f-f8858cb8bd18","019cf6fe-235e-7d95-bb9b-b011d2fe188e","","null","
                <div class=""stimulus-container"">
                    <img src=""images/instructions/movie_4.png"" class=""exp-image"">
                    <div class=""question-area""></div> 
                </div>","null","","","","","","","","",""
"","","","","","html-button-response","13","57783","0.0-13.0","279C6736060D4CFFB2EB114EC800B71F","019cf706-e610-727f-a01f-f8858cb8bd18","019cf6fe-235e-7d95-bb9b-b011d2fe188e","","1962","
                <div class=""stimulus-container"">
                    <img src=""images/instructions/movie_4.png"" class=""exp-image"">
                    <div class=""question-area"">
                        <p style=""font-size: 20px; font-weight: bold; margin: 0;"">Was there a person in this image?</p>
                    </div>
                </div>","0","example_question","4","","","","","","",""
"","","","","","instructions","14","60235","0.0-14.0","279C6736060D4CFFB2EB114EC800B71F","019cf706-e610-727f-a01f-f8858cb8bd18","019cf6fe-235e-7d95-bb9b-b011d2fe188e","[{""page_index"":0,""viewing_time"":2451}]","2451","","","","","","","","","","",""
"","","","","","instructions","15","63231","0.0-15.0","279C6736060D4CFFB2EB114EC800B71F","019cf706-e610-727f-a01f-f8858cb8bd18","019cf6fe-235e-7d95-bb9b-b011d2fe188e","[{""page_index"":0,""viewing_time"":2996}]","2996","","","","","","","","","","",""
"","","","","","html-keyboard-response","16","64233","0.0-16.0","279C6736060D4CFFB2EB114EC800B71F","019cf706-e610-727f-a01f-f8858cb8bd18","019cf6fe-235e-7d95-bb9b-b011d2fe188e","","null","<div style=""background-color: white; width: 100vw; height: 100vh;""></div>","null","","","","","","","","",""
"","","","","","html-keyboard-response","17","69234","0.0-17.0","279C6736060D4CFFB2EB114EC800B71F","019cf706-e610-727f-a01f-f8858cb8bd18","019cf6fe-235e-7d95-bb9b-b011d2fe188e","","null","
                <div class=""stimulus-container"">
                    <img src=""images/causal_sequence/dog_causal/dog_causal_1.png"" class=""exp-image"">
                    <div class=""question-area""></div> 
                </div>","null","","","","","","","","",""
"","","","","","html-button-response","18","71064","0.0-18.0","279C6736060D4CFFB2EB114EC800B71F","019cf706-e610-727f-a01f-f8858cb8bd18","019cf6fe-235e-7d95-bb9b-b011d2fe188e","","1828","
                <div class=""stimulus-container"">
                    <img src=""images/causal_sequence/dog_causal/dog_causal_1.png"" class=""exp-image"">
                    <div class=""question-area"">
                        <p style=""font-size: 20px; font-weight: bold; margin: 0;"">Is there a person in this image?</p>
                    </div>
                </div>","0","main_experiment_trial","1","dog_causal","causal_sequence","","","","",""
"","","","","","html-keyboard-response","19","76065","0.0-19.0","279C6736060D4CFFB2EB114EC800B71F","019cf706-e610-727f-a01f-f8858cb8bd18","019cf6fe-235e-7d95-bb9b-b011d2fe188e","","null","
                <div class=""stimulus-container"">
                    <img src=""images/causal_sequence/dog_causal/dog_causal_2.png"" class=""exp-image"">
                    <div class=""question-area""></div> 
                </div>","null","","","","","","","","",""
"","","","","","html-button-response","20","79066","0.0-20.0","279C6736060D4CFFB2EB114EC800B71F","019cf706-e610-727f-a01f-f8858cb8bd18","019cf6fe-235e-7d95-bb9b-b011d2fe188e","","null","
                <div class=""stimulus-container"">
                    <img src=""images/causal_sequence/dog_causal/dog_causal_2.png"" class=""exp-image"">
                    <div class=""question-area"">
                        <p style=""font-size: 20px; font-weight: bold; margin: 0;"">Is there a person in this image?</p>
                    </div>
                </div>","null","main_experiment_trial","2","dog_causal","causal_sequence","","","","",""
"","","","","","html-keyboard-response","21","84067","0.0-21.0","279C6736060D4CFFB2EB114EC800B71F","019cf706-e610-727f-a01f-f8858cb8bd18","019cf6fe-235e-7d95-bb9b-b011d2fe188e","","null","
                <div class=""stimulus-container"">
                    <img src=""images/causal_sequence/dog_causal/dog_causal_3.png"" class=""exp-image"">
                    <div class=""question-area""></div> 
                </div>","null","","","","","","","","",""
"","","","","","html-button-response","22","85005","0.0-22.0","279C6736060D4CFFB2EB114EC800B71F","019cf706-e610-727f-a01f-f8858cb8bd18","019cf6fe-235e-7d95-bb9b-b011d2fe188e","","937","
                <div class=""stimulus-container"">
                    <img src=""images/causal_sequence/dog_causal/dog_causal_3.png"" class=""exp-image"">
                    <div class=""question-area"">
                        <p style=""font-size: 20px; font-weight: bold; margin: 0;"">Is there a person in this image?</p>
                    </div>
                </div>","0","main_experiment_trial","3","dog_causal","causal_sequence","","","","",""
"","","","","","html-keyboard-response","23","90007","0.0-23.0","279C6736060D4CFFB2EB114EC800B71F","019cf706-e610-727f-a01f-f8858cb8bd18","019cf6fe-235e-7d95-bb9b-b011d2fe188e","","null","
                <div class=""stimulus-container"">
                    <img src=""images/causal_sequence/dog_causal/dog_causal_4.png"" class=""exp-image"">
                    <div class=""question-area""></div> 
                </div>","null","","","","","","","","",""
"","","","","","html-button-response","24","91414","0.0-24.0","279C6736060D4CFFB2EB114EC800B71F","019cf706-e610-727f-a01f-f8858cb8bd18","019cf6fe-235e-7d95-bb9b-b011d2fe188e","","1406","
                <div class=""stimulus-container"">
                    <img src=""images/causal_sequence/dog_causal/dog_causal_4.png"" class=""exp-image"">
                    <div class=""question-area"">
                        <p style=""font-size: 20px; font-weight: bold; margin: 0;"">Is there a person in this image?</p>
                    </div>
                </div>","0","main_experiment_trial","4","dog_causal","causal_sequence","","","","",""
"","","","","","html-keyboard-response","25","96415","0.0-25.0","279C6736060D4CFFB2EB114EC800B71F","019cf706-e610-727f-a01f-f8858cb8bd18","019cf6fe-235e-7d95-bb9b-b011d2fe188e","","null","
                <div class=""stimulus-container"">
                    <img src=""images/causal_sequence/dog_causal/dog_causal_5.png"" class=""exp-image"">
                    <div class=""question-area""></div> 
                </div>","null","","","","","","","","",""
"","","","","","html-button-response","26","97842","0.0-26.0","279C6736060D4CFFB2EB114EC800B71F","019cf706-e610-727f-a01f-f8858cb8bd18","019cf6fe-235e-7d95-bb9b-b011d2fe188e","","1425","
                <div class=""stimulus-container"">
                    <img src=""images/causal_sequence/dog_causal/dog_causal_5.png"" class=""exp-image"">
                    <div class=""question-area"">
                        <p style=""font-size: 20px; font-weight: bold; margin: 0;"">Is there a person in this image?</p>
                    </div>
                </div>","0","main_experiment_trial","5","dog_causal","causal_sequence","","","","",""
"","","","","","html-keyboard-response","27","102843","0.0-27.0","279C6736060D4CFFB2EB114EC800B71F","019cf706-e610-727f-a01f-f8858cb8bd18","019cf6fe-235e-7d95-bb9b-b011d2fe188e","","null","
                <div class=""stimulus-container"">
                    <img src=""images/causal_sequence/dog_causal/dog_causal_6.png"" class=""exp-image"">
                    <div class=""question-area""></div> 
                </div>","null","","","","","","","","",""
"","","","","","html-button-response","28","104871","0.0-28.0","279C6736060D4CFFB2EB114EC800B71F","019cf706-e610-727f-a01f-f8858cb8bd18","019cf6fe-235e-7d95-bb9b-b011d2fe188e","","2026","
                <div class=""stimulus-container"">
                    <img src=""images/causal_sequence/dog_causal/dog_causal_6.png"" class=""exp-image"">
                    <div class=""question-area"">
                        <p style=""font-size: 20px; font-weight: bold; margin: 0;"">Is there a person in this image?</p>
                    </div>
                </div>","0","main_experiment_trial","6","dog_causal","causal_sequence","","","","",""
"","","","","","html-keyboard-response","29","109872","0.0-29.0","279C6736060D4CFFB2EB114EC800B71F","019cf706-e610-727f-a01f-f8858cb8bd18","019cf6fe-235e-7d95-bb9b-b011d2fe188e","","null","
                <div class=""stimulus-container"">
                    <img src=""images/causal_sequence/dog_causal/dog_causal_7.png"" class=""exp-image"">
                    <div class=""question-area""></div> 
                </div>","null","","","","","","","","",""
"","","","","","html-button-response","30","112873","0.0-30.0","279C6736060D4CFFB2EB114EC800B71F","019cf706-e610-727f-a01f-f8858cb8bd18","019cf6fe-235e-7d95-bb9b-b011d2fe188e","","null","
                <div class=""stimulus-container"">
                    <img src=""images/causal_sequence/dog_causal/dog_causal_7.png"" class=""exp-image"">
                    <div class=""question-area"">
                        <p style=""font-size: 20px; font-weight: bold; margin: 0;"">Is there a person in this image?</p>
                    </div>
                </div>","null","main_experiment_trial","7","dog_causal","causal_sequence","","","","",""
"","","","","","html-keyboard-response","31","117875","0.0-31.0","279C6736060D4CFFB2EB114EC800B71F","019cf706-e610-727f-a01f-f8858cb8bd18","019cf6fe-235e-7d95-bb9b-b011d2fe188e","","null","
                <div class=""stimulus-container"">
                    <img src=""images/causal_sequence/dog_causal/dog_causal_8.png"" class=""exp-image"">
                    <div class=""question-area""></div> 
                </div>","null","","","","","","","","",""
"","","","","","html-button-response","32","119978","0.0-32.0","279C6736060D4CFFB2EB114EC800B71F","019cf706-e610-727f-a01f-f8858cb8bd18","019cf6fe-235e-7d95-bb9b-b011d2fe188e","","2103","
                <div class=""stimulus-container"">
                    <img src=""images/causal_sequence/dog_causal/dog_causal_8.png"" class=""exp-image"">
                    <div class=""question-area"">
                        <p style=""font-size: 20px; font-weight: bold; margin: 0;"">Is there a person in this image?</p>
                    </div>
                </div>","0","main_experiment_trial","8","dog_causal","causal_sequence","","","","",""
"","","","","","html-keyboard-response","33","124980","0.0-33.0","279C6736060D4CFFB2EB114EC800B71F","019cf706-e610-727f-a01f-f8858cb8bd18","019cf6fe-235e-7d95-bb9b-b011d2fe188e","","null","
                <div class=""stimulus-container"">
                    <img src=""images/causal_sequence/dog_causal/dog_causal_9.png"" class=""exp-image"">
                    <div class=""question-area""></div> 
                </div>","null","","","","","","","","",""
"","","","","","html-button-response","34","125970","0.0-34.0","279C6736060D4CFFB2EB114EC800B71F","019cf706-e610-727f-a01f-f8858cb8bd18","019cf6fe-235e-7d95-bb9b-b011d2fe188e","","989","
                <div class=""stimulus-container"">
                    <img src=""images/causal_sequence/dog_causal/dog_causal_9.png"" class=""exp-image"">
                    <div class=""question-area"">
                        <p style=""font-size: 20px; font-weight: bold; margin: 0;"">Is there a person in this image?</p>
                    </div>
                </div>","0","main_experiment_trial","9","dog_causal","causal_sequence","","","","",""
"","","","","","html-keyboard-response","35","130972","0.0-35.0","279C6736060D4CFFB2EB114EC800B71F","019cf706-e610-727f-a01f-f8858cb8bd18","019cf6fe-235e-7d95-bb9b-b011d2fe188e","","null","
                <div class=""stimulus-container"">
                    <img src=""images/causal_sequence/dog_causal/dog_causal_ten.png"" class=""exp-image"">
                    <div class=""question-area""></div> 
                </div>","null","","","","","","","","",""
"","","","","","html-button-response","36","133973","0.0-36.0","279C6736060D4CFFB2EB114EC800B71F","019cf706-e610-727f-a01f-f8858cb8bd18","019cf6fe-235e-7d95-bb9b-b011d2fe188e","","null","
                <div class=""stimulus-container"">
                    <img src=""images/causal_sequence/dog_causal/dog_causal_ten.png"" class=""exp-image"">
                    <div class=""question-area"">
                        <p style=""font-size: 20px; font-weight: bold; margin: 0;"">Is there a person in this image?</p>
                    </div>
                </div>","null","main_experiment_trial","ten","dog_causal","causal_sequence","","","","",""
"","","","","","html-keyboard-response","37","134974","0.0-37.0","279C6736060D4CFFB2EB114EC800B71F","019cf706-e610-727f-a01f-f8858cb8bd18","019cf6fe-235e-7d95-bb9b-b011d2fe188e","","null","<div style=""background-color: white; width: 100vw; height: 100vh;""></div>","null","","","","","","","","",""
"","","","","","html-keyboard-response","38","139975","0.0-38.0","279C6736060D4CFFB2EB114EC800B71F","019cf706-e610-727f-a01f-f8858cb8bd18","019cf6fe-235e-7d95-bb9b-b011d2fe188e","","null","
                <div class=""stimulus-container"">
                    <img src=""images/causal_sequence/museum_causal/museum_causal_1.png"" class=""exp-image"">
                    <div class=""question-area""></div> 
                </div>","null","","","","","","","","",""
"","","","","","html-button-response","39","142921","0.0-39.0","279C6736060D4CFFB2EB114EC800B71F","019cf706-e610-727f-a01f-f8858cb8bd18","019cf6fe-235e-7d95-bb9b-b011d2fe188e","","2944","
                <div class=""stimulus-container"">
                    <img src=""images/causal_sequence/museum_causal/museum_causal_1.png"" class=""exp-image"">
                    <div class=""question-area"">
                        <p style=""font-size: 20px; font-weight: bold; margin: 0;"">Is there a person in this image?</p>
                    </div>
                </div>","0","main_experiment_trial","1","museum_causal","causal_sequence","","","","",""
"","","","","","html-keyboard-response","40","147922","0.0-40.0","279C6736060D4CFFB2EB114EC800B71F","019cf706-e610-727f-a01f-f8858cb8bd18","019cf6fe-235e-7d95-bb9b-b011d2fe188e","","null","
                <div class=""stimulus-container"">
                    <img src=""images/causal_sequence/museum_causal/museum_causal_2.png"" class=""exp-image"">
                    <div class=""question-area""></div> 
                </div>","null","","","","","","","","",""
"","","","","","html-button-response","41","148558","0.0-41.0","279C6736060D4CFFB2EB114EC800B71F","019cf706-e610-727f-a01f-f8858cb8bd18","019cf6fe-235e-7d95-bb9b-b011d2fe188e","","635","
                <div class=""stimulus-container"">
                    <img src=""images/causal_sequence/museum_causal/museum_causal_2.png"" class=""exp-image"">
                    <div class=""question-area"">
                        <p style=""font-size: 20px; font-weight: bold; margin: 0;"">Is there a person in this image?</p>
                    </div>
                </div>","0","main_experiment_trial","2","museum_causal","causal_sequence","","","","",""
"","","","","","html-keyboard-response","42","153559","0.0-42.0","279C6736060D4CFFB2EB114EC800B71F","019cf706-e610-727f-a01f-f8858cb8bd18","019cf6fe-235e-7d95-bb9b-b011d2fe188e","","null","
                <div class=""stimulus-container"">
                    <img src=""images/causal_sequence/museum_causal/museum_causal_3.png"" class=""exp-image"">
                    <div class=""question-area""></div> 
                </div>","null","","","","","","","","",""
"","","","","","html-button-response","43","156560","0.0-43.0","279C6736060D4CFFB2EB114EC800B71F","019cf706-e610-727f-a01f-f8858cb8bd18","019cf6fe-235e-7d95-bb9b-b011d2fe188e","","null","
                <div class=""stimulus-container"">
                    <img src=""images/causal_sequence/museum_causal/museum_causal_3.png"" class=""exp-image"">
                    <div class=""question-area"">
                        <p style=""font-size: 20px; font-weight: bold; margin: 0;"">Is there a person in this image?</p>
                    </div>
                </div>","null","main_experiment_trial","3","museum_causal","causal_sequence","","","","",""
"","","","","","html-keyboard-response","44","161562","0.0-44.0","279C6736060D4CFFB2EB114EC800B71F","019cf706-e610-727f-a01f-f8858cb8bd18","019cf6fe-235e-7d95-bb9b-b011d2fe188e","","null","
                <div class=""stimulus-container"">
                    <img src=""images/causal_sequence/museum_causal/museum_causal_4.png"" class=""exp-image"">
                    <div class=""question-area""></div> 
                </div>","null","","","","","","","","",""
"","","","","","html-button-response","45","162670","0.0-45.0","279C6736060D4CFFB2EB114EC800B71F","019cf706-e610-727f-a01f-f8858cb8bd18","019cf6fe-235e-7d95-bb9b-b011d2fe188e","","1107","
                <div class=""stimulus-container"">
                    <img src=""images/causal_sequence/museum_causal/museum_causal_4.png"" class=""exp-image"">
                    <div class=""question-area"">
                        <p style=""font-size: 20px; font-weight: bold; margin: 0;"">Is there a person in this image?</p>
                    </div>
                </div>","0","main_experiment_trial","4","museum_causal","causal_sequence","","","","",""
"","","","","","html-keyboard-response","46","167671","0.0-46.0","279C6736060D4CFFB2EB114EC800B71F","019cf706-e610-727f-a01f-f8858cb8bd18","019cf6fe-235e-7d95-bb9b-b011d2fe188e","","null","
                <div class=""stimulus-container"">
                    <img src=""images/causal_sequence/museum_causal/museum_causal_5.png"" class=""exp-image"">
                    <div class=""question-area""></div> 
                </div>","null","","","","","","","","",""
"","","","","","html-button-response","47","170673","0.0-47.0","279C6736060D4CFFB2EB114EC800B71F","019cf706-e610-727f-a01f-f8858cb8bd18","019cf6fe-235e-7d95-bb9b-b011d2fe188e","","null","
                <div class=""stimulus-container"">
                    <img src=""images/causal_sequence/museum_causal/museum_causal_5.png"" class=""exp-image"">
                    <div class=""question-area"">
                        <p style=""font-size: 20px; font-weight: bold; margin: 0;"">Is there a person in this image?</p>
                    </div>
                </div>","null","main_experiment_trial","5","museum_causal","causal_sequence","","","","",""
"","","","","","html-keyboard-response","48","175675","0.0-48.0","279C6736060D4CFFB2EB114EC800B71F","019cf706-e610-727f-a01f-f8858cb8bd18","019cf6fe-235e-7d95-bb9b-b011d2fe188e","","null","
                <div class=""stimulus-container"">
                    <img src=""images/causal_sequence/museum_causal/museum_causal_6.png"" class=""exp-image"">
                    <div class=""question-area""></div> 
                </div>","null","","","","","","","","",""
"","","","","","html-button-response","49","177336","0.0-49.0","279C6736060D4CFFB2EB114EC800B71F","019cf706-e610-727f-a01f-f8858cb8bd18","019cf6fe-235e-7d95-bb9b-b011d2fe188e","","1660","
                <div class=""stimulus-container"">
                    <img src=""images/causal_sequence/museum_causal/museum_causal_6.png"" class=""exp-image"">
                    <div class=""question-area"">
                        <p style=""font-size: 20px; font-weight: bold; margin: 0;"">Is there a person in this image?</p>
                    </div>
                </div>","0","main_experiment_trial","6","museum_causal","causal_sequence","","","","",""
"","","","","","html-keyboard-response","50","182337","0.0-50.0","279C6736060D4CFFB2EB114EC800B71F","019cf706-e610-727f-a01f-f8858cb8bd18","019cf6fe-235e-7d95-bb9b-b011d2fe188e","","null","
                <div class=""stimulus-container"">
                    <img src=""images/causal_sequence/museum_causal/museum_causal_7.png"" class=""exp-image"">
                    <div class=""question-area""></div> 
                </div>","null","","","","","","","","",""
"","","","","","html-button-response","51","183278","0.0-51.0","279C6736060D4CFFB2EB114EC800B71F","019cf706-e610-727f-a01f-f8858cb8bd18","019cf6fe-235e-7d95-bb9b-b011d2fe188e","","939","
                <div class=""stimulus-container"">
                    <img src=""images/causal_sequence/museum_causal/museum_causal_7.png"" class=""exp-image"">
                    <div class=""question-area"">
                        <p style=""font-size: 20px; font-weight: bold; margin: 0;"">Is there a person in this image?</p>
                    </div>
                </div>","0","main_experiment_trial","7","museum_causal","causal_sequence","","","","",""
"","","","","","html-keyboard-response","52","188279","0.0-52.0","279C6736060D4CFFB2EB114EC800B71F","019cf706-e610-727f-a01f-f8858cb8bd18","019cf6fe-235e-7d95-bb9b-b011d2fe188e","","null","
                <div class=""stimulus-container"">
                    <img src=""images/causal_sequence/museum_causal/museum_causal_8.png"" class=""exp-image"">
                    <div class=""question-area""></div> 
                </div>","null","","","","","","","","",""
"","","","","","html-button-response","53","188944","0.0-53.0","279C6736060D4CFFB2EB114EC800B71F","019cf706-e610-727f-a01f-f8858cb8bd18","019cf6fe-235e-7d95-bb9b-b011d2fe188e","","663","
                <div class=""stimulus-container"">
                    <img src=""images/causal_sequence/museum_causal/museum_causal_8.png"" class=""exp-image"">
                    <div class=""question-area"">
                        <p style=""font-size: 20px; font-weight: bold; margin: 0;"">Is there a person in this image?</p>
                    </div>
                </div>","0","main_experiment_trial","8","museum_causal","causal_sequence","","","","",""
"","","","","","html-keyboard-response","54","193945","0.0-54.0","279C6736060D4CFFB2EB114EC800B71F","019cf706-e610-727f-a01f-f8858cb8bd18","019cf6fe-235e-7d95-bb9b-b011d2fe188e","","null","
                <div class=""stimulus-container"">
                    <img src=""images/causal_sequence/museum_causal/museum_causal_9.png"" class=""exp-image"">
                    <div class=""question-area""></div> 
                </div>","null","","","","","","","","",""
"","","","","","html-button-response","55","195193","0.0-55.0","279C6736060D4CFFB2EB114EC800B71F","019cf706-e610-727f-a01f-f8858cb8bd18","019cf6fe-235e-7d95-bb9b-b011d2fe188e","","1246","
                <div class=""stimulus-container"">
                    <img src=""images/causal_sequence/museum_causal/museum_causal_9.png"" class=""exp-image"">
                    <div class=""question-area"">
                        <p style=""font-size: 20px; font-weight: bold; margin: 0;"">Is there a person in this image?</p>
                    </div>
                </div>","0","main_experiment_trial","9","museum_causal","causal_sequence","","","","",""
"","","","","","html-keyboard-response","56","200194","0.0-56.0","279C6736060D4CFFB2EB114EC800B71F","019cf706-e610-727f-a01f-f8858cb8bd18","019cf6fe-235e-7d95-bb9b-b011d2fe188e","","null","
                <div class=""stimulus-container"">
                    <img src=""images/causal_sequence/museum_causal/museum_causal_ten.png"" class=""exp-image"">
                    <div class=""question-area""></div> 
                </div>","null","","","","","","","","",""
"","","","","","html-button-response","57","201474","0.0-57.0","279C6736060D4CFFB2EB114EC800B71F","019cf706-e610-727f-a01f-f8858cb8bd18","019cf6fe-235e-7d95-bb9b-b011d2fe188e","","1278","
                <div class=""stimulus-container"">
                    <img src=""images/causal_sequence/museum_causal/museum_causal_ten.png"" class=""exp-image"">
                    <div class=""question-area"">
                        <p style=""font-size: 20px; font-weight: bold; margin: 0;"">Is there a person in this image?</p>
                    </div>
                </div>","0","main_experiment_trial","ten","museum_causal","causal_sequence","","","","",""
"","","","","","html-keyboard-response","58","202475","0.0-58.0","279C6736060D4CFFB2EB114EC800B71F","019cf706-e610-727f-a01f-f8858cb8bd18","019cf6fe-235e-7d95-bb9b-b011d2fe188e","","null","<div style=""background-color: white; width: 100vw; height: 100vh;""></div>","null","","","","","","","","",""
"","","","","","html-keyboard-response","59","207476","0.0-59.0","279C6736060D4CFFB2EB114EC800B71F","019cf706-e610-727f-a01f-f8858cb8bd18","019cf6fe-235e-7d95-bb9b-b011d2fe188e","","null","
                <div class=""stimulus-container"">
                    <img src=""images/causal_sequence/coin_causal/coin_causal_1.png"" class=""exp-image"">
                    <div class=""question-area""></div> 
                </div>","null","","","","","","","","",""
"","","","","","html-button-response","60","209087","0.0-60.0","279C6736060D4CFFB2EB114EC800B71F","019cf706-e610-727f-a01f-f8858cb8bd18","019cf6fe-235e-7d95-bb9b-b011d2fe188e","","1610","
                <div class=""stimulus-container"">
                    <img src=""images/causal_sequence/coin_causal/coin_causal_1.png"" class=""exp-image"">
                    <div class=""question-area"">
                        <p style=""font-size: 20px; font-weight: bold; margin: 0;"">Is there a person in this image?</p>
                    </div>
                </div>","0","main_experiment_trial","1","coin_causal","causal_sequence","","","","",""
"","","","","","html-keyboard-response","61","214088","0.0-61.0","279C6736060D4CFFB2EB114EC800B71F","019cf706-e610-727f-a01f-f8858cb8bd18","019cf6fe-235e-7d95-bb9b-b011d2fe188e","","null","
                <div class=""stimulus-container"">
                    <img src=""images/causal_sequence/coin_causal/coin_causal_2.png"" class=""exp-image"">
                    <div class=""question-area""></div> 
                </div>","null","","","","","","","","",""
"","","","","","html-button-response","62","214545","0.0-62.0","279C6736060D4CFFB2EB114EC800B71F","019cf706-e610-727f-a01f-f8858cb8bd18","019cf6fe-235e-7d95-bb9b-b011d2fe188e","","456","
                <div class=""stimulus-container"">
                    <img src=""images/causal_sequence/coin_causal/coin_causal_2.png"" class=""exp-image"">
                    <div class=""question-area"">
                        <p style=""font-size: 20px; font-weight: bold; margin: 0;"">Is there a person in this image?</p>
                    </div>
                </div>","0","main_experiment_trial","2","coin_causal","causal_sequence","","","","",""
"","","","","","html-keyboard-response","63","219547","0.0-63.0","279C6736060D4CFFB2EB114EC800B71F","019cf706-e610-727f-a01f-f8858cb8bd18","019cf6fe-235e-7d95-bb9b-b011d2fe188e","","null","
                <div class=""stimulus-container"">
                    <img src=""images/causal_sequence/coin_causal/coin_causal_3.png"" class=""exp-image"">
                    <div class=""question-area""></div> 
                </div>","null","","","","","","","","",""
"","","","","","html-button-response","64","220073","0.0-64.0","279C6736060D4CFFB2EB114EC800B71F","019cf706-e610-727f-a01f-f8858cb8bd18","019cf6fe-235e-7d95-bb9b-b011d2fe188e","","525","
                <div class=""stimulus-container"">
                    <img src=""images/causal_sequence/coin_causal/coin_causal_3.png"" class=""exp-image"">
                    <div class=""question-area"">
                        <p style=""font-size: 20px; font-weight: bold; margin: 0;"">Is there a person in this image?</p>
                    </div>
                </div>","0","main_experiment_trial","3","coin_causal","causal_sequence","","","","",""
"","","","","","html-keyboard-response","65","225074","0.0-65.0","279C6736060D4CFFB2EB114EC800B71F","019cf706-e610-727f-a01f-f8858cb8bd18","019cf6fe-235e-7d95-bb9b-b011d2fe188e","","null","
                <div class=""stimulus-container"">
                    <img src=""images/causal_sequence/coin_causal/coin_causal_4.png"" class=""exp-image"">
                    <div class=""question-area""></div> 
                </div>","null","","","","","","","","",""
"","","","","","html-button-response","66","225828","0.0-66.0","279C6736060D4CFFB2EB114EC800B71F","019cf706-e610-727f-a01f-f8858cb8bd18","019cf6fe-235e-7d95-bb9b-b011d2fe188e","","752","
                <div class=""stimulus-container"">
                    <img src=""images/causal_sequence/coin_causal/coin_causal_4.png"" class=""exp-image"">
                    <div class=""question-area"">
                        <p style=""font-size: 20px; font-weight: bold; margin: 0;"">Is there a person in this image?</p>
                    </div>
                </div>","0","main_experiment_trial","4","coin_causal","causal_sequence","","","","",""
"","","","","","html-keyboard-response","67","230829","0.0-67.0","279C6736060D4CFFB2EB114EC800B71F","019cf706-e610-727f-a01f-f8858cb8bd18","019cf6fe-235e-7d95-bb9b-b011d2fe188e","","null","
                <div class=""stimulus-container"">
                    <img src=""images/causal_sequence/coin_causal/coin_causal_5.png"" class=""exp-image"">
                    <div class=""question-area""></div> 
                </div>","null","","","","","","","","",""
"","","","","","html-button-response","68","231612","0.0-68.0","279C6736060D4CFFB2EB114EC800B71F","019cf706-e610-727f-a01f-f8858cb8bd18","019cf6fe-235e-7d95-bb9b-b011d2fe188e","","781","
                <div class=""stimulus-container"">
                    <img src=""images/causal_sequence/coin_causal/coin_causal_5.png"" class=""exp-image"">
                    <div class=""question-area"">
                        <p style=""font-size: 20px; font-weight: bold; margin: 0;"">Is there a person in this image?</p>
                    </div>
                </div>","0","main_experiment_trial","5","coin_causal","causal_sequence","","","","",""
"","","","","","html-keyboard-response","69","236613","0.0-69.0","279C6736060D4CFFB2EB114EC800B71F","019cf706-e610-727f-a01f-f8858cb8bd18","019cf6fe-235e-7d95-bb9b-b011d2fe188e","","null","
                <div class=""stimulus-container"">
                    <img src=""images/causal_sequence/coin_causal/coin_causal_6.png"" class=""exp-image"">
                    <div class=""question-area""></div> 
                </div>","null","","","","","","","","",""
"","","","","","html-button-response","70","237327","0.0-70.0","279C6736060D4CFFB2EB114EC800B71F","019cf706-e610-727f-a01f-f8858cb8bd18","019cf6fe-235e-7d95-bb9b-b011d2fe188e","","713","
                <div class=""stimulus-container"">
                    <img src=""images/causal_sequence/coin_causal/coin_causal_6.png"" class=""exp-image"">
                    <div class=""question-area"">
                        <p style=""font-size: 20px; font-weight: bold; margin: 0;"">Is there a person in this image?</p>
                    </div>
                </div>","0","main_experiment_trial","6","coin_causal","causal_sequence","","","","",""
"","","","","","html-keyboard-response","71","242328","0.0-71.0","279C6736060D4CFFB2EB114EC800B71F","019cf706-e610-727f-a01f-f8858cb8bd18","019cf6fe-235e-7d95-bb9b-b011d2fe188e","","null","
                <div class=""stimulus-container"">
                    <img src=""images/causal_sequence/coin_causal/coin_causal_7.png"" class=""exp-image"">
                    <div class=""question-area""></div> 
                </div>","null","","","","","","","","",""
"","","","","","html-button-response","72","242805","0.0-72.0","279C6736060D4CFFB2EB114EC800B71F","019cf706-e610-727f-a01f-f8858cb8bd18","019cf6fe-235e-7d95-bb9b-b011d2fe188e","","475","
                <div class=""stimulus-container"">
                    <img src=""images/causal_sequence/coin_causal/coin_causal_7.png"" class=""exp-image"">
                    <div class=""question-area"">
                        <p style=""font-size: 20px; font-weight: bold; margin: 0;"">Is there a person in this image?</p>
                    </div>
                </div>","0","main_experiment_trial","7","coin_causal","causal_sequence","","","","",""
"","","","","","html-keyboard-response","73","247806","0.0-73.0","279C6736060D4CFFB2EB114EC800B71F","019cf706-e610-727f-a01f-f8858cb8bd18","019cf6fe-235e-7d95-bb9b-b011d2fe188e","","null","
                <div class=""stimulus-container"">
                    <img src=""images/causal_sequence/coin_causal/coin_causal_8.png"" class=""exp-image"">
                    <div class=""question-area""></div> 
                </div>","null","","","","","","","","",""
"","","","","","html-button-response","74","248264","0.0-74.0","279C6736060D4CFFB2EB114EC800B71F","019cf706-e610-727f-a01f-f8858cb8bd18","019cf6fe-235e-7d95-bb9b-b011d2fe188e","","457","
                <div class=""stimulus-container"">
                    <img src=""images/causal_sequence/coin_causal/coin_causal_8.png"" class=""exp-image"">
                    <div class=""question-area"">
                        <p style=""font-size: 20px; font-weight: bold; margin: 0;"">Is there a person in this image?</p>
                    </div>
                </div>","0","main_experiment_trial","8","coin_causal","causal_sequence","","","","",""
"","","","","","html-keyboard-response","75","253265","0.0-75.0","279C6736060D4CFFB2EB114EC800B71F","019cf706-e610-727f-a01f-f8858cb8bd18","019cf6fe-235e-7d95-bb9b-b011d2fe188e","","null","
                <div class=""stimulus-container"">
                    <img src=""images/causal_sequence/coin_causal/coin_causal_9.png"" class=""exp-image"">
                    <div class=""question-area""></div> 
                </div>","null","","","","","","","","",""
"","","","","","html-button-response","76","253731","0.0-76.0","279C6736060D4CFFB2EB114EC800B71F","019cf706-e610-727f-a01f-f8858cb8bd18","019cf6fe-235e-7d95-bb9b-b011d2fe188e","","465","
                <div class=""stimulus-container"">
                    <img src=""images/causal_sequence/coin_causal/coin_causal_9.png"" class=""exp-image"">
                    <div class=""question-area"">
                        <p style=""font-size: 20px; font-weight: bold; margin: 0;"">Is there a person in this image?</p>
                    </div>
                </div>","0","main_experiment_trial","9","coin_causal","causal_sequence","","","","",""
"","","","","","html-keyboard-response","77","258732","0.0-77.0","279C6736060D4CFFB2EB114EC800B71F","019cf706-e610-727f-a01f-f8858cb8bd18","019cf6fe-235e-7d95-bb9b-b011d2fe188e","","null","
                <div class=""stimulus-container"">
                    <img src=""images/causal_sequence/coin_causal/coin_causal_ten.png"" class=""exp-image"">
                    <div class=""question-area""></div> 
                </div>","null","","","","","","","","",""
"","","","","","html-button-response","78","259209","0.0-78.0","279C6736060D4CFFB2EB114EC800B71F","019cf706-e610-727f-a01f-f8858cb8bd18","019cf6fe-235e-7d95-bb9b-b011d2fe188e","","475","
                <div class=""stimulus-container"">
                    <img src=""images/causal_sequence/coin_causal/coin_causal_ten.png"" class=""exp-image"">
                    <div class=""question-area"">
                        <p style=""font-size: 20px; font-weight: bold; margin: 0;"">Is there a person in this image?</p>
                    </div>
                </div>","0","main_experiment_trial","ten","coin_causal","causal_sequence","","","","",""
"","","","","","html-keyboard-response","79","260210","0.0-79.0","279C6736060D4CFFB2EB114EC800B71F","019cf706-e610-727f-a01f-f8858cb8bd18","019cf6fe-235e-7d95-bb9b-b011d2fe188e","","null","<div style=""background-color: white; width: 100vw; height: 100vh;""></div>","null","","","","","","","","",""
"","","","","","html-keyboard-response","80","265212","0.0-80.0","279C6736060D4CFFB2EB114EC800B71F","019cf706-e610-727f-a01f-f8858cb8bd18","019cf6fe-235e-7d95-bb9b-b011d2fe188e","","null","
                <div class=""stimulus-container"">
                    <img src=""images/schematic_sequence/supermarket_scheme/supermarket_scheme_1.png"" class=""exp-image"">
                    <div class=""question-area""></div> 
                </div>","null","","","","","","","","",""
"","","","","","html-button-response","81","266852","0.0-81.0","279C6736060D4CFFB2EB114EC800B71F","019cf706-e610-727f-a01f-f8858cb8bd18","019cf6fe-235e-7d95-bb9b-b011d2fe188e","","1638","
                <div class=""stimulus-container"">
                    <img src=""images/schematic_sequence/supermarket_scheme/supermarket_scheme_1.png"" class=""exp-image"">
                    <div class=""question-area"">
                        <p style=""font-size: 20px; font-weight: bold; margin: 0;"">Is there a person in this image?</p>
                    </div>
                </div>","1","main_experiment_trial","1","supermarket_scheme","schematic_sequence","","","","",""
"","","","","","html-keyboard-response","82","271853","0.0-82.0","279C6736060D4CFFB2EB114EC800B71F","019cf706-e610-727f-a01f-f8858cb8bd18","019cf6fe-235e-7d95-bb9b-b011d2fe188e","","null","
                <div class=""stimulus-container"">
                    <img src=""images/schematic_sequence/supermarket_scheme/supermarket_scheme_2.png"" class=""exp-image"">
                    <div class=""question-area""></div> 
                </div>","null","","","","","","","","",""
"","","","","","html-button-response","83","272478","0.0-83.0","279C6736060D4CFFB2EB114EC800B71F","019cf706-e610-727f-a01f-f8858cb8bd18","019cf6fe-235e-7d95-bb9b-b011d2fe188e","","623","
                <div class=""stimulus-container"">
                    <img src=""images/schematic_sequence/supermarket_scheme/supermarket_scheme_2.png"" class=""exp-image"">
                    <div class=""question-area"">
                        <p style=""font-size: 20px; font-weight: bold; margin: 0;"">Is there a person in this image?</p>
                    </div>
                </div>","1","main_experiment_trial","2","supermarket_scheme","schematic_sequence","","","","",""
"","","","","","html-keyboard-response","84","277479","0.0-84.0","279C6736060D4CFFB2EB114EC800B71F","019cf706-e610-727f-a01f-f8858cb8bd18","019cf6fe-235e-7d95-bb9b-b011d2fe188e","","null","
                <div class=""stimulus-container"">
                    <img src=""images/schematic_sequence/supermarket_scheme/supermarket_scheme_3.png"" class=""exp-image"">
                    <div class=""question-area""></div> 
                </div>","null","","","","","","","","",""
"","","","","","html-button-response","85","278065","0.0-85.0","279C6736060D4CFFB2EB114EC800B71F","019cf706-e610-727f-a01f-f8858cb8bd18","019cf6fe-235e-7d95-bb9b-b011d2fe188e","","584","
                <div class=""stimulus-container"">
                    <img src=""images/schematic_sequence/supermarket_scheme/supermarket_scheme_3.png"" class=""exp-image"">
                    <div class=""question-area"">
                        <p style=""font-size: 20px; font-weight: bold; margin: 0;"">Is there a person in this image?</p>
                    </div>
                </div>","1","main_experiment_trial","3","supermarket_scheme","schematic_sequence","","","","",""
"","","","","","html-keyboard-response","86","283066","0.0-86.0","279C6736060D4CFFB2EB114EC800B71F","019cf706-e610-727f-a01f-f8858cb8bd18","019cf6fe-235e-7d95-bb9b-b011d2fe188e","","null","
                <div class=""stimulus-container"">
                    <img src=""images/schematic_sequence/supermarket_scheme/supermarket_scheme_4.png"" class=""exp-image"">
                    <div class=""question-area""></div> 
                </div>","null","","","","","","","","",""
"","","","","","html-button-response","87","283977","0.0-87.0","279C6736060D4CFFB2EB114EC800B71F","019cf706-e610-727f-a01f-f8858cb8bd18","019cf6fe-235e-7d95-bb9b-b011d2fe188e","","910","
                <div class=""stimulus-container"">
                    <img src=""images/schematic_sequence/supermarket_scheme/supermarket_scheme_4.png"" class=""exp-image"">
                    <div class=""question-area"">
                        <p style=""font-size: 20px; font-weight: bold; margin: 0;"">Is there a person in this image?</p>
                    </div>
                </div>","0","main_experiment_trial","4","supermarket_scheme","schematic_sequence","","","","",""
"","","","","","html-keyboard-response","88","288978","0.0-88.0","279C6736060D4CFFB2EB114EC800B71F","019cf706-e610-727f-a01f-f8858cb8bd18","019cf6fe-235e-7d95-bb9b-b011d2fe188e","","null","
                <div class=""stimulus-container"">
                    <img src=""images/schematic_sequence/supermarket_scheme/supermarket_scheme_5.png"" class=""exp-image"">
                    <div class=""question-area""></div> 
                </div>","null","","","","","","","","",""
"","","","","","html-button-response","89","291618","0.0-89.0","279C6736060D4CFFB2EB114EC800B71F","019cf706-e610-727f-a01f-f8858cb8bd18","019cf6fe-235e-7d95-bb9b-b011d2fe188e","","2639","
                <div class=""stimulus-container"">
                    <img src=""images/schematic_sequence/supermarket_scheme/supermarket_scheme_5.png"" class=""exp-image"">
                    <div class=""question-area"">
                        <p style=""font-size: 20px; font-weight: bold; margin: 0;"">Is there a person in this image?</p>
                    </div>
                </div>","1","main_experiment_trial","5","supermarket_scheme","schematic_sequence","","","","",""
"","","","","","html-keyboard-response","90","296619","0.0-90.0","279C6736060D4CFFB2EB114EC800B71F","019cf706-e610-727f-a01f-f8858cb8bd18","019cf6fe-235e-7d95-bb9b-b011d2fe188e","","null","
                <div class=""stimulus-container"">
                    <img src=""images/schematic_sequence/supermarket_scheme/supermarket_scheme_6.png"" class=""exp-image"">
                    <div class=""question-area""></div> 
                </div>","null","","","","","","","","",""
"","","","","","html-button-response","91","298313","0.0-91.0","279C6736060D4CFFB2EB114EC800B71F","019cf706-e610-727f-a01f-f8858cb8bd18","019cf6fe-235e-7d95-bb9b-b011d2fe188e","","1693","
                <div class=""stimulus-container"">
                    <img src=""images/schematic_sequence/supermarket_scheme/supermarket_scheme_6.png"" class=""exp-image"">
                    <div class=""question-area"">
                        <p style=""font-size: 20px; font-weight: bold; margin: 0;"">Is there a person in this image?</p>
                    </div>
                </div>","0","main_experiment_trial","6","supermarket_scheme","schematic_sequence","","","","",""
"","","","","","html-keyboard-response","92","303314","0.0-92.0","279C6736060D4CFFB2EB114EC800B71F","019cf706-e610-727f-a01f-f8858cb8bd18","019cf6fe-235e-7d95-bb9b-b011d2fe188e","","null","
                <div class=""stimulus-container"">
                    <img src=""images/schematic_sequence/supermarket_scheme/supermarket_scheme_7.png"" class=""exp-image"">
                    <div class=""question-area""></div> 
                </div>","null","","","","","","","","",""
"","","","","","html-button-response","93","304630","0.0-93.0","279C6736060D4CFFB2EB114EC800B71F","019cf706-e610-727f-a01f-f8858cb8bd18","019cf6fe-235e-7d95-bb9b-b011d2fe188e","","1315","
                <div class=""stimulus-container"">
                    <img src=""images/schematic_sequence/supermarket_scheme/supermarket_scheme_7.png"" class=""exp-image"">
                    <div class=""question-area"">
                        <p style=""font-size: 20px; font-weight: bold; margin: 0;"">Is there a person in this image?</p>
                    </div>
                </div>","0","main_experiment_trial","7","supermarket_scheme","schematic_sequence","","","","",""
"","","","","","html-keyboard-response","94","309632","0.0-94.0","279C6736060D4CFFB2EB114EC800B71F","019cf706-e610-727f-a01f-f8858cb8bd18","019cf6fe-235e-7d95-bb9b-b011d2fe188e","","null","
                <div class=""stimulus-container"">
                    <img src=""images/schematic_sequence/supermarket_scheme/supermarket_scheme_8.png"" class=""exp-image"">
                    <div class=""question-area""></div> 
                </div>","null","","","","","","","","",""
"","","","","","html-button-response","95","310258","0.0-95.0","279C6736060D4CFFB2EB114EC800B71F","019cf706-e610-727f-a01f-f8858cb8bd18","019cf6fe-235e-7d95-bb9b-b011d2fe188e","","625","
                <div class=""stimulus-container"">
                    <img src=""images/schematic_sequence/supermarket_scheme/supermarket_scheme_8.png"" class=""exp-image"">
                    <div class=""question-area"">
                        <p style=""font-size: 20px; font-weight: bold; margin: 0;"">Is there a person in this image?</p>
                    </div>
                </div>","0","main_experiment_trial","8","supermarket_scheme","schematic_sequence","","","","",""
"","","","","","html-keyboard-response","96","315259","0.0-96.0","279C6736060D4CFFB2EB114EC800B71F","019cf706-e610-727f-a01f-f8858cb8bd18","019cf6fe-235e-7d95-bb9b-b011d2fe188e","","null","
                <div class=""stimulus-container"">
                    <img src=""images/schematic_sequence/supermarket_scheme/supermarket_scheme_9.png"" class=""exp-image"">
                    <div class=""question-area""></div> 
                </div>","null","","","","","","","","",""
"","","","","","html-button-response","97","316754","0.0-97.0","279C6736060D4CFFB2EB114EC800B71F","019cf706-e610-727f-a01f-f8858cb8bd18","019cf6fe-235e-7d95-bb9b-b011d2fe188e","","1494","
                <div class=""stimulus-container"">
                    <img src=""images/schematic_sequence/supermarket_scheme/supermarket_scheme_9.png"" class=""exp-image"">
                    <div class=""question-area"">
                        <p style=""font-size: 20px; font-weight: bold; margin: 0;"">Is there a person in this image?</p>
                    </div>
                </div>","0","main_experiment_trial","9","supermarket_scheme","schematic_sequence","","","","",""
"","","","","","html-keyboard-response","98","321755","0.0-98.0","279C6736060D4CFFB2EB114EC800B71F","019cf706-e610-727f-a01f-f8858cb8bd18","019cf6fe-235e-7d95-bb9b-b011d2fe188e","","null","
                <div class=""stimulus-container"">
                    <img src=""images/schematic_sequence/supermarket_scheme/supermarket_scheme_ten.png"" class=""exp-image"">
                    <div class=""question-area""></div> 
                </div>","null","","","","","","","","",""
"","","","","","html-button-response","99","322717","0.0-99.0","279C6736060D4CFFB2EB114EC800B71F","019cf706-e610-727f-a01f-f8858cb8bd18","019cf6fe-235e-7d95-bb9b-b011d2fe188e","","961","
                <div class=""stimulus-container"">
                    <img src=""images/schematic_sequence/supermarket_scheme/supermarket_scheme_ten.png"" class=""exp-image"">
                    <div class=""question-area"">
                        <p style=""font-size: 20px; font-weight: bold; margin: 0;"">Is there a person in this image?</p>
                    </div>
                </div>","1","main_experiment_trial","ten","supermarket_scheme","schematic_sequence","","","","",""
"","","","","","html-keyboard-response","100","323718","0.0-100.0","279C6736060D4CFFB2EB114EC800B71F","019cf706-e610-727f-a01f-f8858cb8bd18","019cf6fe-235e-7d95-bb9b-b011d2fe188e","","null","<div style=""background-color: white; width: 100vw; height: 100vh;""></div>","null","","","","","","","","",""
"","","","","","html-keyboard-response","101","328719","0.0-101.0","279C6736060D4CFFB2EB114EC800B71F","019cf706-e610-727f-a01f-f8858cb8bd18","019cf6fe-235e-7d95-bb9b-b011d2fe188e","","null","
                <div class=""stimulus-container"">
                    <img src=""images/causal_sequence/the_performance_causal/the_performance_causal_1.png"" class=""exp-image"">
                    <div class=""question-area""></div> 
                </div>","null","","","","","","","","",""
"","","","","","html-button-response","102","330765","0.0-102.0","279C6736060D4CFFB2EB114EC800B71F","019cf706-e610-727f-a01f-f8858cb8bd18","019cf6fe-235e-7d95-bb9b-b011d2fe188e","","2045","
                <div class=""stimulus-container"">
                    <img src=""images/causal_sequence/the_performance_causal/the_performance_causal_1.png"" class=""exp-image"">
                    <div class=""question-area"">
                        <p style=""font-size: 20px; font-weight: bold; margin: 0;"">Is there a person in this image?</p>
                    </div>
                </div>","0","main_experiment_trial","1","the_performance_causal","causal_sequence","","","","",""
"","","","","","html-keyboard-response","103","335767","0.0-103.0","279C6736060D4CFFB2EB114EC800B71F","019cf706-e610-727f-a01f-f8858cb8bd18","019cf6fe-235e-7d95-bb9b-b011d2fe188e","","null","
                <div class=""stimulus-container"">
                    <img src=""images/causal_sequence/the_performance_causal/the_performance_causal_2.png"" class=""exp-image"">
                    <div class=""question-area""></div> 
                </div>","null","","","","","","","","",""
"","","","","","html-button-response","104","337015","0.0-104.0","279C6736060D4CFFB2EB114EC800B71F","019cf706-e610-727f-a01f-f8858cb8bd18","019cf6fe-235e-7d95-bb9b-b011d2fe188e","","1247","
                <div class=""stimulus-container"">
                    <img src=""images/causal_sequence/the_performance_causal/the_performance_causal_2.png"" class=""exp-image"">
                    <div class=""question-area"">
                        <p style=""font-size: 20px; font-weight: bold; margin: 0;"">Is there a person in this image?</p>
                    </div>
                </div>","0","main_experiment_trial","2","the_performance_causal","causal_sequence","","","","",""
"","","","","","html-keyboard-response","105","342016","0.0-105.0","279C6736060D4CFFB2EB114EC800B71F","019cf706-e610-727f-a01f-f8858cb8bd18","019cf6fe-235e-7d95-bb9b-b011d2fe188e","","null","
                <div class=""stimulus-container"">
                    <img src=""images/causal_sequence/the_performance_causal/the_performance_causal_3.png"" class=""exp-image"">
                    <div class=""question-area""></div> 
                </div>","null","","","","","","","","",""
"","","","","","html-button-response","106","343936","0.0-106.0","279C6736060D4CFFB2EB114EC800B71F","019cf706-e610-727f-a01f-f8858cb8bd18","019cf6fe-235e-7d95-bb9b-b011d2fe188e","","1919","
                <div class=""stimulus-container"">
                    <img src=""images/causal_sequence/the_performance_causal/the_performance_causal_3.png"" class=""exp-image"">
                    <div class=""question-area"">
                        <p style=""font-size: 20px; font-weight: bold; margin: 0;"">Is there a person in this image?</p>
                    </div>
                </div>","0","main_experiment_trial","3","the_performance_causal","causal_sequence","","","","",""
"","","","","","html-keyboard-response","107","348938","0.0-107.0","279C6736060D4CFFB2EB114EC800B71F","019cf706-e610-727f-a01f-f8858cb8bd18","019cf6fe-235e-7d95-bb9b-b011d2fe188e","","null","
                <div class=""stimulus-container"">
                    <img src=""images/causal_sequence/the_performance_causal/the_performance_causal_4.png"" class=""exp-image"">
                    <div class=""question-area""></div> 
                </div>","null","","","","","","","","",""
"","","","","","html-button-response","108","350527","0.0-108.0","279C6736060D4CFFB2EB114EC800B71F","019cf706-e610-727f-a01f-f8858cb8bd18","019cf6fe-235e-7d95-bb9b-b011d2fe188e","","1588","
                <div class=""stimulus-container"">
                    <img src=""images/causal_sequence/the_performance_causal/the_performance_causal_4.png"" class=""exp-image"">
                    <div class=""question-area"">
                        <p style=""font-size: 20px; font-weight: bold; margin: 0;"">Is there a person in this image?</p>
                    </div>
                </div>","0","main_experiment_trial","4","the_performance_causal","causal_sequence","","","","",""
"","","","","","html-keyboard-response","109","355530","0.0-109.0","279C6736060D4CFFB2EB114EC800B71F","019cf706-e610-727f-a01f-f8858cb8bd18","019cf6fe-235e-7d95-bb9b-b011d2fe188e","","null","
                <div class=""stimulus-container"">
                    <img src=""images/causal_sequence/the_performance_causal/the_performance_causal_5.png"" class=""exp-image"">
                    <div class=""question-area""></div> 
                </div>","null","","","","","","","","",""
"","","","","","html-button-response","110","356245","0.0-110.0","279C6736060D4CFFB2EB114EC800B71F","019cf706-e610-727f-a01f-f8858cb8bd18","019cf6fe-235e-7d95-bb9b-b011d2fe188e","","714","
                <div class=""stimulus-container"">
                    <img src=""images/causal_sequence/the_performance_causal/the_performance_causal_5.png"" class=""exp-image"">
                    <div class=""question-area"">
                        <p style=""font-size: 20px; font-weight: bold; margin: 0;"">Is there a person in this image?</p>
                    </div>
                </div>","0","main_experiment_trial","5","the_performance_causal","causal_sequence","","","","",""
"","","","","","html-keyboard-response","111","361246","0.0-111.0","279C6736060D4CFFB2EB114EC800B71F","019cf706-e610-727f-a01f-f8858cb8bd18","019cf6fe-235e-7d95-bb9b-b011d2fe188e","","null","
                <div class=""stimulus-container"">
                    <img src=""images/causal_sequence/the_performance_causal/the_performance_causal_6.png"" class=""exp-image"">
                    <div class=""question-area""></div> 
                </div>","null","","","","","","","","",""
"","","","","","html-button-response","112","362039","0.0-112.0","279C6736060D4CFFB2EB114EC800B71F","019cf706-e610-727f-a01f-f8858cb8bd18","019cf6fe-235e-7d95-bb9b-b011d2fe188e","","792","
                <div class=""stimulus-container"">
                    <img src=""images/causal_sequence/the_performance_causal/the_performance_causal_6.png"" class=""exp-image"">
                    <div class=""question-area"">
                        <p style=""font-size: 20px; font-weight: bold; margin: 0;"">Is there a person in this image?</p>
                    </div>
                </div>","0","main_experiment_trial","6","the_performance_causal","causal_sequence","","","","",""
"","","","","","html-keyboard-response","113","367040","0.0-113.0","279C6736060D4CFFB2EB114EC800B71F","019cf706-e610-727f-a01f-f8858cb8bd18","019cf6fe-235e-7d95-bb9b-b011d2fe188e","","null","
                <div class=""stimulus-container"">
                    <img src=""images/causal_sequence/the_performance_causal/the_performance_causal_7.png"" class=""exp-image"">
                    <div class=""question-area""></div> 
                </div>","null","","","","","","","","",""
"","","","","","html-button-response","114","367568","0.0-114.0","279C6736060D4CFFB2EB114EC800B71F","019cf706-e610-727f-a01f-f8858cb8bd18","019cf6fe-235e-7d95-bb9b-b011d2fe188e","","526","
                <div class=""stimulus-container"">
                    <img src=""images/causal_sequence/the_performance_causal/the_performance_causal_7.png"" class=""exp-image"">
                    <div class=""question-area"">
                        <p style=""font-size: 20px; font-weight: bold; margin: 0;"">Is there a person in this image?</p>
                    </div>
                </div>","0","main_experiment_trial","7","the_performance_causal","causal_sequence","","","","",""
"","","","","","html-keyboard-response","115","372569","0.0-115.0","279C6736060D4CFFB2EB114EC800B71F","019cf706-e610-727f-a01f-f8858cb8bd18","019cf6fe-235e-7d95-bb9b-b011d2fe188e","","null","
                <div class=""stimulus-container"">
                    <img src=""images/causal_sequence/the_performance_causal/the_performance_causal_8.png"" class=""exp-image"">
                    <div class=""question-area""></div> 
                </div>","null","","","","","","","","",""
"","","","","","html-button-response","116","373083","0.0-116.0","279C6736060D4CFFB2EB114EC800B71F","019cf706-e610-727f-a01f-f8858cb8bd18","019cf6fe-235e-7d95-bb9b-b011d2fe188e","","513","
                <div class=""stimulus-container"">
                    <img src=""images/causal_sequence/the_performance_causal/the_performance_causal_8.png"" class=""exp-image"">
                    <div class=""question-area"">
                        <p style=""font-size: 20px; font-weight: bold; margin: 0;"">Is there a person in this image?</p>
                    </div>
                </div>","0","main_experiment_trial","8","the_performance_causal","causal_sequence","","","","",""
"","","","","","html-keyboard-response","117","378084","0.0-117.0","279C6736060D4CFFB2EB114EC800B71F","019cf706-e610-727f-a01f-f8858cb8bd18","019cf6fe-235e-7d95-bb9b-b011d2fe188e","","null","
                <div class=""stimulus-container"">
                    <img src=""images/causal_sequence/the_performance_causal/the_performance_causal_9.png"" class=""exp-image"">
                    <div class=""question-area""></div> 
                </div>","null","","","","","","","","",""
"","","","","","html-button-response","118","378718","0.0-118.0","279C6736060D4CFFB2EB114EC800B71F","019cf706-e610-727f-a01f-f8858cb8bd18","019cf6fe-235e-7d95-bb9b-b011d2fe188e","","633","
                <div class=""stimulus-container"">
                    <img src=""images/causal_sequence/the_performance_causal/the_performance_causal_9.png"" class=""exp-image"">
                    <div class=""question-area"">
                        <p style=""font-size: 20px; font-weight: bold; margin: 0;"">Is there a person in this image?</p>
                    </div>
                </div>","0","main_experiment_trial","9","the_performance_causal","causal_sequence","","","","",""
"","","","","","html-keyboard-response","119","383720","0.0-119.0","279C6736060D4CFFB2EB114EC800B71F","019cf706-e610-727f-a01f-f8858cb8bd18","019cf6fe-235e-7d95-bb9b-b011d2fe188e","","null","
                <div class=""stimulus-container"">
                    <img src=""images/causal_sequence/the_performance_causal/the_performance_causal_ten.png"" class=""exp-image"">
                    <div class=""question-area""></div> 
                </div>","null","","","","","","","","",""
"","","","","","html-button-response","120","384551","0.0-120.0","279C6736060D4CFFB2EB114EC800B71F","019cf706-e610-727f-a01f-f8858cb8bd18","019cf6fe-235e-7d95-bb9b-b011d2fe188e","","830","
                <div class=""stimulus-container"">
                    <img src=""images/causal_sequence/the_performance_causal/the_performance_causal_ten.png"" class=""exp-image"">
                    <div class=""question-area"">
                        <p style=""font-size: 20px; font-weight: bold; margin: 0;"">Is there a person in this image?</p>
                    </div>
                </div>","0","main_experiment_trial","ten","the_performance_causal","causal_sequence","","","","",""
"","","","","","html-keyboard-response","121","385552","0.0-121.0","279C6736060D4CFFB2EB114EC800B71F","019cf706-e610-727f-a01f-f8858cb8bd18","019cf6fe-235e-7d95-bb9b-b011d2fe188e","","null","<div style=""background-color: white; width: 100vw; height: 100vh;""></div>","null","","","","","","","","",""
"","","","","","html-keyboard-response","122","390553","0.0-122.0","279C6736060D4CFFB2EB114EC800B71F","019cf706-e610-727f-a01f-f8858cb8bd18","019cf6fe-235e-7d95-bb9b-b011d2fe188e","","null","
                <div class=""stimulus-container"">
                    <img src=""images/schematic_sequence/dinner_party_scheme/dinner_party_scheme_1.png"" class=""exp-image"">
                    <div class=""question-area""></div> 
                </div>","null","","","","","","","","",""
"","","","","","html-button-response","123","391136","0.0-123.0","279C6736060D4CFFB2EB114EC800B71F","019cf706-e610-727f-a01f-f8858cb8bd18","019cf6fe-235e-7d95-bb9b-b011d2fe188e","","582","
                <div class=""stimulus-container"">
                    <img src=""images/schematic_sequence/dinner_party_scheme/dinner_party_scheme_1.png"" class=""exp-image"">
                    <div class=""question-area"">
                        <p style=""font-size: 20px; font-weight: bold; margin: 0;"">Is there a person in this image?</p>
                    </div>
                </div>","0","main_experiment_trial","1","dinner_party_scheme","schematic_sequence","","","","",""
"","","","","","html-keyboard-response","124","396138","0.0-124.0","279C6736060D4CFFB2EB114EC800B71F","019cf706-e610-727f-a01f-f8858cb8bd18","019cf6fe-235e-7d95-bb9b-b011d2fe188e","","null","
                <div class=""stimulus-container"">
                    <img src=""images/schematic_sequence/dinner_party_scheme/dinner_party_scheme_2.png"" class=""exp-image"">
                    <div class=""question-area""></div> 
                </div>","null","","","","","","","","",""
"","","","","","html-button-response","125","399139","0.0-125.0","279C6736060D4CFFB2EB114EC800B71F","019cf706-e610-727f-a01f-f8858cb8bd18","019cf6fe-235e-7d95-bb9b-b011d2fe188e","","null","
                <div class=""stimulus-container"">
                    <img src=""images/schematic_sequence/dinner_party_scheme/dinner_party_scheme_2.png"" class=""exp-image"">
                    <div class=""question-area"">
                        <p style=""font-size: 20px; font-weight: bold; margin: 0;"">Is there a person in this image?</p>
                    </div>
                </div>","null","main_experiment_trial","2","dinner_party_scheme","schematic_sequence","","","","",""
"","","","","","html-keyboard-response","126","404140","0.0-126.0","279C6736060D4CFFB2EB114EC800B71F","019cf706-e610-727f-a01f-f8858cb8bd18","019cf6fe-235e-7d95-bb9b-b011d2fe188e","","null","
                <div class=""stimulus-container"">
                    <img src=""images/schematic_sequence/dinner_party_scheme/dinner_party_scheme_3.png"" class=""exp-image"">
                    <div class=""question-area""></div> 
                </div>","null","","","","","","","","",""
"","","","","","html-button-response","127","404767","0.0-127.0","279C6736060D4CFFB2EB114EC800B71F","019cf706-e610-727f-a01f-f8858cb8bd18","019cf6fe-235e-7d95-bb9b-b011d2fe188e","","626","
                <div class=""stimulus-container"">
                    <img src=""images/schematic_sequence/dinner_party_scheme/dinner_party_scheme_3.png"" class=""exp-image"">
                    <div class=""question-area"">
                        <p style=""font-size: 20px; font-weight: bold; margin: 0;"">Is there a person in this image?</p>
                    </div>
                </div>","0","main_experiment_trial","3","dinner_party_scheme","schematic_sequence","","","","",""
"","","","","","html-keyboard-response","128","409768","0.0-128.0","279C6736060D4CFFB2EB114EC800B71F","019cf706-e610-727f-a01f-f8858cb8bd18","019cf6fe-235e-7d95-bb9b-b011d2fe188e","","null","
                <div class=""stimulus-container"">
                    <img src=""images/schematic_sequence/dinner_party_scheme/dinner_party_scheme_4.png"" class=""exp-image"">
                    <div class=""question-area""></div> 
                </div>","null","","","","","","","","",""
"","","","","","html-button-response","129","411441","0.0-129.0","279C6736060D4CFFB2EB114EC800B71F","019cf706-e610-727f-a01f-f8858cb8bd18","019cf6fe-235e-7d95-bb9b-b011d2fe188e","","1672","
                <div class=""stimulus-container"">
                    <img src=""images/schematic_sequence/dinner_party_scheme/dinner_party_scheme_4.png"" class=""exp-image"">
                    <div class=""question-area"">
                        <p style=""font-size: 20px; font-weight: bold; margin: 0;"">Is there a person in this image?</p>
                    </div>
                </div>","0","main_experiment_trial","4","dinner_party_scheme","schematic_sequence","","","","",""
"","","","","","html-keyboard-response","130","416442","0.0-130.0","279C6736060D4CFFB2EB114EC800B71F","019cf706-e610-727f-a01f-f8858cb8bd18","019cf6fe-235e-7d95-bb9b-b011d2fe188e","","null","
                <div class=""stimulus-container"">
                    <img src=""images/schematic_sequence/dinner_party_scheme/dinner_party_scheme_5.png"" class=""exp-image"">
                    <div class=""question-area""></div> 
                </div>","null","","","","","","","","",""
"","","","","","html-button-response","131","416977","0.0-131.0","279C6736060D4CFFB2EB114EC800B71F","019cf706-e610-727f-a01f-f8858cb8bd18","019cf6fe-235e-7d95-bb9b-b011d2fe188e","","533","
                <div class=""stimulus-container"">
                    <img src=""images/schematic_sequence/dinner_party_scheme/dinner_party_scheme_5.png"" class=""exp-image"">
                    <div class=""question-area"">
                        <p style=""font-size: 20px; font-weight: bold; margin: 0;"">Is there a person in this image?</p>
                    </div>
                </div>","0","main_experiment_trial","5","dinner_party_scheme","schematic_sequence","","","","",""
"","","","","","html-keyboard-response","132","421978","0.0-132.0","279C6736060D4CFFB2EB114EC800B71F","019cf706-e610-727f-a01f-f8858cb8bd18","019cf6fe-235e-7d95-bb9b-b011d2fe188e","","null","
                <div class=""stimulus-container"">
                    <img src=""images/schematic_sequence/dinner_party_scheme/dinner_party_scheme_6.png"" class=""exp-image"">
                    <div class=""question-area""></div> 
                </div>","null","","","","","","","","",""
"","","","","","html-button-response","133","424194","0.0-133.0","279C6736060D4CFFB2EB114EC800B71F","019cf706-e610-727f-a01f-f8858cb8bd18","019cf6fe-235e-7d95-bb9b-b011d2fe188e","","2215","
                <div class=""stimulus-container"">
                    <img src=""images/schematic_sequence/dinner_party_scheme/dinner_party_scheme_6.png"" class=""exp-image"">
                    <div class=""question-area"">
                        <p style=""font-size: 20px; font-weight: bold; margin: 0;"">Is there a person in this image?</p>
                    </div>
                </div>","0","main_experiment_trial","6","dinner_party_scheme","schematic_sequence","","","","",""
"","","","","","html-keyboard-response","134","429196","0.0-134.0","279C6736060D4CFFB2EB114EC800B71F","019cf706-e610-727f-a01f-f8858cb8bd18","019cf6fe-235e-7d95-bb9b-b011d2fe188e","","null","
                <div class=""stimulus-container"">
                    <img src=""images/schematic_sequence/dinner_party_scheme/dinner_party_scheme_7.png"" class=""exp-image"">
                    <div class=""question-area""></div> 
                </div>","null","","","","","","","","",""
"","","","","","html-button-response","135","430017","0.0-135.0","279C6736060D4CFFB2EB114EC800B71F","019cf706-e610-727f-a01f-f8858cb8bd18","019cf6fe-235e-7d95-bb9b-b011d2fe188e","","820","
                <div class=""stimulus-container"">
                    <img src=""images/schematic_sequence/dinner_party_scheme/dinner_party_scheme_7.png"" class=""exp-image"">
                    <div class=""question-area"">
                        <p style=""font-size: 20px; font-weight: bold; margin: 0;"">Is there a person in this image?</p>
                    </div>
                </div>","0","main_experiment_trial","7","dinner_party_scheme","schematic_sequence","","","","",""
"","","","","","html-keyboard-response","136","435018","0.0-136.0","279C6736060D4CFFB2EB114EC800B71F","019cf706-e610-727f-a01f-f8858cb8bd18","019cf6fe-235e-7d95-bb9b-b011d2fe188e","","null","
                <div class=""stimulus-container"">
                    <img src=""images/schematic_sequence/dinner_party_scheme/dinner_party_scheme_8.png"" class=""exp-image"">
                    <div class=""question-area""></div> 
                </div>","null","","","","","","","","",""
"","","","","","html-button-response","137","435632","0.0-137.0","279C6736060D4CFFB2EB114EC800B71F","019cf706-e610-727f-a01f-f8858cb8bd18","019cf6fe-235e-7d95-bb9b-b011d2fe188e","","613","
                <div class=""stimulus-container"">
                    <img src=""images/schematic_sequence/dinner_party_scheme/dinner_party_scheme_8.png"" class=""exp-image"">
                    <div class=""question-area"">
                        <p style=""font-size: 20px; font-weight: bold; margin: 0;"">Is there a person in this image?</p>
                    </div>
                </div>","0","main_experiment_trial","8","dinner_party_scheme","schematic_sequence","","","","",""
"","","","","","html-keyboard-response","138","440634","0.0-138.0","279C6736060D4CFFB2EB114EC800B71F","019cf706-e610-727f-a01f-f8858cb8bd18","019cf6fe-235e-7d95-bb9b-b011d2fe188e","","null","
                <div class=""stimulus-container"">
                    <img src=""images/schematic_sequence/dinner_party_scheme/dinner_party_scheme_9.png"" class=""exp-image"">
                    <div class=""question-area""></div> 
                </div>","null","","","","","","","","",""
"","","","","","html-button-response","139","441098","0.0-139.0","279C6736060D4CFFB2EB114EC800B71F","019cf706-e610-727f-a01f-f8858cb8bd18","019cf6fe-235e-7d95-bb9b-b011d2fe188e","","463","
                <div class=""stimulus-container"">
                    <img src=""images/schematic_sequence/dinner_party_scheme/dinner_party_scheme_9.png"" class=""exp-image"">
                    <div class=""question-area"">
                        <p style=""font-size: 20px; font-weight: bold; margin: 0;"">Is there a person in this image?</p>
                    </div>
                </div>","0","main_experiment_trial","9","dinner_party_scheme","schematic_sequence","","","","",""
"","","","","","html-keyboard-response","140","446099","0.0-140.0","279C6736060D4CFFB2EB114EC800B71F","019cf706-e610-727f-a01f-f8858cb8bd18","019cf6fe-235e-7d95-bb9b-b011d2fe188e","","null","
                <div class=""stimulus-container"">
                    <img src=""images/schematic_sequence/dinner_party_scheme/dinner_party_scheme_ten.png"" class=""exp-image"">
                    <div class=""question-area""></div> 
                </div>","null","","","","","","","","",""
"","","","","","html-button-response","141","449101","0.0-141.0","279C6736060D4CFFB2EB114EC800B71F","019cf706-e610-727f-a01f-f8858cb8bd18","019cf6fe-235e-7d95-bb9b-b011d2fe188e","","null","
                <div class=""stimulus-container"">
                    <img src=""images/schematic_sequence/dinner_party_scheme/dinner_party_scheme_ten.png"" class=""exp-image"">
                    <div class=""question-area"">
                        <p style=""font-size: 20px; font-weight: bold; margin: 0;"">Is there a person in this image?</p>
                    </div>
                </div>","null","main_experiment_trial","ten","dinner_party_scheme","schematic_sequence","","","","",""
"","","","","","html-keyboard-response","142","450101","0.0-142.0","279C6736060D4CFFB2EB114EC800B71F","019cf706-e610-727f-a01f-f8858cb8bd18","019cf6fe-235e-7d95-bb9b-b011d2fe188e","","null","<div style=""background-color: white; width: 100vw; height: 100vh;""></div>","null","","","","","","","","",""
"","","","","","html-keyboard-response","143","455103","0.0-143.0","279C6736060D4CFFB2EB114EC800B71F","019cf706-e610-727f-a01f-f8858cb8bd18","019cf6fe-235e-7d95-bb9b-b011d2fe188e","","null","
                <div class=""stimulus-container"">
                    <img src=""images/schematic_sequence/restaurant_scheme/restaurant_scheme_1.png"" class=""exp-image"">
                    <div class=""question-area""></div> 
                </div>","null","","","","","","","","",""
"","","","","","html-button-response","144","458104","0.0-144.0","279C6736060D4CFFB2EB114EC800B71F","019cf706-e610-727f-a01f-f8858cb8bd18","019cf6fe-235e-7d95-bb9b-b011d2fe188e","","null","
                <div class=""stimulus-container"">
                    <img src=""images/schematic_sequence/restaurant_scheme/restaurant_scheme_1.png"" class=""exp-image"">
                    <div class=""question-area"">
                        <p style=""font-size: 20px; font-weight: bold; margin: 0;"">Is there a person in this image?</p>
                    </div>
                </div>","null","main_experiment_trial","1","restaurant_scheme","schematic_sequence","","","","",""
"","","","","","html-keyboard-response","145","463105","0.0-145.0","279C6736060D4CFFB2EB114EC800B71F","019cf706-e610-727f-a01f-f8858cb8bd18","019cf6fe-235e-7d95-bb9b-b011d2fe188e","","null","
                <div class=""stimulus-container"">
                    <img src=""images/schematic_sequence/restaurant_scheme/restaurant_scheme_2.png"" class=""exp-image"">
                    <div class=""question-area""></div> 
                </div>","null","","","","","","","","",""
"","","","","","html-button-response","146","464251","0.0-146.0","279C6736060D4CFFB2EB114EC800B71F","019cf706-e610-727f-a01f-f8858cb8bd18","019cf6fe-235e-7d95-bb9b-b011d2fe188e","","1145","
                <div class=""stimulus-container"">
                    <img src=""images/schematic_sequence/restaurant_scheme/restaurant_scheme_2.png"" class=""exp-image"">
                    <div class=""question-area"">
                        <p style=""font-size: 20px; font-weight: bold; margin: 0;"">Is there a person in this image?</p>
                    </div>
                </div>","1","main_experiment_trial","2","restaurant_scheme","schematic_sequence","","","","",""
"","","","","","html-keyboard-response","147","469252","0.0-147.0","279C6736060D4CFFB2EB114EC800B71F","019cf706-e610-727f-a01f-f8858cb8bd18","019cf6fe-235e-7d95-bb9b-b011d2fe188e","","null","
                <div class=""stimulus-container"">
                    <img src=""images/schematic_sequence/restaurant_scheme/restaurant_scheme_3.png"" class=""exp-image"">
                    <div class=""question-area""></div> 
                </div>","null","","","","","","","","",""
"","","","","","html-button-response","148","471886","0.0-148.0","279C6736060D4CFFB2EB114EC800B71F","019cf706-e610-727f-a01f-f8858cb8bd18","019cf6fe-235e-7d95-bb9b-b011d2fe188e","","2632","
                <div class=""stimulus-container"">
                    <img src=""images/schematic_sequence/restaurant_scheme/restaurant_scheme_3.png"" class=""exp-image"">
                    <div class=""question-area"">
                        <p style=""font-size: 20px; font-weight: bold; margin: 0;"">Is there a person in this image?</p>
                    </div>
                </div>","1","main_experiment_trial","3","restaurant_scheme","schematic_sequence","","","","",""
"","","","","","html-keyboard-response","149","476887","0.0-149.0","279C6736060D4CFFB2EB114EC800B71F","019cf706-e610-727f-a01f-f8858cb8bd18","019cf6fe-235e-7d95-bb9b-b011d2fe188e","","null","
                <div class=""stimulus-container"">
                    <img src=""images/schematic_sequence/restaurant_scheme/restaurant_scheme_4.png"" class=""exp-image"">
                    <div class=""question-area""></div> 
                </div>","null","","","","","","","","",""
"","","","","","html-button-response","150","479099","0.0-150.0","279C6736060D4CFFB2EB114EC800B71F","019cf706-e610-727f-a01f-f8858cb8bd18","019cf6fe-235e-7d95-bb9b-b011d2fe188e","","2212","
                <div class=""stimulus-container"">
                    <img src=""images/schematic_sequence/restaurant_scheme/restaurant_scheme_4.png"" class=""exp-image"">
                    <div class=""question-area"">
                        <p style=""font-size: 20px; font-weight: bold; margin: 0;"">Is there a person in this image?</p>
                    </div>
                </div>","0","main_experiment_trial","4","restaurant_scheme","schematic_sequence","","","","",""
"","","","","","html-keyboard-response","151","484101","0.0-151.0","279C6736060D4CFFB2EB114EC800B71F","019cf706-e610-727f-a01f-f8858cb8bd18","019cf6fe-235e-7d95-bb9b-b011d2fe188e","","null","
                <div class=""stimulus-container"">
                    <img src=""images/schematic_sequence/restaurant_scheme/restaurant_scheme_5.png"" class=""exp-image"">
                    <div class=""question-area""></div> 
                </div>","null","","","","","","","","",""
"","","","","","html-button-response","152","485495","0.0-152.0","279C6736060D4CFFB2EB114EC800B71F","019cf706-e610-727f-a01f-f8858cb8bd18","019cf6fe-235e-7d95-bb9b-b011d2fe188e","","1393","
                <div class=""stimulus-container"">
                    <img src=""images/schematic_sequence/restaurant_scheme/restaurant_scheme_5.png"" class=""exp-image"">
                    <div class=""question-area"">
                        <p style=""font-size: 20px; font-weight: bold; margin: 0;"">Is there a person in this image?</p>
                    </div>
                </div>","0","main_experiment_trial","5","restaurant_scheme","schematic_sequence","","","","",""
"","","","","","html-keyboard-response","153","490497","0.0-153.0","279C6736060D4CFFB2EB114EC800B71F","019cf706-e610-727f-a01f-f8858cb8bd18","019cf6fe-235e-7d95-bb9b-b011d2fe188e","","null","
                <div class=""stimulus-container"">
                    <img src=""images/schematic_sequence/restaurant_scheme/restaurant_scheme_6.png"" class=""exp-image"">
                    <div class=""question-area""></div> 
                </div>","null","","","","","","","","",""
"","","","","","html-button-response","154","491584","0.0-154.0","279C6736060D4CFFB2EB114EC800B71F","019cf706-e610-727f-a01f-f8858cb8bd18","019cf6fe-235e-7d95-bb9b-b011d2fe188e","","1086","
                <div class=""stimulus-container"">
                    <img src=""images/schematic_sequence/restaurant_scheme/restaurant_scheme_6.png"" class=""exp-image"">
                    <div class=""question-area"">
                        <p style=""font-size: 20px; font-weight: bold; margin: 0;"">Is there a person in this image?</p>
                    </div>
                </div>","1","main_experiment_trial","6","restaurant_scheme","schematic_sequence","","","","",""
"","","","","","html-keyboard-response","155","496586","0.0-155.0","279C6736060D4CFFB2EB114EC800B71F","019cf706-e610-727f-a01f-f8858cb8bd18","019cf6fe-235e-7d95-bb9b-b011d2fe188e","","null","
                <div class=""stimulus-container"">
                    <img src=""images/schematic_sequence/restaurant_scheme/restaurant_scheme_7.png"" class=""exp-image"">
                    <div class=""question-area""></div> 
                </div>","null","","","","","","","","",""
"","","","","","html-button-response","156","497606","0.0-156.0","279C6736060D4CFFB2EB114EC800B71F","019cf706-e610-727f-a01f-f8858cb8bd18","019cf6fe-235e-7d95-bb9b-b011d2fe188e","","1018","
                <div class=""stimulus-container"">
                    <img src=""images/schematic_sequence/restaurant_scheme/restaurant_scheme_7.png"" class=""exp-image"">
                    <div class=""question-area"">
                        <p style=""font-size: 20px; font-weight: bold; margin: 0;"">Is there a person in this image?</p>
                    </div>
                </div>","1","main_experiment_trial","7","restaurant_scheme","schematic_sequence","","","","",""
"","","","","","html-keyboard-response","157","502607","0.0-157.0","279C6736060D4CFFB2EB114EC800B71F","019cf706-e610-727f-a01f-f8858cb8bd18","019cf6fe-235e-7d95-bb9b-b011d2fe188e","","null","
                <div class=""stimulus-container"">
                    <img src=""images/schematic_sequence/restaurant_scheme/restaurant_scheme_8.png"" class=""exp-image"">
                    <div class=""question-area""></div> 
                </div>","null","","","","","","","","",""
"","","","","","html-button-response","158","504287","0.0-158.0","279C6736060D4CFFB2EB114EC800B71F","019cf706-e610-727f-a01f-f8858cb8bd18","019cf6fe-235e-7d95-bb9b-b011d2fe188e","","1679","
                <div class=""stimulus-container"">
                    <img src=""images/schematic_sequence/restaurant_scheme/restaurant_scheme_8.png"" class=""exp-image"">
                    <div class=""question-area"">
                        <p style=""font-size: 20px; font-weight: bold; margin: 0;"">Is there a person in this image?</p>
                    </div>
                </div>","1","main_experiment_trial","8","restaurant_scheme","schematic_sequence","","","","",""
"","","","","","html-keyboard-response","159","509289","0.0-159.0","279C6736060D4CFFB2EB114EC800B71F","019cf706-e610-727f-a01f-f8858cb8bd18","019cf6fe-235e-7d95-bb9b-b011d2fe188e","","null","
                <div class=""stimulus-container"">
                    <img src=""images/schematic_sequence/restaurant_scheme/restaurant_scheme_9.png"" class=""exp-image"">
                    <div class=""question-area""></div> 
                </div>","null","","","","","","","","",""
"","","","","","html-button-response","160","510398","0.0-160.0","279C6736060D4CFFB2EB114EC800B71F","019cf706-e610-727f-a01f-f8858cb8bd18","019cf6fe-235e-7d95-bb9b-b011d2fe188e","","1107","
                <div class=""stimulus-container"">
                    <img src=""images/schematic_sequence/restaurant_scheme/restaurant_scheme_9.png"" class=""exp-image"">
                    <div class=""question-area"">
                        <p style=""font-size: 20px; font-weight: bold; margin: 0;"">Is there a person in this image?</p>
                    </div>
                </div>","0","main_experiment_trial","9","restaurant_scheme","schematic_sequence","","","","",""
"","","","","","html-keyboard-response","161","515399","0.0-161.0","279C6736060D4CFFB2EB114EC800B71F","019cf706-e610-727f-a01f-f8858cb8bd18","019cf6fe-235e-7d95-bb9b-b011d2fe188e","","null","
                <div class=""stimulus-container"">
                    <img src=""images/schematic_sequence/restaurant_scheme/restaurant_scheme_ten.png"" class=""exp-image"">
                    <div class=""question-area""></div> 
                </div>","null","","","","","","","","",""
"","","","","","html-button-response","162","516575","0.0-162.0","279C6736060D4CFFB2EB114EC800B71F","019cf706-e610-727f-a01f-f8858cb8bd18","019cf6fe-235e-7d95-bb9b-b011d2fe188e","","1175","
                <div class=""stimulus-container"">
                    <img src=""images/schematic_sequence/restaurant_scheme/restaurant_scheme_ten.png"" class=""exp-image"">
                    <div class=""question-area"">
                        <p style=""font-size: 20px; font-weight: bold; margin: 0;"">Is there a person in this image?</p>
                    </div>
                </div>","0","main_experiment_trial","ten","restaurant_scheme","schematic_sequence","","","","",""
"","","","","","html-keyboard-response","163","517576","0.0-163.0","279C6736060D4CFFB2EB114EC800B71F","019cf706-e610-727f-a01f-f8858cb8bd18","019cf6fe-235e-7d95-bb9b-b011d2fe188e","","null","<div style=""background-color: white; width: 100vw; height: 100vh;""></div>","null","","","","","","","","",""
"","","","","","html-keyboard-response","164","522577","0.0-164.0","279C6736060D4CFFB2EB114EC800B71F","019cf706-e610-727f-a01f-f8858cb8bd18","019cf6fe-235e-7d95-bb9b-b011d2fe188e","","null","
                <div class=""stimulus-container"">
                    <img src=""images/schematic_sequence/interview_scheme/interview_scheme_1.png"" class=""exp-image"">
                    <div class=""question-area""></div> 
                </div>","null","","","","","","","","",""
"","","","","","html-button-response","165","524056","0.0-165.0","279C6736060D4CFFB2EB114EC800B71F","019cf706-e610-727f-a01f-f8858cb8bd18","019cf6fe-235e-7d95-bb9b-b011d2fe188e","","1478","
                <div class=""stimulus-container"">
                    <img src=""images/schematic_sequence/interview_scheme/interview_scheme_1.png"" class=""exp-image"">
                    <div class=""question-area"">
                        <p style=""font-size: 20px; font-weight: bold; margin: 0;"">Is there a person in this image?</p>
                    </div>
                </div>","1","main_experiment_trial","1","interview_scheme","schematic_sequence","","","","",""
"","","","","","html-keyboard-response","166","529058","0.0-166.0","279C6736060D4CFFB2EB114EC800B71F","019cf706-e610-727f-a01f-f8858cb8bd18","019cf6fe-235e-7d95-bb9b-b011d2fe188e","","null","
                <div class=""stimulus-container"">
                    <img src=""images/schematic_sequence/interview_scheme/interview_scheme_2.png"" class=""exp-image"">
                    <div class=""question-area""></div> 
                </div>","null","","","","","","","","",""
"","","","","","html-button-response","167","531352","0.0-167.0","279C6736060D4CFFB2EB114EC800B71F","019cf706-e610-727f-a01f-f8858cb8bd18","019cf6fe-235e-7d95-bb9b-b011d2fe188e","","2293","
                <div class=""stimulus-container"">
                    <img src=""images/schematic_sequence/interview_scheme/interview_scheme_2.png"" class=""exp-image"">
                    <div class=""question-area"">
                        <p style=""font-size: 20px; font-weight: bold; margin: 0;"">Is there a person in this image?</p>
                    </div>
                </div>","1","main_experiment_trial","2","interview_scheme","schematic_sequence","","","","",""
"","","","","","html-keyboard-response","168","536353","0.0-168.0","279C6736060D4CFFB2EB114EC800B71F","019cf706-e610-727f-a01f-f8858cb8bd18","019cf6fe-235e-7d95-bb9b-b011d2fe188e","","null","
                <div class=""stimulus-container"">
                    <img src=""images/schematic_sequence/interview_scheme/interview_scheme_3.png"" class=""exp-image"">
                    <div class=""question-area""></div> 
                </div>","null","","","","","","","","",""
"","","","","","html-button-response","169","537560","0.0-169.0","279C6736060D4CFFB2EB114EC800B71F","019cf706-e610-727f-a01f-f8858cb8bd18","019cf6fe-235e-7d95-bb9b-b011d2fe188e","","1205","
                <div class=""stimulus-container"">
                    <img src=""images/schematic_sequence/interview_scheme/interview_scheme_3.png"" class=""exp-image"">
                    <div class=""question-area"">
                        <p style=""font-size: 20px; font-weight: bold; margin: 0;"">Is there a person in this image?</p>
                    </div>
                </div>","1","main_experiment_trial","3","interview_scheme","schematic_sequence","","","","",""
"","","","","","html-keyboard-response","170","542562","0.0-170.0","279C6736060D4CFFB2EB114EC800B71F","019cf706-e610-727f-a01f-f8858cb8bd18","019cf6fe-235e-7d95-bb9b-b011d2fe188e","","null","
                <div class=""stimulus-container"">
                    <img src=""images/schematic_sequence/interview_scheme/interview_scheme_4.png"" class=""exp-image"">
                    <div class=""question-area""></div> 
                </div>","null","","","","","","","","",""
"","","","","","html-button-response","171","543848","0.0-171.0","279C6736060D4CFFB2EB114EC800B71F","019cf706-e610-727f-a01f-f8858cb8bd18","019cf6fe-235e-7d95-bb9b-b011d2fe188e","","1285","
                <div class=""stimulus-container"">
                    <img src=""images/schematic_sequence/interview_scheme/interview_scheme_4.png"" class=""exp-image"">
                    <div class=""question-area"">
                        <p style=""font-size: 20px; font-weight: bold; margin: 0;"">Is there a person in this image?</p>
                    </div>
                </div>","1","main_experiment_trial","4","interview_scheme","schematic_sequence","","","","",""
"","","","","","html-keyboard-response","172","548849","0.0-172.0","279C6736060D4CFFB2EB114EC800B71F","019cf706-e610-727f-a01f-f8858cb8bd18","019cf6fe-235e-7d95-bb9b-b011d2fe188e","","null","
                <div class=""stimulus-container"">
                    <img src=""images/schematic_sequence/interview_scheme/interview_scheme_5.png"" class=""exp-image"">
                    <div class=""question-area""></div> 
                </div>","null","","","","","","","","",""
"","","","","","html-button-response","173","551025","0.0-173.0","279C6736060D4CFFB2EB114EC800B71F","019cf706-e610-727f-a01f-f8858cb8bd18","019cf6fe-235e-7d95-bb9b-b011d2fe188e","","2174","
                <div class=""stimulus-container"">
                    <img src=""images/schematic_sequence/interview_scheme/interview_scheme_5.png"" class=""exp-image"">
                    <div class=""question-area"">
                        <p style=""font-size: 20px; font-weight: bold; margin: 0;"">Is there a person in this image?</p>
                    </div>
                </div>","0","main_experiment_trial","5","interview_scheme","schematic_sequence","","","","",""
"","","","","","html-keyboard-response","174","556026","0.0-174.0","279C6736060D4CFFB2EB114EC800B71F","019cf706-e610-727f-a01f-f8858cb8bd18","019cf6fe-235e-7d95-bb9b-b011d2fe188e","","null","
                <div class=""stimulus-container"">
                    <img src=""images/schematic_sequence/interview_scheme/interview_scheme_6.png"" class=""exp-image"">
                    <div class=""question-area""></div> 
                </div>","null","","","","","","","","",""
"","","","","","html-button-response","175","558233","0.0-175.0","279C6736060D4CFFB2EB114EC800B71F","019cf706-e610-727f-a01f-f8858cb8bd18","019cf6fe-235e-7d95-bb9b-b011d2fe188e","","2206","
                <div class=""stimulus-container"">
                    <img src=""images/schematic_sequence/interview_scheme/interview_scheme_6.png"" class=""exp-image"">
                    <div class=""question-area"">
                        <p style=""font-size: 20px; font-weight: bold; margin: 0;"">Is there a person in this image?</p>
                    </div>
                </div>","0","main_experiment_trial","6","interview_scheme","schematic_sequence","","","","",""
"","","","","","html-keyboard-response","176","563235","0.0-176.0","279C6736060D4CFFB2EB114EC800B71F","019cf706-e610-727f-a01f-f8858cb8bd18","019cf6fe-235e-7d95-bb9b-b011d2fe188e","","null","
                <div class=""stimulus-container"">
                    <img src=""images/schematic_sequence/interview_scheme/interview_scheme_7.png"" class=""exp-image"">
                    <div class=""question-area""></div> 
                </div>","null","","","","","","","","",""
"","","","","","html-button-response","177","563807","0.0-177.0","279C6736060D4CFFB2EB114EC800B71F","019cf706-e610-727f-a01f-f8858cb8bd18","019cf6fe-235e-7d95-bb9b-b011d2fe188e","","571","
                <div class=""stimulus-container"">
                    <img src=""images/schematic_sequence/interview_scheme/interview_scheme_7.png"" class=""exp-image"">
                    <div class=""question-area"">
                        <p style=""font-size: 20px; font-weight: bold; margin: 0;"">Is there a person in this image?</p>
                    </div>
                </div>","0","main_experiment_trial","7","interview_scheme","schematic_sequence","","","","",""
"","","","","","html-keyboard-response","178","568808","0.0-178.0","279C6736060D4CFFB2EB114EC800B71F","019cf706-e610-727f-a01f-f8858cb8bd18","019cf6fe-235e-7d95-bb9b-b011d2fe188e","","null","
                <div class=""stimulus-container"">
                    <img src=""images/schematic_sequence/interview_scheme/interview_scheme_8.png"" class=""exp-image"">
                    <div class=""question-area""></div> 
                </div>","null","","","","","","","","",""
"","","","","","html-button-response","179","572577","0.0-179.0","279C6736060D4CFFB2EB114EC800B71F","019cf706-e610-727f-a01f-f8858cb8bd18","019cf6fe-235e-7d95-bb9b-b011d2fe188e","","null","
                <div class=""stimulus-container"">
                    <img src=""images/schematic_sequence/interview_scheme/interview_scheme_8.png"" class=""exp-image"">
                    <div class=""question-area"">
                        <p style=""font-size: 20px; font-weight: bold; margin: 0;"">Is there a person in this image?</p>
                    </div>
                </div>","null","main_experiment_trial","8","interview_scheme","schematic_sequence","","","","",""
"","","","","","html-keyboard-response","180","578578","0.0-180.0","279C6736060D4CFFB2EB114EC800B71F","019cf706-e610-727f-a01f-f8858cb8bd18","019cf6fe-235e-7d95-bb9b-b011d2fe188e","","null","
                <div class=""stimulus-container"">
                    <img src=""images/schematic_sequence/interview_scheme/interview_scheme_9.png"" class=""exp-image"">
                    <div class=""question-area""></div> 
                </div>","null","","","","","","","","",""
"","","","","","html-button-response","181","582577","0.0-181.0","279C6736060D4CFFB2EB114EC800B71F","019cf706-e610-727f-a01f-f8858cb8bd18","019cf6fe-235e-7d95-bb9b-b011d2fe188e","","null","
                <div class=""stimulus-container"">
                    <img src=""images/schematic_sequence/interview_scheme/interview_scheme_9.png"" class=""exp-image"">
                    <div class=""question-area"">
                        <p style=""font-size: 20px; font-weight: bold; margin: 0;"">Is there a person in this image?</p>
                    </div>
                </div>","null","main_experiment_trial","9","interview_scheme","schematic_sequence","","","","",""
"","","","","","html-keyboard-response","182","588577","0.0-182.0","279C6736060D4CFFB2EB114EC800B71F","019cf706-e610-727f-a01f-f8858cb8bd18","019cf6fe-235e-7d95-bb9b-b011d2fe188e","","null","
                <div class=""stimulus-container"">
                    <img src=""images/schematic_sequence/interview_scheme/interview_scheme_ten.png"" class=""exp-image"">
                    <div class=""question-area""></div> 
                </div>","null","","","","","","","","",""
"","","","","","html-button-response","183","592577","0.0-183.0","279C6736060D4CFFB2EB114EC800B71F","019cf706-e610-727f-a01f-f8858cb8bd18","019cf6fe-235e-7d95-bb9b-b011d2fe188e","","null","
                <div class=""stimulus-container"">
                    <img src=""images/schematic_sequence/interview_scheme/interview_scheme_ten.png"" class=""exp-image"">
                    <div class=""question-area"">
