"success","timeout","failed_images","failed_audio","failed_video","trial_type","trial_index","time_elapsed","internal_node_id","subject_id","study_id","session_id","view_history","rt","stimulus","response","task","image_index","folder","sequence_type","presentation_order","valuable_image_index","reward_type","distance_from_x","target_X","chosen_image_index","is_x_plus_dist","correct_choice"
"true","false","[]","[]","[]","preload","0","4009","0.0-0.0","5BE2FD19A74B4FC5A58F81F792B31130","019cfc7d-8043-7591-a6f5-6ee4e3d88cf2","019cfc7b-6c7b-7b1b-afe7-acad8efc6711","","","","","","","","","","","","","","","",""
"","","","","","instructions","1","9183","0.0-1.0","5BE2FD19A74B4FC5A58F81F792B31130","019cfc7d-8043-7591-a6f5-6ee4e3d88cf2","019cfc7b-6c7b-7b1b-afe7-acad8efc6711","[{""page_index"":0,""viewing_time"":5173}]","5173","","","","","","","","","","","","","",""
"","","","","","instructions","2","14627","0.0-2.0","5BE2FD19A74B4FC5A58F81F792B31130","019cfc7d-8043-7591-a6f5-6ee4e3d88cf2","019cfc7b-6c7b-7b1b-afe7-acad8efc6711","[{""page_index"":0,""viewing_time"":5444}]","5444","","","","","","","","","","","","","",""
"true","","","","","fullscreen","3","20574","0.0-3.0","5BE2FD19A74B4FC5A58F81F792B31130","019cfc7d-8043-7591-a6f5-6ee4e3d88cf2","019cfc7b-6c7b-7b1b-afe7-acad8efc6711","","4940","","","","","","","","","","","","","",""
"","","","","","instructions","4","30198","0.0-4.0","5BE2FD19A74B4FC5A58F81F792B31130","019cfc7d-8043-7591-a6f5-6ee4e3d88cf2","019cfc7b-6c7b-7b1b-afe7-acad8efc6711","[{""page_index"":0,""viewing_time"":9624}]","9624","","","","","","","","","","","","","",""
"","","","","","instructions","5","42172","0.0-5.0","5BE2FD19A74B4FC5A58F81F792B31130","019cfc7d-8043-7591-a6f5-6ee4e3d88cf2","019cfc7b-6c7b-7b1b-afe7-acad8efc6711","[{""page_index"":0,""viewing_time"":11974}]","11974","","","","","","","","","","","","","",""
"","","","","","html-keyboard-response","6","46186","0.0-6.0","5BE2FD19A74B4FC5A58F81F792B31130","019cfc7d-8043-7591-a6f5-6ee4e3d88cf2","019cfc7b-6c7b-7b1b-afe7-acad8efc6711","","null","
                <div class=""stimulus-container"">
                    <img src=""images/instructions/movie_1.png"" class=""exp-image"">
                    <div class=""question-area""></div> 
                </div>","null","","","","","","","","","","","",""
"","","","","","html-button-response","7","49188","0.0-7.0","5BE2FD19A74B4FC5A58F81F792B31130","019cfc7d-8043-7591-a6f5-6ee4e3d88cf2","019cfc7b-6c7b-7b1b-afe7-acad8efc6711","","null","
                <div class=""stimulus-container"">
                    <img src=""images/instructions/movie_1.png"" class=""exp-image"">
                    <div class=""question-area"">
                        <p style=""font-size: 20px; font-weight: bold; margin: 0;"">Was there a person in this image?</p>
                    </div>
                </div>","null","example_question","1","","","","","","","","","",""
"","","","","","html-keyboard-response","8","53200","0.0-8.0","5BE2FD19A74B4FC5A58F81F792B31130","019cfc7d-8043-7591-a6f5-6ee4e3d88cf2","019cfc7b-6c7b-7b1b-afe7-acad8efc6711","","null","
                <div class=""stimulus-container"">
                    <img src=""images/instructions/movie_2.png"" class=""exp-image"">
                    <div class=""question-area""></div> 
                </div>","null","","","","","","","","","","","",""
"","","","","","html-button-response","9","53854","0.0-9.0","5BE2FD19A74B4FC5A58F81F792B31130","019cfc7d-8043-7591-a6f5-6ee4e3d88cf2","019cfc7b-6c7b-7b1b-afe7-acad8efc6711","","653","
                <div class=""stimulus-container"">
                    <img src=""images/instructions/movie_2.png"" class=""exp-image"">
                    <div class=""question-area"">
                        <p style=""font-size: 20px; font-weight: bold; margin: 0;"">Was there a person in this image?</p>
                    </div>
                </div>","0","example_question","2","","","","","","","","","",""
"","","","","","html-keyboard-response","10","57866","0.0-10.0","5BE2FD19A74B4FC5A58F81F792B31130","019cfc7d-8043-7591-a6f5-6ee4e3d88cf2","019cfc7b-6c7b-7b1b-afe7-acad8efc6711","","null","
                <div class=""stimulus-container"">
                    <img src=""images/instructions/movie_3.png"" class=""exp-image"">
                    <div class=""question-area""></div> 
                </div>","null","","","","","","","","","","","",""
"","","","","","html-button-response","11","58489","0.0-11.0","5BE2FD19A74B4FC5A58F81F792B31130","019cfc7d-8043-7591-a6f5-6ee4e3d88cf2","019cfc7b-6c7b-7b1b-afe7-acad8efc6711","","622","
                <div class=""stimulus-container"">
                    <img src=""images/instructions/movie_3.png"" class=""exp-image"">
                    <div class=""question-area"">
                        <p style=""font-size: 20px; font-weight: bold; margin: 0;"">Was there a person in this image?</p>
                    </div>
                </div>","0","example_question","3","","","","","","","","","",""
"","","","","","html-keyboard-response","12","62498","0.0-12.0","5BE2FD19A74B4FC5A58F81F792B31130","019cfc7d-8043-7591-a6f5-6ee4e3d88cf2","019cfc7b-6c7b-7b1b-afe7-acad8efc6711","","null","
                <div class=""stimulus-container"">
                    <img src=""images/instructions/movie_4.png"" class=""exp-image"">
                    <div class=""question-area""></div> 
                </div>","null","","","","","","","","","","","",""
"","","","","","html-button-response","13","62949","0.0-13.0","5BE2FD19A74B4FC5A58F81F792B31130","019cfc7d-8043-7591-a6f5-6ee4e3d88cf2","019cfc7b-6c7b-7b1b-afe7-acad8efc6711","","451","
                <div class=""stimulus-container"">
                    <img src=""images/instructions/movie_4.png"" class=""exp-image"">
                    <div class=""question-area"">
                        <p style=""font-size: 20px; font-weight: bold; margin: 0;"">Was there a person in this image?</p>
                    </div>
                </div>","0","example_question","4","","","","","","","","","",""
"","","","","","instructions","14","65397","0.0-14.0","5BE2FD19A74B4FC5A58F81F792B31130","019cfc7d-8043-7591-a6f5-6ee4e3d88cf2","019cfc7b-6c7b-7b1b-afe7-acad8efc6711","[{""page_index"":0,""viewing_time"":2447}]","2448","","","","","","","","","","","","","",""
"","","","","","instructions","15","71423","0.0-15.0","5BE2FD19A74B4FC5A58F81F792B31130","019cfc7d-8043-7591-a6f5-6ee4e3d88cf2","019cfc7b-6c7b-7b1b-afe7-acad8efc6711","[{""page_index"":0,""viewing_time"":6026}]","6026","","","","","","","","","","","","","",""
"","","","","","html-keyboard-response","16","76425","0.0-16.0","5BE2FD19A74B4FC5A58F81F792B31130","019cfc7d-8043-7591-a6f5-6ee4e3d88cf2","019cfc7b-6c7b-7b1b-afe7-acad8efc6711","","null","<div style=""background-color: white; width: 100vw; height: 100vh;""></div>","null","","","","","","","","","","","",""
"","","","","","html-keyboard-response","17","81441","0.0-17.0","5BE2FD19A74B4FC5A58F81F792B31130","019cfc7d-8043-7591-a6f5-6ee4e3d88cf2","019cfc7b-6c7b-7b1b-afe7-acad8efc6711","","null","
                <div class=""stimulus-container"">
                    <img src=""images/schematic_sequence/dinner_party_scheme/dinner_party_scheme_1.png"" class=""exp-image"">
                    <div class=""question-area""></div> 
                </div>","null","","","","","","","","","","","",""
"","","","","","html-button-response","18","82450","0.0-18.0","5BE2FD19A74B4FC5A58F81F792B31130","019cfc7d-8043-7591-a6f5-6ee4e3d88cf2","019cfc7b-6c7b-7b1b-afe7-acad8efc6711","","1009","
                <div class=""stimulus-container"">
                    <img src=""images/schematic_sequence/dinner_party_scheme/dinner_party_scheme_1.png"" class=""exp-image"">
                    <div class=""question-area"">
                        <p style=""font-size: 20px; font-weight: bold; margin: 0;"">Is there a person in this image?</p>
                    </div>
                </div>","0","main_experiment_trial","1","dinner_party_scheme","schematic_sequence","chronological","","","","","","",""
"","","","","","html-keyboard-response","19","87462","0.0-19.0","5BE2FD19A74B4FC5A58F81F792B31130","019cfc7d-8043-7591-a6f5-6ee4e3d88cf2","019cfc7b-6c7b-7b1b-afe7-acad8efc6711","","null","
                <div class=""stimulus-container"">
                    <img src=""images/schematic_sequence/dinner_party_scheme/dinner_party_scheme_2.png"" class=""exp-image"">
                    <div class=""question-area""></div> 
                </div>","null","","","","","","","","","","","",""
"","","","","","html-button-response","20","88245","0.0-20.0","5BE2FD19A74B4FC5A58F81F792B31130","019cfc7d-8043-7591-a6f5-6ee4e3d88cf2","019cfc7b-6c7b-7b1b-afe7-acad8efc6711","","782","
                <div class=""stimulus-container"">
                    <img src=""images/schematic_sequence/dinner_party_scheme/dinner_party_scheme_2.png"" class=""exp-image"">
                    <div class=""question-area"">
                        <p style=""font-size: 20px; font-weight: bold; margin: 0;"">Is there a person in this image?</p>
                    </div>
                </div>","0","main_experiment_trial","2","dinner_party_scheme","schematic_sequence","chronological","","","","","","",""
"","","","","","html-keyboard-response","21","93260","0.0-21.0","5BE2FD19A74B4FC5A58F81F792B31130","019cfc7d-8043-7591-a6f5-6ee4e3d88cf2","019cfc7b-6c7b-7b1b-afe7-acad8efc6711","","null","
                <div class=""stimulus-container"">
                    <img src=""images/schematic_sequence/dinner_party_scheme/dinner_party_scheme_3.png"" class=""exp-image"">
                    <div class=""question-area""></div> 
                </div>","null","","","","","","","","","","","",""
"","","","","","html-button-response","22","93907","0.0-22.0","5BE2FD19A74B4FC5A58F81F792B31130","019cfc7d-8043-7591-a6f5-6ee4e3d88cf2","019cfc7b-6c7b-7b1b-afe7-acad8efc6711","","646","
                <div class=""stimulus-container"">
                    <img src=""images/schematic_sequence/dinner_party_scheme/dinner_party_scheme_3.png"" class=""exp-image"">
                    <div class=""question-area"">
                        <p style=""font-size: 20px; font-weight: bold; margin: 0;"">Is there a person in this image?</p>
                    </div>
                </div>","0","main_experiment_trial","3","dinner_party_scheme","schematic_sequence","chronological","","","","","","",""
"","","","","","html-keyboard-response","23","98912","0.0-23.0","5BE2FD19A74B4FC5A58F81F792B31130","019cfc7d-8043-7591-a6f5-6ee4e3d88cf2","019cfc7b-6c7b-7b1b-afe7-acad8efc6711","","null","
                <div class=""stimulus-container"">
                    <img src=""images/schematic_sequence/dinner_party_scheme/dinner_party_scheme_4.png"" class=""exp-image"">
                    <div class=""question-area""></div> 
                </div>","null","","","","","","","","","","","",""
"","","","","","html-button-response","24","99419","0.0-24.0","5BE2FD19A74B4FC5A58F81F792B31130","019cfc7d-8043-7591-a6f5-6ee4e3d88cf2","019cfc7b-6c7b-7b1b-afe7-acad8efc6711","","506","
                <div class=""stimulus-container"">
                    <img src=""images/schematic_sequence/dinner_party_scheme/dinner_party_scheme_4.png"" class=""exp-image"">
                    <div class=""question-area"">
                        <p style=""font-size: 20px; font-weight: bold; margin: 0;"">Is there a person in this image?</p>
                    </div>
                </div>","0","main_experiment_trial","4","dinner_party_scheme","schematic_sequence","chronological","","","","","","",""
"","","","","","html-keyboard-response","25","104427","0.0-25.0","5BE2FD19A74B4FC5A58F81F792B31130","019cfc7d-8043-7591-a6f5-6ee4e3d88cf2","019cfc7b-6c7b-7b1b-afe7-acad8efc6711","","null","
                <div class=""stimulus-container"">
                    <img src=""images/schematic_sequence/dinner_party_scheme/dinner_party_scheme_5.png"" class=""exp-image"">
                    <div class=""question-area""></div> 
                </div>","null","","","","","","","","","","","",""
"","","","","","html-button-response","26","104887","0.0-26.0","5BE2FD19A74B4FC5A58F81F792B31130","019cfc7d-8043-7591-a6f5-6ee4e3d88cf2","019cfc7b-6c7b-7b1b-afe7-acad8efc6711","","459","
                <div class=""stimulus-container"">
                    <img src=""images/schematic_sequence/dinner_party_scheme/dinner_party_scheme_5.png"" class=""exp-image"">
                    <div class=""question-area"">
                        <p style=""font-size: 20px; font-weight: bold; margin: 0;"">Is there a person in this image?</p>
                    </div>
                </div>","0","main_experiment_trial","5","dinner_party_scheme","schematic_sequence","chronological","","","","","","",""
"","","","","","html-keyboard-response","27","109888","0.0-27.0","5BE2FD19A74B4FC5A58F81F792B31130","019cfc7d-8043-7591-a6f5-6ee4e3d88cf2","019cfc7b-6c7b-7b1b-afe7-acad8efc6711","","null","
                <div class=""stimulus-container"">
                    <img src=""images/schematic_sequence/dinner_party_scheme/dinner_party_scheme_6.png"" class=""exp-image"">
                    <div class=""question-area""></div> 
                </div>","null","","","","","","","","","","","",""
"","","","","","html-button-response","28","110291","0.0-28.0","5BE2FD19A74B4FC5A58F81F792B31130","019cfc7d-8043-7591-a6f5-6ee4e3d88cf2","019cfc7b-6c7b-7b1b-afe7-acad8efc6711","","403","
                <div class=""stimulus-container"">
                    <img src=""images/schematic_sequence/dinner_party_scheme/dinner_party_scheme_6.png"" class=""exp-image"">
                    <div class=""question-area"">
                        <p style=""font-size: 20px; font-weight: bold; margin: 0;"">Is there a person in this image?</p>
                    </div>
                </div>","0","main_experiment_trial","6","dinner_party_scheme","schematic_sequence","chronological","","","","","","",""
"","","","","","html-keyboard-response","29","115294","0.0-29.0","5BE2FD19A74B4FC5A58F81F792B31130","019cfc7d-8043-7591-a6f5-6ee4e3d88cf2","019cfc7b-6c7b-7b1b-afe7-acad8efc6711","","null","
                <div class=""stimulus-container"">
                    <img src=""images/schematic_sequence/dinner_party_scheme/dinner_party_scheme_7.png"" class=""exp-image"">
                    <div class=""question-area""></div> 
                </div>","null","","","","","","","","","","","",""
"","","","","","html-button-response","30","115744","0.0-30.0","5BE2FD19A74B4FC5A58F81F792B31130","019cfc7d-8043-7591-a6f5-6ee4e3d88cf2","019cfc7b-6c7b-7b1b-afe7-acad8efc6711","","450","
                <div class=""stimulus-container"">
                    <img src=""images/schematic_sequence/dinner_party_scheme/dinner_party_scheme_7.png"" class=""exp-image"">
                    <div class=""question-area"">
                        <p style=""font-size: 20px; font-weight: bold; margin: 0;"">Is there a person in this image?</p>
                    </div>
                </div>","0","main_experiment_trial","7","dinner_party_scheme","schematic_sequence","chronological","","","","","","",""
"","","","","","html-keyboard-response","31","120749","0.0-31.0","5BE2FD19A74B4FC5A58F81F792B31130","019cfc7d-8043-7591-a6f5-6ee4e3d88cf2","019cfc7b-6c7b-7b1b-afe7-acad8efc6711","","null","
                <div class=""stimulus-container"">
                    <img src=""images/schematic_sequence/dinner_party_scheme/dinner_party_scheme_8.png"" class=""exp-image"">
                    <div class=""question-area""></div> 
                </div>","null","","","","","","","","","","","",""
"","","","","","html-button-response","32","121138","0.0-32.0","5BE2FD19A74B4FC5A58F81F792B31130","019cfc7d-8043-7591-a6f5-6ee4e3d88cf2","019cfc7b-6c7b-7b1b-afe7-acad8efc6711","","389","
                <div class=""stimulus-container"">
                    <img src=""images/schematic_sequence/dinner_party_scheme/dinner_party_scheme_8.png"" class=""exp-image"">
                    <div class=""question-area"">
                        <p style=""font-size: 20px; font-weight: bold; margin: 0;"">Is there a person in this image?</p>
                    </div>
                </div>","0","main_experiment_trial","8","dinner_party_scheme","schematic_sequence","chronological","","","","","","",""
"","","","","","html-keyboard-response","33","126146","0.0-33.0","5BE2FD19A74B4FC5A58F81F792B31130","019cfc7d-8043-7591-a6f5-6ee4e3d88cf2","019cfc7b-6c7b-7b1b-afe7-acad8efc6711","","null","
                <div class=""stimulus-container"">
                    <img src=""images/schematic_sequence/dinner_party_scheme/dinner_party_scheme_9.png"" class=""exp-image"">
                    <div class=""question-area""></div> 
                </div>","null","","","","","","","","","","","",""
"","","","","","html-button-response","34","126582","0.0-34.0","5BE2FD19A74B4FC5A58F81F792B31130","019cfc7d-8043-7591-a6f5-6ee4e3d88cf2","019cfc7b-6c7b-7b1b-afe7-acad8efc6711","","436","
                <div class=""stimulus-container"">
                    <img src=""images/schematic_sequence/dinner_party_scheme/dinner_party_scheme_9.png"" class=""exp-image"">
                    <div class=""question-area"">
                        <p style=""font-size: 20px; font-weight: bold; margin: 0;"">Is there a person in this image?</p>
                    </div>
                </div>","0","main_experiment_trial","9","dinner_party_scheme","schematic_sequence","chronological","","","","","","",""
"","","","","","html-keyboard-response","35","131592","0.0-35.0","5BE2FD19A74B4FC5A58F81F792B31130","019cfc7d-8043-7591-a6f5-6ee4e3d88cf2","019cfc7b-6c7b-7b1b-afe7-acad8efc6711","","null","
                <div class=""stimulus-container"">
                    <img src=""images/schematic_sequence/dinner_party_scheme/dinner_party_scheme_ten.png"" class=""exp-image"">
                    <div class=""question-area""></div> 
                </div>","null","","","","","","","","","","","",""
"","","","","","html-button-response","36","132042","0.0-36.0","5BE2FD19A74B4FC5A58F81F792B31130","019cfc7d-8043-7591-a6f5-6ee4e3d88cf2","019cfc7b-6c7b-7b1b-afe7-acad8efc6711","","449","
                <div class=""stimulus-container"">
                    <img src=""images/schematic_sequence/dinner_party_scheme/dinner_party_scheme_ten.png"" class=""exp-image"">
                    <div class=""question-area"">
                        <p style=""font-size: 20px; font-weight: bold; margin: 0;"">Is there a person in this image?</p>
                    </div>
                </div>","0","main_experiment_trial","ten","dinner_party_scheme","schematic_sequence","chronological","","","","","","",""
"","","","","","html-keyboard-response","37","137049","0.0-37.0","5BE2FD19A74B4FC5A58F81F792B31130","019cfc7d-8043-7591-a6f5-6ee4e3d88cf2","019cfc7b-6c7b-7b1b-afe7-acad8efc6711","","null","<div style=""background-color: white; width: 100vw; height: 100vh;""></div>","null","","","","","","","","","","","",""
"","","","","","html-keyboard-response","38","142053","0.0-38.0","5BE2FD19A74B4FC5A58F81F792B31130","019cfc7d-8043-7591-a6f5-6ee4e3d88cf2","019cfc7b-6c7b-7b1b-afe7-acad8efc6711","","null","
                <div class=""stimulus-container"">
                    <img src=""images/semantic_sequence/maintaining_a_car_semantic/maintaining_a_car_semantic_1.png"" class=""exp-image"">
                    <div class=""question-area""></div> 
                </div>","null","","","","","","","","","","","",""
"","","","","","html-button-response","39","143166","0.0-39.0","5BE2FD19A74B4FC5A58F81F792B31130","019cfc7d-8043-7591-a6f5-6ee4e3d88cf2","019cfc7b-6c7b-7b1b-afe7-acad8efc6711","","1112","
                <div class=""stimulus-container"">
                    <img src=""images/semantic_sequence/maintaining_a_car_semantic/maintaining_a_car_semantic_1.png"" class=""exp-image"">
                    <div class=""question-area"">
                        <p style=""font-size: 20px; font-weight: bold; margin: 0;"">Is there a person in this image?</p>
                    </div>
                </div>","0","main_experiment_trial","1","maintaining_a_car_semantic","semantic_sequence","chronological","","","","","","",""
"","","","","","html-keyboard-response","40","148177","0.0-40.0","5BE2FD19A74B4FC5A58F81F792B31130","019cfc7d-8043-7591-a6f5-6ee4e3d88cf2","019cfc7b-6c7b-7b1b-afe7-acad8efc6711","","null","
                <div class=""stimulus-container"">
                    <img src=""images/semantic_sequence/maintaining_a_car_semantic/maintaining_a_car_semantic_2.png"" class=""exp-image"">
                    <div class=""question-area""></div> 
                </div>","null","","","","","","","","","","","",""
"","","","","","html-button-response","41","148628","0.0-41.0","5BE2FD19A74B4FC5A58F81F792B31130","019cfc7d-8043-7591-a6f5-6ee4e3d88cf2","019cfc7b-6c7b-7b1b-afe7-acad8efc6711","","450","
                <div class=""stimulus-container"">
                    <img src=""images/semantic_sequence/maintaining_a_car_semantic/maintaining_a_car_semantic_2.png"" class=""exp-image"">
                    <div class=""question-area"">
                        <p style=""font-size: 20px; font-weight: bold; margin: 0;"">Is there a person in this image?</p>
                    </div>
                </div>","0","main_experiment_trial","2","maintaining_a_car_semantic","semantic_sequence","chronological","","","","","","",""
"","","","","","html-keyboard-response","42","153642","0.0-42.0","5BE2FD19A74B4FC5A58F81F792B31130","019cfc7d-8043-7591-a6f5-6ee4e3d88cf2","019cfc7b-6c7b-7b1b-afe7-acad8efc6711","","null","
                <div class=""stimulus-container"">
                    <img src=""images/semantic_sequence/maintaining_a_car_semantic/maintaining_a_car_semantic_3.png"" class=""exp-image"">
                    <div class=""question-area""></div> 
                </div>","null","","","","","","","","","","","",""
"","","","","","html-button-response","43","154093","0.0-43.0","5BE2FD19A74B4FC5A58F81F792B31130","019cfc7d-8043-7591-a6f5-6ee4e3d88cf2","019cfc7b-6c7b-7b1b-afe7-acad8efc6711","","451","
                <div class=""stimulus-container"">
                    <img src=""images/semantic_sequence/maintaining_a_car_semantic/maintaining_a_car_semantic_3.png"" class=""exp-image"">
                    <div class=""question-area"">
                        <p style=""font-size: 20px; font-weight: bold; margin: 0;"">Is there a person in this image?</p>
                    </div>
                </div>","0","main_experiment_trial","3","maintaining_a_car_semantic","semantic_sequence","chronological","","","","","","",""
"","","","","","html-keyboard-response","44","159106","0.0-44.0","5BE2FD19A74B4FC5A58F81F792B31130","019cfc7d-8043-7591-a6f5-6ee4e3d88cf2","019cfc7b-6c7b-7b1b-afe7-acad8efc6711","","null","
                <div class=""stimulus-container"">
                    <img src=""images/semantic_sequence/maintaining_a_car_semantic/maintaining_a_car_semantic_4.png"" class=""exp-image"">
                    <div class=""question-area""></div> 
                </div>","null","","","","","","","","","","","",""
"","","","","","html-button-response","45","159636","0.0-45.0","5BE2FD19A74B4FC5A58F81F792B31130","019cfc7d-8043-7591-a6f5-6ee4e3d88cf2","019cfc7b-6c7b-7b1b-afe7-acad8efc6711","","529","
                <div class=""stimulus-container"">
                    <img src=""images/semantic_sequence/maintaining_a_car_semantic/maintaining_a_car_semantic_4.png"" class=""exp-image"">
                    <div class=""question-area"">
                        <p style=""font-size: 20px; font-weight: bold; margin: 0;"">Is there a person in this image?</p>
                    </div>
                </div>","0","main_experiment_trial","4","maintaining_a_car_semantic","semantic_sequence","chronological","","","","","","",""
"","","","","","html-keyboard-response","46","164648","0.0-46.0","5BE2FD19A74B4FC5A58F81F792B31130","019cfc7d-8043-7591-a6f5-6ee4e3d88cf2","019cfc7b-6c7b-7b1b-afe7-acad8efc6711","","null","
                <div class=""stimulus-container"">
                    <img src=""images/semantic_sequence/maintaining_a_car_semantic/maintaining_a_car_semantic_5.png"" class=""exp-image"">
                    <div class=""question-area""></div> 
                </div>","null","","","","","","","","","","","",""
"","","","","","html-button-response","47","165245","0.0-47.0","5BE2FD19A74B4FC5A58F81F792B31130","019cfc7d-8043-7591-a6f5-6ee4e3d88cf2","019cfc7b-6c7b-7b1b-afe7-acad8efc6711","","596","
                <div class=""stimulus-container"">
                    <img src=""images/semantic_sequence/maintaining_a_car_semantic/maintaining_a_car_semantic_5.png"" class=""exp-image"">
                    <div class=""question-area"">
                        <p style=""font-size: 20px; font-weight: bold; margin: 0;"">Is there a person in this image?</p>
                    </div>
                </div>","0","main_experiment_trial","5","maintaining_a_car_semantic","semantic_sequence","chronological","","","","","","",""
"","","","","","html-keyboard-response","48","170260","0.0-48.0","5BE2FD19A74B4FC5A58F81F792B31130","019cfc7d-8043-7591-a6f5-6ee4e3d88cf2","019cfc7b-6c7b-7b1b-afe7-acad8efc6711","","null","
                <div class=""stimulus-container"">
                    <img src=""images/semantic_sequence/maintaining_a_car_semantic/maintaining_a_car_semantic_6.png"" class=""exp-image"">
                    <div class=""question-area""></div> 
                </div>","null","","","","","","","","","","","",""
"","","","","","html-button-response","49","170778","0.0-49.0","5BE2FD19A74B4FC5A58F81F792B31130","019cfc7d-8043-7591-a6f5-6ee4e3d88cf2","019cfc7b-6c7b-7b1b-afe7-acad8efc6711","","518","
                <div class=""stimulus-container"">
                    <img src=""images/semantic_sequence/maintaining_a_car_semantic/maintaining_a_car_semantic_6.png"" class=""exp-image"">
                    <div class=""question-area"">
                        <p style=""font-size: 20px; font-weight: bold; margin: 0;"">Is there a person in this image?</p>
                    </div>
                </div>","0","main_experiment_trial","6","maintaining_a_car_semantic","semantic_sequence","chronological","","","","","","",""
"","","","","","html-keyboard-response","50","175784","0.0-50.0","5BE2FD19A74B4FC5A58F81F792B31130","019cfc7d-8043-7591-a6f5-6ee4e3d88cf2","019cfc7b-6c7b-7b1b-afe7-acad8efc6711","","null","
                <div class=""stimulus-container"">
                    <img src=""images/semantic_sequence/maintaining_a_car_semantic/maintaining_a_car_semantic_7.png"" class=""exp-image"">
                    <div class=""question-area""></div> 
                </div>","null","","","","","","","","","","","",""
"","","","","","html-button-response","51","176250","0.0-51.0","5BE2FD19A74B4FC5A58F81F792B31130","019cfc7d-8043-7591-a6f5-6ee4e3d88cf2","019cfc7b-6c7b-7b1b-afe7-acad8efc6711","","465","
                <div class=""stimulus-container"">
                    <img src=""images/semantic_sequence/maintaining_a_car_semantic/maintaining_a_car_semantic_7.png"" class=""exp-image"">
                    <div class=""question-area"">
                        <p style=""font-size: 20px; font-weight: bold; margin: 0;"">Is there a person in this image?</p>
                    </div>
                </div>","0","main_experiment_trial","7","maintaining_a_car_semantic","semantic_sequence","chronological","","","","","","",""
"","","","","","html-keyboard-response","52","181265","0.0-52.0","5BE2FD19A74B4FC5A58F81F792B31130","019cfc7d-8043-7591-a6f5-6ee4e3d88cf2","019cfc7b-6c7b-7b1b-afe7-acad8efc6711","","null","
                <div class=""stimulus-container"">
                    <img src=""images/semantic_sequence/maintaining_a_car_semantic/maintaining_a_car_semantic_8.png"" class=""exp-image"">
                    <div class=""question-area""></div> 
                </div>","null","","","","","","","","","","","",""
"","","","","","html-button-response","53","181791","0.0-53.0","5BE2FD19A74B4FC5A58F81F792B31130","019cfc7d-8043-7591-a6f5-6ee4e3d88cf2","019cfc7b-6c7b-7b1b-afe7-acad8efc6711","","525","
                <div class=""stimulus-container"">
                    <img src=""images/semantic_sequence/maintaining_a_car_semantic/maintaining_a_car_semantic_8.png"" class=""exp-image"">
                    <div class=""question-area"">
                        <p style=""font-size: 20px; font-weight: bold; margin: 0;"">Is there a person in this image?</p>
                    </div>
                </div>","0","main_experiment_trial","8","maintaining_a_car_semantic","semantic_sequence","chronological","","","","","","",""
"","","","","","html-keyboard-response","54","186800","0.0-54.0","5BE2FD19A74B4FC5A58F81F792B31130","019cfc7d-8043-7591-a6f5-6ee4e3d88cf2","019cfc7b-6c7b-7b1b-afe7-acad8efc6711","","null","
                <div class=""stimulus-container"">
                    <img src=""images/semantic_sequence/maintaining_a_car_semantic/maintaining_a_car_semantic_9.png"" class=""exp-image"">
                    <div class=""question-area""></div> 
                </div>","null","","","","","","","","","","","",""
"","","","","","html-button-response","55","187332","0.0-55.0","5BE2FD19A74B4FC5A58F81F792B31130","019cfc7d-8043-7591-a6f5-6ee4e3d88cf2","019cfc7b-6c7b-7b1b-afe7-acad8efc6711","","533","
                <div class=""stimulus-container"">
                    <img src=""images/semantic_sequence/maintaining_a_car_semantic/maintaining_a_car_semantic_9.png"" class=""exp-image"">
                    <div class=""question-area"">
                        <p style=""font-size: 20px; font-weight: bold; margin: 0;"">Is there a person in this image?</p>
                    </div>
                </div>","0","main_experiment_trial","9","maintaining_a_car_semantic","semantic_sequence","chronological","","","","","","",""
"","","","","","html-keyboard-response","56","192336","0.0-56.0","5BE2FD19A74B4FC5A58F81F792B31130","019cfc7d-8043-7591-a6f5-6ee4e3d88cf2","019cfc7b-6c7b-7b1b-afe7-acad8efc6711","","null","
                <div class=""stimulus-container"">
                    <img src=""images/semantic_sequence/maintaining_a_car_semantic/maintaining_a_car_semantic_ten.png"" class=""exp-image"">
                    <div class=""question-area""></div> 
                </div>","null","","","","","","","","","","","",""
"","","","","","html-button-response","57","192912","0.0-57.0","5BE2FD19A74B4FC5A58F81F792B31130","019cfc7d-8043-7591-a6f5-6ee4e3d88cf2","019cfc7b-6c7b-7b1b-afe7-acad8efc6711","","576","
                <div class=""stimulus-container"">
                    <img src=""images/semantic_sequence/maintaining_a_car_semantic/maintaining_a_car_semantic_ten.png"" class=""exp-image"">
                    <div class=""question-area"">
                        <p style=""font-size: 20px; font-weight: bold; margin: 0;"">Is there a person in this image?</p>
                    </div>
                </div>","0","main_experiment_trial","ten","maintaining_a_car_semantic","semantic_sequence","chronological","","","","","","",""
"","","","","","html-keyboard-response","58","197925","0.0-58.0","5BE2FD19A74B4FC5A58F81F792B31130","019cfc7d-8043-7591-a6f5-6ee4e3d88cf2","019cfc7b-6c7b-7b1b-afe7-acad8efc6711","","null","<div style=""background-color: white; width: 100vw; height: 100vh;""></div>","null","","","","","","","","","","","",""
"","","","","","html-keyboard-response","59","202941","0.0-59.0","5BE2FD19A74B4FC5A58F81F792B31130","019cfc7d-8043-7591-a6f5-6ee4e3d88cf2","019cfc7b-6c7b-7b1b-afe7-acad8efc6711","","null","
                <div class=""stimulus-container"">
                    <img src=""images/causal_sequence/museum_causal/museum_causal_1.png"" class=""exp-image"">
                    <div class=""question-area""></div> 
                </div>","null","","","","","","","","","","","",""
"","","","","","html-button-response","60","203516","0.0-60.0","5BE2FD19A74B4FC5A58F81F792B31130","019cfc7d-8043-7591-a6f5-6ee4e3d88cf2","019cfc7b-6c7b-7b1b-afe7-acad8efc6711","","575","
                <div class=""stimulus-container"">
                    <img src=""images/causal_sequence/museum_causal/museum_causal_1.png"" class=""exp-image"">
                    <div class=""question-area"">
                        <p style=""font-size: 20px; font-weight: bold; margin: 0;"">Is there a person in this image?</p>
                    </div>
                </div>","0","main_experiment_trial","1","museum_causal","causal_sequence","chronological","","","","","","",""
"","","","","","html-keyboard-response","61","208525","0.0-61.0","5BE2FD19A74B4FC5A58F81F792B31130","019cfc7d-8043-7591-a6f5-6ee4e3d88cf2","019cfc7b-6c7b-7b1b-afe7-acad8efc6711","","null","
                <div class=""stimulus-container"">
                    <img src=""images/causal_sequence/museum_causal/museum_causal_2.png"" class=""exp-image"">
                    <div class=""question-area""></div> 
                </div>","null","","","","","","","","","","","",""
"","","","","","html-button-response","62","209272","0.0-62.0","5BE2FD19A74B4FC5A58F81F792B31130","019cfc7d-8043-7591-a6f5-6ee4e3d88cf2","019cfc7b-6c7b-7b1b-afe7-acad8efc6711","","746","
                <div class=""stimulus-container"">
                    <img src=""images/causal_sequence/museum_causal/museum_causal_2.png"" class=""exp-image"">
                    <div class=""question-area"">
                        <p style=""font-size: 20px; font-weight: bold; margin: 0;"">Is there a person in this image?</p>
                    </div>
                </div>","0","main_experiment_trial","2","museum_causal","causal_sequence","chronological","","","","","","",""
"","","","","","html-keyboard-response","63","214275","0.0-63.0","5BE2FD19A74B4FC5A58F81F792B31130","019cfc7d-8043-7591-a6f5-6ee4e3d88cf2","019cfc7b-6c7b-7b1b-afe7-acad8efc6711","","null","
                <div class=""stimulus-container"">
                    <img src=""images/causal_sequence/museum_causal/museum_causal_3.png"" class=""exp-image"">
                    <div class=""question-area""></div> 
                </div>","null","","","","","","","","","","","",""
"","","","","","html-button-response","64","214889","0.0-64.0","5BE2FD19A74B4FC5A58F81F792B31130","019cfc7d-8043-7591-a6f5-6ee4e3d88cf2","019cfc7b-6c7b-7b1b-afe7-acad8efc6711","","614","
                <div class=""stimulus-container"">
                    <img src=""images/causal_sequence/museum_causal/museum_causal_3.png"" class=""exp-image"">
                    <div class=""question-area"">
                        <p style=""font-size: 20px; font-weight: bold; margin: 0;"">Is there a person in this image?</p>
                    </div>
                </div>","0","main_experiment_trial","3","museum_causal","causal_sequence","chronological","","","","","","",""
"","","","","","html-keyboard-response","65","219894","0.0-65.0","5BE2FD19A74B4FC5A58F81F792B31130","019cfc7d-8043-7591-a6f5-6ee4e3d88cf2","019cfc7b-6c7b-7b1b-afe7-acad8efc6711","","null","
                <div class=""stimulus-container"">
                    <img src=""images/causal_sequence/museum_causal/museum_causal_4.png"" class=""exp-image"">
                    <div class=""question-area""></div> 
                </div>","null","","","","","","","","","","","",""
"","","","","","html-button-response","66","220827","0.0-66.0","5BE2FD19A74B4FC5A58F81F792B31130","019cfc7d-8043-7591-a6f5-6ee4e3d88cf2","019cfc7b-6c7b-7b1b-afe7-acad8efc6711","","933","
                <div class=""stimulus-container"">
                    <img src=""images/causal_sequence/museum_causal/museum_causal_4.png"" class=""exp-image"">
                    <div class=""question-area"">
                        <p style=""font-size: 20px; font-weight: bold; margin: 0;"">Is there a person in this image?</p>
                    </div>
                </div>","1","main_experiment_trial","4","museum_causal","causal_sequence","chronological","","","","","","",""
"","","","","","html-keyboard-response","67","225843","0.0-67.0","5BE2FD19A74B4FC5A58F81F792B31130","019cfc7d-8043-7591-a6f5-6ee4e3d88cf2","019cfc7b-6c7b-7b1b-afe7-acad8efc6711","","null","
                <div class=""stimulus-container"">
                    <img src=""images/causal_sequence/museum_causal/museum_causal_5.png"" class=""exp-image"">
                    <div class=""question-area""></div> 
                </div>","null","","","","","","","","","","","",""
"","","","","","html-button-response","68","226478","0.0-68.0","5BE2FD19A74B4FC5A58F81F792B31130","019cfc7d-8043-7591-a6f5-6ee4e3d88cf2","019cfc7b-6c7b-7b1b-afe7-acad8efc6711","","634","
                <div class=""stimulus-container"">
                    <img src=""images/causal_sequence/museum_causal/museum_causal_5.png"" class=""exp-image"">
                    <div class=""question-area"">
                        <p style=""font-size: 20px; font-weight: bold; margin: 0;"">Is there a person in this image?</p>
                    </div>
                </div>","0","main_experiment_trial","5","museum_causal","causal_sequence","chronological","","","","","","",""
"","","","","","html-keyboard-response","69","231490","0.0-69.0","5BE2FD19A74B4FC5A58F81F792B31130","019cfc7d-8043-7591-a6f5-6ee4e3d88cf2","019cfc7b-6c7b-7b1b-afe7-acad8efc6711","","null","
                <div class=""stimulus-container"">
                    <img src=""images/causal_sequence/museum_causal/museum_causal_6.png"" class=""exp-image"">
                    <div class=""question-area""></div> 
                </div>","null","","","","","","","","","","","",""
"","","","","","html-button-response","70","231898","0.0-70.0","5BE2FD19A74B4FC5A58F81F792B31130","019cfc7d-8043-7591-a6f5-6ee4e3d88cf2","019cfc7b-6c7b-7b1b-afe7-acad8efc6711","","407","
                <div class=""stimulus-container"">
                    <img src=""images/causal_sequence/museum_causal/museum_causal_6.png"" class=""exp-image"">
                    <div class=""question-area"">
                        <p style=""font-size: 20px; font-weight: bold; margin: 0;"">Is there a person in this image?</p>
                    </div>
                </div>","0","main_experiment_trial","6","museum_causal","causal_sequence","chronological","","","","","","",""
"","","","","","html-keyboard-response","71","236907","0.0-71.0","5BE2FD19A74B4FC5A58F81F792B31130","019cfc7d-8043-7591-a6f5-6ee4e3d88cf2","019cfc7b-6c7b-7b1b-afe7-acad8efc6711","","null","
                <div class=""stimulus-container"">
                    <img src=""images/causal_sequence/museum_causal/museum_causal_7.png"" class=""exp-image"">
                    <div class=""question-area""></div> 
                </div>","null","","","","","","","","","","","",""
"","","","","","html-button-response","72","237535","0.0-72.0","5BE2FD19A74B4FC5A58F81F792B31130","019cfc7d-8043-7591-a6f5-6ee4e3d88cf2","019cfc7b-6c7b-7b1b-afe7-acad8efc6711","","627","
                <div class=""stimulus-container"">
                    <img src=""images/causal_sequence/museum_causal/museum_causal_7.png"" class=""exp-image"">
                    <div class=""question-area"">
                        <p style=""font-size: 20px; font-weight: bold; margin: 0;"">Is there a person in this image?</p>
                    </div>
                </div>","1","main_experiment_trial","7","museum_causal","causal_sequence","chronological","","","","","","",""
"","","","","","html-keyboard-response","73","242537","0.0-73.0","5BE2FD19A74B4FC5A58F81F792B31130","019cfc7d-8043-7591-a6f5-6ee4e3d88cf2","019cfc7b-6c7b-7b1b-afe7-acad8efc6711","","null","
                <div class=""stimulus-container"">
                    <img src=""images/causal_sequence/museum_causal/museum_causal_8.png"" class=""exp-image"">
                    <div class=""question-area""></div> 
                </div>","null","","","","","","","","","","","",""
"","","","","","html-button-response","74","243086","0.0-74.0","5BE2FD19A74B4FC5A58F81F792B31130","019cfc7d-8043-7591-a6f5-6ee4e3d88cf2","019cfc7b-6c7b-7b1b-afe7-acad8efc6711","","549","
                <div class=""stimulus-container"">
                    <img src=""images/causal_sequence/museum_causal/museum_causal_8.png"" class=""exp-image"">
                    <div class=""question-area"">
                        <p style=""font-size: 20px; font-weight: bold; margin: 0;"">Is there a person in this image?</p>
                    </div>
                </div>","0","main_experiment_trial","8","museum_causal","causal_sequence","chronological","","","","","","",""
"","","","","","html-keyboard-response","75","248093","0.0-75.0","5BE2FD19A74B4FC5A58F81F792B31130","019cfc7d-8043-7591-a6f5-6ee4e3d88cf2","019cfc7b-6c7b-7b1b-afe7-acad8efc6711","","null","
                <div class=""stimulus-container"">
                    <img src=""images/causal_sequence/museum_causal/museum_causal_9.png"" class=""exp-image"">
                    <div class=""question-area""></div> 
                </div>","null","","","","","","","","","","","",""
"","","","","","html-button-response","76","248697","0.0-76.0","5BE2FD19A74B4FC5A58F81F792B31130","019cfc7d-8043-7591-a6f5-6ee4e3d88cf2","019cfc7b-6c7b-7b1b-afe7-acad8efc6711","","603","
                <div class=""stimulus-container"">
                    <img src=""images/causal_sequence/museum_causal/museum_causal_9.png"" class=""exp-image"">
                    <div class=""question-area"">
                        <p style=""font-size: 20px; font-weight: bold; margin: 0;"">Is there a person in this image?</p>
                    </div>
                </div>","1","main_experiment_trial","9","museum_causal","causal_sequence","chronological","","","","","","",""
"","","","","","html-keyboard-response","77","253710","0.0-77.0","5BE2FD19A74B4FC5A58F81F792B31130","019cfc7d-8043-7591-a6f5-6ee4e3d88cf2","019cfc7b-6c7b-7b1b-afe7-acad8efc6711","","null","
                <div class=""stimulus-container"">
                    <img src=""images/causal_sequence/museum_causal/museum_causal_ten.png"" class=""exp-image"">
                    <div class=""question-area""></div> 
                </div>","null","","","","","","","","","","","",""
"","","","","","html-button-response","78","254203","0.0-78.0","5BE2FD19A74B4FC5A58F81F792B31130","019cfc7d-8043-7591-a6f5-6ee4e3d88cf2","019cfc7b-6c7b-7b1b-afe7-acad8efc6711","","492","
                <div class=""stimulus-container"">
                    <img src=""images/causal_sequence/museum_causal/museum_causal_ten.png"" class=""exp-image"">
                    <div class=""question-area"">
                        <p style=""font-size: 20px; font-weight: bold; margin: 0;"">Is there a person in this image?</p>
                    </div>
                </div>","0","main_experiment_trial","ten","museum_causal","causal_sequence","chronological","","","","","","",""
"","","","","","html-keyboard-response","79","259204","0.0-79.0","5BE2FD19A74B4FC5A58F81F792B31130","019cfc7d-8043-7591-a6f5-6ee4e3d88cf2","019cfc7b-6c7b-7b1b-afe7-acad8efc6711","","null","<div style=""background-color: white; width: 100vw; height: 100vh;""></div>","null","","","","","","","","","","","",""
"","","","","","html-keyboard-response","80","264205","0.0-80.0","5BE2FD19A74B4FC5A58F81F792B31130","019cfc7d-8043-7591-a6f5-6ee4e3d88cf2","019cfc7b-6c7b-7b1b-afe7-acad8efc6711","","null","
                <div class=""stimulus-container"">
                    <img src=""images/causal_sequence/saving_a_cat_causal/saving_a_cat_causal_1.png"" class=""exp-image"">
                    <div class=""question-area""></div> 
                </div>","null","","","","","","","","","","","",""
"","","","","","html-button-response","81","265191","0.0-81.0","5BE2FD19A74B4FC5A58F81F792B31130","019cfc7d-8043-7591-a6f5-6ee4e3d88cf2","019cfc7b-6c7b-7b1b-afe7-acad8efc6711","","986","
                <div class=""stimulus-container"">
                    <img src=""images/causal_sequence/saving_a_cat_causal/saving_a_cat_causal_1.png"" class=""exp-image"">
                    <div class=""question-area"">
                        <p style=""font-size: 20px; font-weight: bold; margin: 0;"">Is there a person in this image?</p>
                    </div>
                </div>","0","main_experiment_trial","1","saving_a_cat_causal","causal_sequence","chronological","","","","","","",""
"","","","","","html-keyboard-response","82","270207","0.0-82.0","5BE2FD19A74B4FC5A58F81F792B31130","019cfc7d-8043-7591-a6f5-6ee4e3d88cf2","019cfc7b-6c7b-7b1b-afe7-acad8efc6711","","null","
                <div class=""stimulus-container"">
                    <img src=""images/causal_sequence/saving_a_cat_causal/saving_a_cat_causal_2.png"" class=""exp-image"">
                    <div class=""question-area""></div> 
                </div>","null","","","","","","","","","","","",""
"","","","","","html-button-response","83","271184","0.0-83.0","5BE2FD19A74B4FC5A58F81F792B31130","019cfc7d-8043-7591-a6f5-6ee4e3d88cf2","019cfc7b-6c7b-7b1b-afe7-acad8efc6711","","977","
                <div class=""stimulus-container"">
                    <img src=""images/causal_sequence/saving_a_cat_causal/saving_a_cat_causal_2.png"" class=""exp-image"">
                    <div class=""question-area"">
                        <p style=""font-size: 20px; font-weight: bold; margin: 0;"">Is there a person in this image?</p>
                    </div>
                </div>","1","main_experiment_trial","2","saving_a_cat_causal","causal_sequence","chronological","","","","","","",""
"","","","","","html-keyboard-response","84","276192","0.0-84.0","5BE2FD19A74B4FC5A58F81F792B31130","019cfc7d-8043-7591-a6f5-6ee4e3d88cf2","019cfc7b-6c7b-7b1b-afe7-acad8efc6711","","null","
                <div class=""stimulus-container"">
                    <img src=""images/causal_sequence/saving_a_cat_causal/saving_a_cat_causal_3.png"" class=""exp-image"">
                    <div class=""question-area""></div> 
                </div>","null","","","","","","","","","","","",""
"","","","","","html-button-response","85","277423","0.0-85.0","5BE2FD19A74B4FC5A58F81F792B31130","019cfc7d-8043-7591-a6f5-6ee4e3d88cf2","019cfc7b-6c7b-7b1b-afe7-acad8efc6711","","1230","
                <div class=""stimulus-container"">
                    <img src=""images/causal_sequence/saving_a_cat_causal/saving_a_cat_causal_3.png"" class=""exp-image"">
                    <div class=""question-area"">
                        <p style=""font-size: 20px; font-weight: bold; margin: 0;"">Is there a person in this image?</p>
                    </div>
                </div>","1","main_experiment_trial","3","saving_a_cat_causal","causal_sequence","chronological","","","","","","",""
"","","","","","html-keyboard-response","86","282439","0.0-86.0","5BE2FD19A74B4FC5A58F81F792B31130","019cfc7d-8043-7591-a6f5-6ee4e3d88cf2","019cfc7b-6c7b-7b1b-afe7-acad8efc6711","","null","
                <div class=""stimulus-container"">
                    <img src=""images/causal_sequence/saving_a_cat_causal/saving_a_cat_causal_4.png"" class=""exp-image"">
                    <div class=""question-area""></div> 
                </div>","null","","","","","","","","","","","",""
"","","","","","html-button-response","87","283153","0.0-87.0","5BE2FD19A74B4FC5A58F81F792B31130","019cfc7d-8043-7591-a6f5-6ee4e3d88cf2","019cfc7b-6c7b-7b1b-afe7-acad8efc6711","","714","
                <div class=""stimulus-container"">
                    <img src=""images/causal_sequence/saving_a_cat_causal/saving_a_cat_causal_4.png"" class=""exp-image"">
                    <div class=""question-area"">
                        <p style=""font-size: 20px; font-weight: bold; margin: 0;"">Is there a person in this image?</p>
                    </div>
                </div>","0","main_experiment_trial","4","saving_a_cat_causal","causal_sequence","chronological","","","","","","",""
"","","","","","html-keyboard-response","88","288158","0.0-88.0","5BE2FD19A74B4FC5A58F81F792B31130","019cfc7d-8043-7591-a6f5-6ee4e3d88cf2","019cfc7b-6c7b-7b1b-afe7-acad8efc6711","","null","
                <div class=""stimulus-container"">
                    <img src=""images/causal_sequence/saving_a_cat_causal/saving_a_cat_causal_5.png"" class=""exp-image"">
                    <div class=""question-area""></div> 
                </div>","null","","","","","","","","","","","",""
"","","","","","html-button-response","89","288732","0.0-89.0","5BE2FD19A74B4FC5A58F81F792B31130","019cfc7d-8043-7591-a6f5-6ee4e3d88cf2","019cfc7b-6c7b-7b1b-afe7-acad8efc6711","","573","
                <div class=""stimulus-container"">
                    <img src=""images/causal_sequence/saving_a_cat_causal/saving_a_cat_causal_5.png"" class=""exp-image"">
                    <div class=""question-area"">
                        <p style=""font-size: 20px; font-weight: bold; margin: 0;"">Is there a person in this image?</p>
                    </div>
                </div>","0","main_experiment_trial","5","saving_a_cat_causal","causal_sequence","chronological","","","","","","",""
"","","","","","html-keyboard-response","90","293735","0.0-90.0","5BE2FD19A74B4FC5A58F81F792B31130","019cfc7d-8043-7591-a6f5-6ee4e3d88cf2","019cfc7b-6c7b-7b1b-afe7-acad8efc6711","","null","
                <div class=""stimulus-container"">
                    <img src=""images/causal_sequence/saving_a_cat_causal/saving_a_cat_causal_6.png"" class=""exp-image"">
                    <div class=""question-area""></div> 
                </div>","null","","","","","","","","","","","",""
"","","","","","html-button-response","91","295581","0.0-91.0","5BE2FD19A74B4FC5A58F81F792B31130","019cfc7d-8043-7591-a6f5-6ee4e3d88cf2","019cfc7b-6c7b-7b1b-afe7-acad8efc6711","","1846","
                <div class=""stimulus-container"">
                    <img src=""images/causal_sequence/saving_a_cat_causal/saving_a_cat_causal_6.png"" class=""exp-image"">
                    <div class=""question-area"">
                        <p style=""font-size: 20px; font-weight: bold; margin: 0;"">Is there a person in this image?</p>
                    </div>
                </div>","0","main_experiment_trial","6","saving_a_cat_causal","causal_sequence","chronological","","","","","","",""
"","","","","","html-keyboard-response","92","300589","0.0-92.0","5BE2FD19A74B4FC5A58F81F792B31130","019cfc7d-8043-7591-a6f5-6ee4e3d88cf2","019cfc7b-6c7b-7b1b-afe7-acad8efc6711","","null","
                <div class=""stimulus-container"">
                    <img src=""images/causal_sequence/saving_a_cat_causal/saving_a_cat_causal_7.png"" class=""exp-image"">
                    <div class=""question-area""></div> 
                </div>","null","","","","","","","","","","","",""
"","","","","","html-button-response","93","301169","0.0-93.0","5BE2FD19A74B4FC5A58F81F792B31130","019cfc7d-8043-7591-a6f5-6ee4e3d88cf2","019cfc7b-6c7b-7b1b-afe7-acad8efc6711","","580","
                <div class=""stimulus-container"">
                    <img src=""images/causal_sequence/saving_a_cat_causal/saving_a_cat_causal_7.png"" class=""exp-image"">
                    <div class=""question-area"">
                        <p style=""font-size: 20px; font-weight: bold; margin: 0;"">Is there a person in this image?</p>
                    </div>
                </div>","0","main_experiment_trial","7","saving_a_cat_causal","causal_sequence","chronological","","","","","","",""
"","","","","","html-keyboard-response","94","306181","0.0-94.0","5BE2FD19A74B4FC5A58F81F792B31130","019cfc7d-8043-7591-a6f5-6ee4e3d88cf2","019cfc7b-6c7b-7b1b-afe7-acad8efc6711","","null","
                <div class=""stimulus-container"">
                    <img src=""images/causal_sequence/saving_a_cat_causal/saving_a_cat_causal_8.png"" class=""exp-image"">
                    <div class=""question-area""></div> 
                </div>","null","","","","","","","","","","","",""
"","","","","","html-button-response","95","306662","0.0-95.0","5BE2FD19A74B4FC5A58F81F792B31130","019cfc7d-8043-7591-a6f5-6ee4e3d88cf2","019cfc7b-6c7b-7b1b-afe7-acad8efc6711","","481","
                <div class=""stimulus-container"">
                    <img src=""images/causal_sequence/saving_a_cat_causal/saving_a_cat_causal_8.png"" class=""exp-image"">
                    <div class=""question-area"">
                        <p style=""font-size: 20px; font-weight: bold; margin: 0;"">Is there a person in this image?</p>
                    </div>
                </div>","0","main_experiment_trial","8","saving_a_cat_causal","causal_sequence","chronological","","","","","","",""
"","","","","","html-keyboard-response","96","311673","0.0-96.0","5BE2FD19A74B4FC5A58F81F792B31130","019cfc7d-8043-7591-a6f5-6ee4e3d88cf2","019cfc7b-6c7b-7b1b-afe7-acad8efc6711","","null","
                <div class=""stimulus-container"">
                    <img src=""images/causal_sequence/saving_a_cat_causal/saving_a_cat_causal_9.png"" class=""exp-image"">
                    <div class=""question-area""></div> 
                </div>","null","","","","","","","","","","","",""
"","","","","","html-button-response","97","312122","0.0-97.0","5BE2FD19A74B4FC5A58F81F792B31130","019cfc7d-8043-7591-a6f5-6ee4e3d88cf2","019cfc7b-6c7b-7b1b-afe7-acad8efc6711","","449","
                <div class=""stimulus-container"">
                    <img src=""images/causal_sequence/saving_a_cat_causal/saving_a_cat_causal_9.png"" class=""exp-image"">
                    <div class=""question-area"">
                        <p style=""font-size: 20px; font-weight: bold; margin: 0;"">Is there a person in this image?</p>
                    </div>
                </div>","0","main_experiment_trial","9","saving_a_cat_causal","causal_sequence","chronological","","","","","","",""
"","","","","","html-keyboard-response","98","317137","0.0-98.0","5BE2FD19A74B4FC5A58F81F792B31130","019cfc7d-8043-7591-a6f5-6ee4e3d88cf2","019cfc7b-6c7b-7b1b-afe7-acad8efc6711","","null","
                <div class=""stimulus-container"">
                    <img src=""images/causal_sequence/saving_a_cat_causal/saving_a_cat_causal_ten.png"" class=""exp-image"">
                    <div class=""question-area""></div> 
                </div>","null","","","","","","","","","","","",""
"","","","","","html-button-response","99","317790","0.0-99.0","5BE2FD19A74B4FC5A58F81F792B31130","019cfc7d-8043-7591-a6f5-6ee4e3d88cf2","019cfc7b-6c7b-7b1b-afe7-acad8efc6711","","653","
                <div class=""stimulus-container"">
                    <img src=""images/causal_sequence/saving_a_cat_causal/saving_a_cat_causal_ten.png"" class=""exp-image"">
                    <div class=""question-area"">
                        <p style=""font-size: 20px; font-weight: bold; margin: 0;"">Is there a person in this image?</p>
                    </div>
                </div>","0","main_experiment_trial","ten","saving_a_cat_causal","causal_sequence","chronological","","","","","","",""
"","","","","","html-keyboard-response","100","322801","0.0-100.0","5BE2FD19A74B4FC5A58F81F792B31130","019cfc7d-8043-7591-a6f5-6ee4e3d88cf2","019cfc7b-6c7b-7b1b-afe7-acad8efc6711","","null","<div style=""background-color: white; width: 100vw; height: 100vh;""></div>","null","","","","","","","","","","","",""
"","","","","","html-keyboard-response","101","327802","0.0-101.0","5BE2FD19A74B4FC5A58F81F792B31130","019cfc7d-8043-7591-a6f5-6ee4e3d88cf2","019cfc7b-6c7b-7b1b-afe7-acad8efc6711","","null","
                <div class=""stimulus-container"">
                    <img src=""images/schematic_sequence/interview_scheme/interview_scheme_1.png"" class=""exp-image"">
                    <div class=""question-area""></div> 
                </div>","null","","","","","","","","","","","",""
"","","","","","html-button-response","102","328510","0.0-102.0","5BE2FD19A74B4FC5A58F81F792B31130","019cfc7d-8043-7591-a6f5-6ee4e3d88cf2","019cfc7b-6c7b-7b1b-afe7-acad8efc6711","","708","
                <div class=""stimulus-container"">
                    <img src=""images/schematic_sequence/interview_scheme/interview_scheme_1.png"" class=""exp-image"">
                    <div class=""question-area"">
                        <p style=""font-size: 20px; font-weight: bold; margin: 0;"">Is there a person in this image?</p>
                    </div>
                </div>","1","main_experiment_trial","1","interview_scheme","schematic_sequence","chronological","","","","","","",""
"","","","","","html-keyboard-response","103","333514","0.0-103.0","5BE2FD19A74B4FC5A58F81F792B31130","019cfc7d-8043-7591-a6f5-6ee4e3d88cf2","019cfc7b-6c7b-7b1b-afe7-acad8efc6711","","null","
                <div class=""stimulus-container"">
                    <img src=""images/schematic_sequence/interview_scheme/interview_scheme_2.png"" class=""exp-image"">
                    <div class=""question-area""></div> 
                </div>","null","","","","","","","","","","","",""
"","","","","","html-button-response","104","334228","0.0-104.0","5BE2FD19A74B4FC5A58F81F792B31130","019cfc7d-8043-7591-a6f5-6ee4e3d88cf2","019cfc7b-6c7b-7b1b-afe7-acad8efc6711","","714","
                <div class=""stimulus-container"">
                    <img src=""images/schematic_sequence/interview_scheme/interview_scheme_2.png"" class=""exp-image"">
                    <div class=""question-area"">
                        <p style=""font-size: 20px; font-weight: bold; margin: 0;"">Is there a person in this image?</p>
                    </div>
                </div>","0","main_experiment_trial","2","interview_scheme","schematic_sequence","chronological","","","","","","",""
"","","","","","html-keyboard-response","105","339237","0.0-105.0","5BE2FD19A74B4FC5A58F81F792B31130","019cfc7d-8043-7591-a6f5-6ee4e3d88cf2","019cfc7b-6c7b-7b1b-afe7-acad8efc6711","","null","
                <div class=""stimulus-container"">
                    <img src=""images/schematic_sequence/interview_scheme/interview_scheme_3.png"" class=""exp-image"">
                    <div class=""question-area""></div> 
                </div>","null","","","","","","","","","","","",""
"","","","","","html-button-response","106","339990","0.0-106.0","5BE2FD19A74B4FC5A58F81F792B31130","019cfc7d-8043-7591-a6f5-6ee4e3d88cf2","019cfc7b-6c7b-7b1b-afe7-acad8efc6711","","752","
                <div class=""stimulus-container"">
                    <img src=""images/schematic_sequence/interview_scheme/interview_scheme_3.png"" class=""exp-image"">
                    <div class=""question-area"">
                        <p style=""font-size: 20px; font-weight: bold; margin: 0;"">Is there a person in this image?</p>
                    </div>
                </div>","1","main_experiment_trial","3","interview_scheme","schematic_sequence","chronological","","","","","","",""
"","","","","","html-keyboard-response","107","344997","0.0-107.0","5BE2FD19A74B4FC5A58F81F792B31130","019cfc7d-8043-7591-a6f5-6ee4e3d88cf2","019cfc7b-6c7b-7b1b-afe7-acad8efc6711","","null","
                <div class=""stimulus-container"">
                    <img src=""images/schematic_sequence/interview_scheme/interview_scheme_4.png"" class=""exp-image"">
                    <div class=""question-area""></div> 
                </div>","null","","","","","","","","","","","",""
"","","","","","html-button-response","108","345886","0.0-108.0","5BE2FD19A74B4FC5A58F81F792B31130","019cfc7d-8043-7591-a6f5-6ee4e3d88cf2","019cfc7b-6c7b-7b1b-afe7-acad8efc6711","","889","
                <div class=""stimulus-container"">
                    <img src=""images/schematic_sequence/interview_scheme/interview_scheme_4.png"" class=""exp-image"">
                    <div class=""question-area"">
                        <p style=""font-size: 20px; font-weight: bold; margin: 0;"">Is there a person in this image?</p>
                    </div>
                </div>","1","main_experiment_trial","4","interview_scheme","schematic_sequence","chronological","","","","","","",""
"","","","","","html-keyboard-response","109","350895","0.0-109.0","5BE2FD19A74B4FC5A58F81F792B31130","019cfc7d-8043-7591-a6f5-6ee4e3d88cf2","019cfc7b-6c7b-7b1b-afe7-acad8efc6711","","null","
                <div class=""stimulus-container"">
                    <img src=""images/schematic_sequence/interview_scheme/interview_scheme_5.png"" class=""exp-image"">
                    <div class=""question-area""></div> 
                </div>","null","","","","","","","","","","","",""
"","","","","","html-button-response","110","351610","0.0-110.0","5BE2FD19A74B4FC5A58F81F792B31130","019cfc7d-8043-7591-a6f5-6ee4e3d88cf2","019cfc7b-6c7b-7b1b-afe7-acad8efc6711","","715","
                <div class=""stimulus-container"">
                    <img src=""images/schematic_sequence/interview_scheme/interview_scheme_5.png"" class=""exp-image"">
                    <div class=""question-area"">
                        <p style=""font-size: 20px; font-weight: bold; margin: 0;"">Is there a person in this image?</p>
                    </div>
                </div>","0","main_experiment_trial","5","interview_scheme","schematic_sequence","chronological","","","","","","",""
"","","","","","html-keyboard-response","111","356620","0.0-111.0","5BE2FD19A74B4FC5A58F81F792B31130","019cfc7d-8043-7591-a6f5-6ee4e3d88cf2","019cfc7b-6c7b-7b1b-afe7-acad8efc6711","","null","
                <div class=""stimulus-container"">
                    <img src=""images/schematic_sequence/interview_scheme/interview_scheme_6.png"" class=""exp-image"">
                    <div class=""question-area""></div> 
                </div>","null","","","","","","","","","","","",""
"","","","","","html-button-response","112","357652","0.0-112.0","5BE2FD19A74B4FC5A58F81F792B31130","019cfc7d-8043-7591-a6f5-6ee4e3d88cf2","019cfc7b-6c7b-7b1b-afe7-acad8efc6711","","1032","
                <div class=""stimulus-container"">
                    <img src=""images/schematic_sequence/interview_scheme/interview_scheme_6.png"" class=""exp-image"">
                    <div class=""question-area"">
                        <p style=""font-size: 20px; font-weight: bold; margin: 0;"">Is there a person in this image?</p>
                    </div>
                </div>","0","main_experiment_trial","6","interview_scheme","schematic_sequence","chronological","","","","","","",""
"","","","","","html-keyboard-response","113","362656","0.0-113.0","5BE2FD19A74B4FC5A58F81F792B31130","019cfc7d-8043-7591-a6f5-6ee4e3d88cf2","019cfc7b-6c7b-7b1b-afe7-acad8efc6711","","null","
                <div class=""stimulus-container"">
                    <img src=""images/schematic_sequence/interview_scheme/interview_scheme_7.png"" class=""exp-image"">
                    <div class=""question-area""></div> 
                </div>","null","","","","","","","","","","","",""
"","","","","","html-button-response","114","363250","0.0-114.0","5BE2FD19A74B4FC5A58F81F792B31130","019cfc7d-8043-7591-a6f5-6ee4e3d88cf2","019cfc7b-6c7b-7b1b-afe7-acad8efc6711","","595","
                <div class=""stimulus-container"">
                    <img src=""images/schematic_sequence/interview_scheme/interview_scheme_7.png"" class=""exp-image"">
                    <div class=""question-area"">
                        <p style=""font-size: 20px; font-weight: bold; margin: 0;"">Is there a person in this image?</p>
                    </div>
                </div>","0","main_experiment_trial","7","interview_scheme","schematic_sequence","chronological","","","","","","",""
"","","","","","html-keyboard-response","115","368255","0.0-115.0","5BE2FD19A74B4FC5A58F81F792B31130","019cfc7d-8043-7591-a6f5-6ee4e3d88cf2","019cfc7b-6c7b-7b1b-afe7-acad8efc6711","","null","
                <div class=""stimulus-container"">
                    <img src=""images/schematic_sequence/interview_scheme/interview_scheme_8.png"" class=""exp-image"">
                    <div class=""question-area""></div> 
                </div>","null","","","","","","","","","","","",""
"","","","","","html-button-response","116","368842","0.0-116.0","5BE2FD19A74B4FC5A58F81F792B31130","019cfc7d-8043-7591-a6f5-6ee4e3d88cf2","019cfc7b-6c7b-7b1b-afe7-acad8efc6711","","587","
                <div class=""stimulus-container"">
                    <img src=""images/schematic_sequence/interview_scheme/interview_scheme_8.png"" class=""exp-image"">
                    <div class=""question-area"">
                        <p style=""font-size: 20px; font-weight: bold; margin: 0;"">Is there a person in this image?</p>
                    </div>
                </div>","0","main_experiment_trial","8","interview_scheme","schematic_sequence","chronological","","","","","","",""
"","","","","","html-keyboard-response","117","373855","0.0-117.0","5BE2FD19A74B4FC5A58F81F792B31130","019cfc7d-8043-7591-a6f5-6ee4e3d88cf2","019cfc7b-6c7b-7b1b-afe7-acad8efc6711","","null","
                <div class=""stimulus-container"">
                    <img src=""images/schematic_sequence/interview_scheme/interview_scheme_9.png"" class=""exp-image"">
                    <div class=""question-area""></div> 
                </div>","null","","","","","","","","","","","",""
"","","","","","html-button-response","118","374945","0.0-118.0","5BE2FD19A74B4FC5A58F81F792B31130","019cfc7d-8043-7591-a6f5-6ee4e3d88cf2","019cfc7b-6c7b-7b1b-afe7-acad8efc6711","","1090","
                <div class=""stimulus-container"">
                    <img src=""images/schematic_sequence/interview_scheme/interview_scheme_9.png"" class=""exp-image"">
                    <div class=""question-area"">
                        <p style=""font-size: 20px; font-weight: bold; margin: 0;"">Is there a person in this image?</p>
                    </div>
                </div>","0","main_experiment_trial","9","interview_scheme","schematic_sequence","chronological","","","","","","",""
"","","","","","html-keyboard-response","119","379962","0.0-119.0","5BE2FD19A74B4FC5A58F81F792B31130","019cfc7d-8043-7591-a6f5-6ee4e3d88cf2","019cfc7b-6c7b-7b1b-afe7-acad8efc6711","","null","
                <div class=""stimulus-container"">
                    <img src=""images/schematic_sequence/interview_scheme/interview_scheme_ten.png"" class=""exp-image"">
                    <div class=""question-area""></div> 
                </div>","null","","","","","","","","","","","",""
"","","","","","html-button-response","120","380943","0.0-120.0","5BE2FD19A74B4FC5A58F81F792B31130","019cfc7d-8043-7591-a6f5-6ee4e3d88cf2","019cfc7b-6c7b-7b1b-afe7-acad8efc6711","","981","
                <div class=""stimulus-container"">
                    <img src=""images/schematic_sequence/interview_scheme/interview_scheme_ten.png"" class=""exp-image"">
                    <div class=""question-area"">
                        <p style=""font-size: 20px; font-weight: bold; margin: 0;"">Is there a person in this image?</p>
                    </div>
                </div>","0","main_experiment_trial","ten","interview_scheme","schematic_sequence","chronological","","","","","","",""
"","","","","","html-keyboard-response","121","385946","0.0-121.0","5BE2FD19A74B4FC5A58F81F792B31130","019cfc7d-8043-7591-a6f5-6ee4e3d88cf2","019cfc7b-6c7b-7b1b-afe7-acad8efc6711","","null","<div style=""background-color: white; width: 100vw; height: 100vh;""></div>","null","","","","","","","","","","","",""
"","","","","","html-keyboard-response","122","390949","0.0-122.0","5BE2FD19A74B4FC5A58F81F792B31130","019cfc7d-8043-7591-a6f5-6ee4e3d88cf2","019cfc7b-6c7b-7b1b-afe7-acad8efc6711","","null","
                <div class=""stimulus-container"">
                    <img src=""images/schematic_sequence/restaurant_scheme/restaurant_scheme_1.png"" class=""exp-image"">
                    <div class=""question-area""></div> 
                </div>","null","","","","","","","","","","","",""
"","","","","","html-button-response","123","392302","0.0-123.0","5BE2FD19A74B4FC5A58F81F792B31130","019cfc7d-8043-7591-a6f5-6ee4e3d88cf2","019cfc7b-6c7b-7b1b-afe7-acad8efc6711","","1353","
                <div class=""stimulus-container"">
                    <img src=""images/schematic_sequence/restaurant_scheme/restaurant_scheme_1.png"" class=""exp-image"">
                    <div class=""question-area"">
                        <p style=""font-size: 20px; font-weight: bold; margin: 0;"">Is there a person in this image?</p>
                    </div>
                </div>","0","main_experiment_trial","1","restaurant_scheme","schematic_sequence","chronological","","","","","","",""
"","","","","","html-keyboard-response","124","397315","0.0-124.0","5BE2FD19A74B4FC5A58F81F792B31130","019cfc7d-8043-7591-a6f5-6ee4e3d88cf2","019cfc7b-6c7b-7b1b-afe7-acad8efc6711","","null","
                <div class=""stimulus-container"">
                    <img src=""images/schematic_sequence/restaurant_scheme/restaurant_scheme_2.png"" class=""exp-image"">
                    <div class=""question-area""></div> 
                </div>","null","","","","","","","","","","","",""
"","","","","","html-button-response","125","397711","0.0-125.0","5BE2FD19A74B4FC5A58F81F792B31130","019cfc7d-8043-7591-a6f5-6ee4e3d88cf2","019cfc7b-6c7b-7b1b-afe7-acad8efc6711","","396","
                <div class=""stimulus-container"">
                    <img src=""images/schematic_sequence/restaurant_scheme/restaurant_scheme_2.png"" class=""exp-image"">
                    <div class=""question-area"">
                        <p style=""font-size: 20px; font-weight: bold; margin: 0;"">Is there a person in this image?</p>
                    </div>
                </div>","1","main_experiment_trial","2","restaurant_scheme","schematic_sequence","chronological","","","","","","",""
"","","","","","html-keyboard-response","126","402723","0.0-126.0","5BE2FD19A74B4FC5A58F81F792B31130","019cfc7d-8043-7591-a6f5-6ee4e3d88cf2","019cfc7b-6c7b-7b1b-afe7-acad8efc6711","","null","
                <div class=""stimulus-container"">
                    <img src=""images/schematic_sequence/restaurant_scheme/restaurant_scheme_3.png"" class=""exp-image"">
                    <div class=""question-area""></div> 
                </div>","null","","","","","","","","","","","",""
"","","","","","html-button-response","127","404002","0.0-127.0","5BE2FD19A74B4FC5A58F81F792B31130","019cfc7d-8043-7591-a6f5-6ee4e3d88cf2","019cfc7b-6c7b-7b1b-afe7-acad8efc6711","","1279","
                <div class=""stimulus-container"">
                    <img src=""images/schematic_sequence/restaurant_scheme/restaurant_scheme_3.png"" class=""exp-image"">
                    <div class=""question-area"">
                        <p style=""font-size: 20px; font-weight: bold; margin: 0;"">Is there a person in this image?</p>
                    </div>
                </div>","1","main_experiment_trial","3","restaurant_scheme","schematic_sequence","chronological","","","","","","",""
"","","","","","html-keyboard-response","128","409012","0.0-128.0","5BE2FD19A74B4FC5A58F81F792B31130","019cfc7d-8043-7591-a6f5-6ee4e3d88cf2","019cfc7b-6c7b-7b1b-afe7-acad8efc6711","","null","
                <div class=""stimulus-container"">
                    <img src=""images/schematic_sequence/restaurant_scheme/restaurant_scheme_4.png"" class=""exp-image"">
                    <div class=""question-area""></div> 
                </div>","null","","","","","","","","","","","",""
"","","","","","html-button-response","129","409543","0.0-129.0","5BE2FD19A74B4FC5A58F81F792B31130","019cfc7d-8043-7591-a6f5-6ee4e3d88cf2","019cfc7b-6c7b-7b1b-afe7-acad8efc6711","","531","
                <div class=""stimulus-container"">
                    <img src=""images/schematic_sequence/restaurant_scheme/restaurant_scheme_4.png"" class=""exp-image"">
                    <div class=""question-area"">
                        <p style=""font-size: 20px; font-weight: bold; margin: 0;"">Is there a person in this image?</p>
                    </div>
                </div>","0","main_experiment_trial","4","restaurant_scheme","schematic_sequence","chronological","","","","","","",""
"","","","","","html-keyboard-response","130","414549","0.0-130.0","5BE2FD19A74B4FC5A58F81F792B31130","019cfc7d-8043-7591-a6f5-6ee4e3d88cf2","019cfc7b-6c7b-7b1b-afe7-acad8efc6711","","null","
                <div class=""stimulus-container"">
                    <img src=""images/schematic_sequence/restaurant_scheme/restaurant_scheme_5.png"" class=""exp-image"">
                    <div class=""question-area""></div> 
                </div>","null","","","","","","","","","","","",""
"","","","","","html-button-response","131","415073","0.0-131.0","5BE2FD19A74B4FC5A58F81F792B31130","019cfc7d-8043-7591-a6f5-6ee4e3d88cf2","019cfc7b-6c7b-7b1b-afe7-acad8efc6711","","523","
                <div class=""stimulus-container"">
                    <img src=""images/schematic_sequence/restaurant_scheme/restaurant_scheme_5.png"" class=""exp-image"">
                    <div class=""question-area"">
                        <p style=""font-size: 20px; font-weight: bold; margin: 0;"">Is there a person in this image?</p>
                    </div>
                </div>","0","main_experiment_trial","5","restaurant_scheme","schematic_sequence","chronological","","","","","","",""
"","","","","","html-keyboard-response","132","420078","0.0-132.0","5BE2FD19A74B4FC5A58F81F792B31130","019cfc7d-8043-7591-a6f5-6ee4e3d88cf2","019cfc7b-6c7b-7b1b-afe7-acad8efc6711","","null","
                <div class=""stimulus-container"">
                    <img src=""images/schematic_sequence/restaurant_scheme/restaurant_scheme_6.png"" class=""exp-image"">
                    <div class=""question-area""></div> 
                </div>","null","","","","","","","","","","","",""
"","","","","","html-button-response","133","420551","0.0-133.0","5BE2FD19A74B4FC5A58F81F792B31130","019cfc7d-8043-7591-a6f5-6ee4e3d88cf2","019cfc7b-6c7b-7b1b-afe7-acad8efc6711","","472","
                <div class=""stimulus-container"">
                    <img src=""images/schematic_sequence/restaurant_scheme/restaurant_scheme_6.png"" class=""exp-image"">
                    <div class=""question-area"">
                        <p style=""font-size: 20px; font-weight: bold; margin: 0;"">Is there a person in this image?</p>
                    </div>
                </div>","1","main_experiment_trial","6","restaurant_scheme","schematic_sequence","chronological","","","","","","",""
"","","","","","html-keyboard-response","134","425560","0.0-134.0","5BE2FD19A74B4FC5A58F81F792B31130","019cfc7d-8043-7591-a6f5-6ee4e3d88cf2","019cfc7b-6c7b-7b1b-afe7-acad8efc6711","","null","
                <div class=""stimulus-container"">
                    <img src=""images/schematic_sequence/restaurant_scheme/restaurant_scheme_7.png"" class=""exp-image"">
                    <div class=""question-area""></div> 
                </div>","null","","","","","","","","","","","",""
"","","","","","html-button-response","135","426096","0.0-135.0","5BE2FD19A74B4FC5A58F81F792B31130","019cfc7d-8043-7591-a6f5-6ee4e3d88cf2","019cfc7b-6c7b-7b1b-afe7-acad8efc6711","","536","
                <div class=""stimulus-container"">
                    <img src=""images/schematic_sequence/restaurant_scheme/restaurant_scheme_7.png"" class=""exp-image"">
                    <div class=""question-area"">
                        <p style=""font-size: 20px; font-weight: bold; margin: 0;"">Is there a person in this image?</p>
                    </div>
                </div>","1","main_experiment_trial","7","restaurant_scheme","schematic_sequence","chronological","","","","","","",""
"","","","","","html-keyboard-response","136","431097","0.0-136.0","5BE2FD19A74B4FC5A58F81F792B31130","019cfc7d-8043-7591-a6f5-6ee4e3d88cf2","019cfc7b-6c7b-7b1b-afe7-acad8efc6711","","null","
                <div class=""stimulus-container"">
                    <img src=""images/schematic_sequence/restaurant_scheme/restaurant_scheme_8.png"" class=""exp-image"">
                    <div class=""question-area""></div> 
                </div>","null","","","","","","","","","","","",""
"","","","","","html-button-response","137","431637","0.0-137.0","5BE2FD19A74B4FC5A58F81F792B31130","019cfc7d-8043-7591-a6f5-6ee4e3d88cf2","019cfc7b-6c7b-7b1b-afe7-acad8efc6711","","540","
                <div class=""stimulus-container"">
                    <img src=""images/schematic_sequence/restaurant_scheme/restaurant_scheme_8.png"" class=""exp-image"">
                    <div class=""question-area"">
                        <p style=""font-size: 20px; font-weight: bold; margin: 0;"">Is there a person in this image?</p>
                    </div>
                </div>","0","main_experiment_trial","8","restaurant_scheme","schematic_sequence","chronological","","","","","","",""
"","","","","","html-keyboard-response","138","436639","0.0-138.0","5BE2FD19A74B4FC5A58F81F792B31130","019cfc7d-8043-7591-a6f5-6ee4e3d88cf2","019cfc7b-6c7b-7b1b-afe7-acad8efc6711","","null","
                <div class=""stimulus-container"">
                    <img src=""images/schematic_sequence/restaurant_scheme/restaurant_scheme_9.png"" class=""exp-image"">
                    <div class=""question-area""></div> 
                </div>","null","","","","","","","","","","","",""
"","","","","","html-button-response","139","437135","0.0-139.0","5BE2FD19A74B4FC5A58F81F792B31130","019cfc7d-8043-7591-a6f5-6ee4e3d88cf2","019cfc7b-6c7b-7b1b-afe7-acad8efc6711","","496","
                <div class=""stimulus-container"">
                    <img src=""images/schematic_sequence/restaurant_scheme/restaurant_scheme_9.png"" class=""exp-image"">
                    <div class=""question-area"">
                        <p style=""font-size: 20px; font-weight: bold; margin: 0;"">Is there a person in this image?</p>
                    </div>
                </div>","0","main_experiment_trial","9","restaurant_scheme","schematic_sequence","chronological","","","","","","",""
"","","","","","html-keyboard-response","140","442143","0.0-140.0","5BE2FD19A74B4FC5A58F81F792B31130","019cfc7d-8043-7591-a6f5-6ee4e3d88cf2","019cfc7b-6c7b-7b1b-afe7-acad8efc6711","","null","
                <div class=""stimulus-container"">
                    <img src=""images/schematic_sequence/restaurant_scheme/restaurant_scheme_ten.png"" class=""exp-image"">
                    <div class=""question-area""></div> 
                </div>","null","","","","","","","","","","","",""
"","","","","","html-button-response","141","442485","0.0-141.0","5BE2FD19A74B4FC5A58F81F792B31130","019cfc7d-8043-7591-a6f5-6ee4e3d88cf2","019cfc7b-6c7b-7b1b-afe7-acad8efc6711","","342","
                <div class=""stimulus-container"">
                    <img src=""images/schematic_sequence/restaurant_scheme/restaurant_scheme_ten.png"" class=""exp-image"">
                    <div class=""question-area"">
                        <p style=""font-size: 20px; font-weight: bold; margin: 0;"">Is there a person in this image?</p>
                    </div>
                </div>","0","main_experiment_trial","ten","restaurant_scheme","schematic_sequence","chronological","","","","","","",""
"","","","","","html-keyboard-response","142","447493","0.0-142.0","5BE2FD19A74B4FC5A58F81F792B31130","019cfc7d-8043-7591-a6f5-6ee4e3d88cf2","019cfc7b-6c7b-7b1b-afe7-acad8efc6711","","null","<div style=""background-color: white; width: 100vw; height: 100vh;""></div>","null","","","","","","","","","","","",""
"","","","","","html-keyboard-response","143","452496","0.0-143.0","5BE2FD19A74B4FC5A58F81F792B31130","019cfc7d-8043-7591-a6f5-6ee4e3d88cf2","019cfc7b-6c7b-7b1b-afe7-acad8efc6711","","null","
                <div class=""stimulus-container"">
                    <img src=""images/causal_sequence/the_performance_causal/the_performance_causal_1.png"" class=""exp-image"">
                    <div class=""question-area""></div> 
                </div>","null","","","","","","","","","","","",""
"","","","","","html-button-response","144","452793","0.0-144.0","5BE2FD19A74B4FC5A58F81F792B31130","019cfc7d-8043-7591-a6f5-6ee4e3d88cf2","019cfc7b-6c7b-7b1b-afe7-acad8efc6711","","296","
                <div class=""stimulus-container"">
                    <img src=""images/causal_sequence/the_performance_causal/the_performance_causal_1.png"" class=""exp-image"">
                    <div class=""question-area"">
                        <p style=""font-size: 20px; font-weight: bold; margin: 0;"">Is there a person in this image?</p>
                    </div>
                </div>","0","main_experiment_trial","1","the_performance_causal","causal_sequence","chronological","","","","","","",""
"","","","","","html-keyboard-response","145","457809","0.0-145.0","5BE2FD19A74B4FC5A58F81F792B31130","019cfc7d-8043-7591-a6f5-6ee4e3d88cf2","019cfc7b-6c7b-7b1b-afe7-acad8efc6711","","null","
                <div class=""stimulus-container"">
                    <img src=""images/causal_sequence/the_performance_causal/the_performance_causal_2.png"" class=""exp-image"">
                    <div class=""question-area""></div> 
                </div>","null","","","","","","","","","","","",""
"","","","","","html-button-response","146","458127","0.0-146.0","5BE2FD19A74B4FC5A58F81F792B31130","019cfc7d-8043-7591-a6f5-6ee4e3d88cf2","019cfc7b-6c7b-7b1b-afe7-acad8efc6711","","318","
                <div class=""stimulus-container"">
                    <img src=""images/causal_sequence/the_performance_causal/the_performance_causal_2.png"" class=""exp-image"">
                    <div class=""question-area"">
                        <p style=""font-size: 20px; font-weight: bold; margin: 0;"">Is there a person in this image?</p>
                    </div>
                </div>","0","main_experiment_trial","2","the_performance_causal","causal_sequence","chronological","","","","","","",""
"","","","","","html-keyboard-response","147","463139","0.0-147.0","5BE2FD19A74B4FC5A58F81F792B31130","019cfc7d-8043-7591-a6f5-6ee4e3d88cf2","019cfc7b-6c7b-7b1b-afe7-acad8efc6711","","null","
                <div class=""stimulus-container"">
                    <img src=""images/causal_sequence/the_performance_causal/the_performance_causal_3.png"" class=""exp-image"">
                    <div class=""question-area""></div> 
                </div>","null","","","","","","","","","","","",""
"","","","","","html-button-response","148","463411","0.0-148.0","5BE2FD19A74B4FC5A58F81F792B31130","019cfc7d-8043-7591-a6f5-6ee4e3d88cf2","019cfc7b-6c7b-7b1b-afe7-acad8efc6711","","272","
                <div class=""stimulus-container"">
                    <img src=""images/causal_sequence/the_performance_causal/the_performance_causal_3.png"" class=""exp-image"">
                    <div class=""question-area"">
                        <p style=""font-size: 20px; font-weight: bold; margin: 0;"">Is there a person in this image?</p>
                    </div>
                </div>","0","main_experiment_trial","3","the_performance_causal","causal_sequence","chronological","","","","","","",""
"","","","","","html-keyboard-response","149","468425","0.0-149.0","5BE2FD19A74B4FC5A58F81F792B31130","019cfc7d-8043-7591-a6f5-6ee4e3d88cf2","019cfc7b-6c7b-7b1b-afe7-acad8efc6711","","null","
                <div class=""stimulus-container"">
                    <img src=""images/causal_sequence/the_performance_causal/the_performance_causal_4.png"" class=""exp-image"">
                    <div class=""question-area""></div> 
                </div>","null","","","","","","","","","","","",""
"","","","","","html-button-response","150","468715","0.0-150.0","5BE2FD19A74B4FC5A58F81F792B31130","019cfc7d-8043-7591-a6f5-6ee4e3d88cf2","019cfc7b-6c7b-7b1b-afe7-acad8efc6711","","289","
                <div class=""stimulus-container"">
                    <img src=""images/causal_sequence/the_performance_causal/the_performance_causal_4.png"" class=""exp-image"">
                    <div class=""question-area"">
                        <p style=""font-size: 20px; font-weight: bold; margin: 0;"">Is there a person in this image?</p>
                    </div>
                </div>","0","main_experiment_trial","4","the_performance_causal","causal_sequence","chronological","","","","","","",""
"","","","","","html-keyboard-response","151","473728","0.0-151.0","5BE2FD19A74B4FC5A58F81F792B31130","019cfc7d-8043-7591-a6f5-6ee4e3d88cf2","019cfc7b-6c7b-7b1b-afe7-acad8efc6711","","null","
                <div class=""stimulus-container"">
                    <img src=""images/causal_sequence/the_performance_causal/the_performance_causal_5.png"" class=""exp-image"">
                    <div class=""question-area""></div> 
                </div>","null","","","","","","","","","","","",""
"","","","","","html-button-response","152","474067","0.0-152.0","5BE2FD19A74B4FC5A58F81F792B31130","019cfc7d-8043-7591-a6f5-6ee4e3d88cf2","019cfc7b-6c7b-7b1b-afe7-acad8efc6711","","339","
                <div class=""stimulus-container"">
                    <img src=""images/causal_sequence/the_performance_causal/the_performance_causal_5.png"" class=""exp-image"">
                    <div class=""question-area"">
                        <p style=""font-size: 20px; font-weight: bold; margin: 0;"">Is there a person in this image?</p>
                    </div>
                </div>","0","main_experiment_trial","5","the_performance_causal","causal_sequence","chronological","","","","","","",""
"","","","","","html-keyboard-response","153","479068","0.0-153.0","5BE2FD19A74B4FC5A58F81F792B31130","019cfc7d-8043-7591-a6f5-6ee4e3d88cf2","019cfc7b-6c7b-7b1b-afe7-acad8efc6711","","null","
                <div class=""stimulus-container"">
                    <img src=""images/causal_sequence/the_performance_causal/the_performance_causal_6.png"" class=""exp-image"">
                    <div class=""question-area""></div> 
                </div>","null","","","","","","","","","","","",""
"","","","","","html-button-response","154","479386","0.0-154.0","5BE2FD19A74B4FC5A58F81F792B31130","019cfc7d-8043-7591-a6f5-6ee4e3d88cf2","019cfc7b-6c7b-7b1b-afe7-acad8efc6711","","318","
                <div class=""stimulus-container"">
                    <img src=""images/causal_sequence/the_performance_causal/the_performance_causal_6.png"" class=""exp-image"">
                    <div class=""question-area"">
                        <p style=""font-size: 20px; font-weight: bold; margin: 0;"">Is there a person in this image?</p>
                    </div>
                </div>","0","main_experiment_trial","6","the_performance_causal","causal_sequence","chronological","","","","","","",""
"","","","","","html-keyboard-response","155","484400","0.0-155.0","5BE2FD19A74B4FC5A58F81F792B31130","019cfc7d-8043-7591-a6f5-6ee4e3d88cf2","019cfc7b-6c7b-7b1b-afe7-acad8efc6711","","null","
                <div class=""stimulus-container"">
                    <img src=""images/causal_sequence/the_performance_causal/the_performance_causal_7.png"" class=""exp-image"">
                    <div class=""question-area""></div> 
                </div>","null","","","","","","","","","","","",""
"","","","","","html-button-response","156","484717","0.0-156.0","5BE2FD19A74B4FC5A58F81F792B31130","019cfc7d-8043-7591-a6f5-6ee4e3d88cf2","019cfc7b-6c7b-7b1b-afe7-acad8efc6711","","317","
                <div class=""stimulus-container"">
                    <img src=""images/causal_sequence/the_performance_causal/the_performance_causal_7.png"" class=""exp-image"">
                    <div class=""question-area"">
                        <p style=""font-size: 20px; font-weight: bold; margin: 0;"">Is there a person in this image?</p>
                    </div>
                </div>","0","main_experiment_trial","7","the_performance_causal","causal_sequence","chronological","","","","","","",""
"","","","","","html-keyboard-response","157","489719","0.0-157.0","5BE2FD19A74B4FC5A58F81F792B31130","019cfc7d-8043-7591-a6f5-6ee4e3d88cf2","019cfc7b-6c7b-7b1b-afe7-acad8efc6711","","null","
                <div class=""stimulus-container"">
                    <img src=""images/causal_sequence/the_performance_causal/the_performance_causal_8.png"" class=""exp-image"">
                    <div class=""question-area""></div> 
                </div>","null","","","","","","","","","","","",""
"","","","","","html-button-response","158","490290","0.0-158.0","5BE2FD19A74B4FC5A58F81F792B31130","019cfc7d-8043-7591-a6f5-6ee4e3d88cf2","019cfc7b-6c7b-7b1b-afe7-acad8efc6711","","570","
                <div class=""stimulus-container"">
                    <img src=""images/causal_sequence/the_performance_causal/the_performance_causal_8.png"" class=""exp-image"">
                    <div class=""question-area"">
                        <p style=""font-size: 20px; font-weight: bold; margin: 0;"">Is there a person in this image?</p>
                    </div>
                </div>","0","main_experiment_trial","8","the_performance_causal","causal_sequence","chronological","","","","","","",""
"","","","","","html-keyboard-response","159","495305","0.0-159.0","5BE2FD19A74B4FC5A58F81F792B31130","019cfc7d-8043-7591-a6f5-6ee4e3d88cf2","019cfc7b-6c7b-7b1b-afe7-acad8efc6711","","null","
                <div class=""stimulus-container"">
                    <img src=""images/causal_sequence/the_performance_causal/the_performance_causal_9.png"" class=""exp-image"">
                    <div class=""question-area""></div> 
                </div>","null","","","","","","","","","","","",""
"","","","","","html-button-response","160","495584","0.0-160.0","5BE2FD19A74B4FC5A58F81F792B31130","019cfc7d-8043-7591-a6f5-6ee4e3d88cf2","019cfc7b-6c7b-7b1b-afe7-acad8efc6711","","278","
                <div class=""stimulus-container"">
                    <img src=""images/causal_sequence/the_performance_causal/the_performance_causal_9.png"" class=""exp-image"">
                    <div class=""question-area"">
                        <p style=""font-size: 20px; font-weight: bold; margin: 0;"">Is there a person in this image?</p>
                    </div>
                </div>","0","main_experiment_trial","9","the_performance_causal","causal_sequence","chronological","","","","","","",""
"","","","","","html-keyboard-response","161","500590","0.0-161.0","5BE2FD19A74B4FC5A58F81F792B31130","019cfc7d-8043-7591-a6f5-6ee4e3d88cf2","019cfc7b-6c7b-7b1b-afe7-acad8efc6711","","null","
                <div class=""stimulus-container"">
                    <img src=""images/causal_sequence/the_performance_causal/the_performance_causal_ten.png"" class=""exp-image"">
                    <div class=""question-area""></div> 
                </div>","null","","","","","","","","","","","",""
"","","","","","html-button-response","162","501324","0.0-162.0","5BE2FD19A74B4FC5A58F81F792B31130","019cfc7d-8043-7591-a6f5-6ee4e3d88cf2","019cfc7b-6c7b-7b1b-afe7-acad8efc6711","","734","
                <div class=""stimulus-container"">
                    <img src=""images/causal_sequence/the_performance_causal/the_performance_causal_ten.png"" class=""exp-image"">
                    <div class=""question-area"">
                        <p style=""font-size: 20px; font-weight: bold; margin: 0;"">Is there a person in this image?</p>
                    </div>
                </div>","0","main_experiment_trial","ten","the_performance_causal","causal_sequence","chronological","","","","","","",""
"","","","","","html-keyboard-response","163","506338","0.0-163.0","5BE2FD19A74B4FC5A58F81F792B31130","019cfc7d-8043-7591-a6f5-6ee4e3d88cf2","019cfc7b-6c7b-7b1b-afe7-acad8efc6711","","null","<div style=""background-color: white; width: 100vw; height: 100vh;""></div>","null","","","","","","","","","","","",""
"","","","","","html-keyboard-response","164","511348","0.0-164.0","5BE2FD19A74B4FC5A58F81F792B31130","019cfc7d-8043-7591-a6f5-6ee4e3d88cf2","019cfc7b-6c7b-7b1b-afe7-acad8efc6711","","null","
                <div class=""stimulus-container"">
                    <img src=""images/semantic_sequence/self_care_activities_semantic/self_care_activities_semantic_1.png"" class=""exp-image"">
                    <div class=""question-area""></div> 
                </div>","null","","","","","","","","","","","",""
"","","","","","html-button-response","165","511657","0.0-165.0","5BE2FD19A74B4FC5A58F81F792B31130","019cfc7d-8043-7591-a6f5-6ee4e3d88cf2","019cfc7b-6c7b-7b1b-afe7-acad8efc6711","","308","
                <div class=""stimulus-container"">
                    <img src=""images/semantic_sequence/self_care_activities_semantic/self_care_activities_semantic_1.png"" class=""exp-image"">
                    <div class=""question-area"">
                        <p style=""font-size: 20px; font-weight: bold; margin: 0;"">Is there a person in this image?</p>
                    </div>
                </div>","0","main_experiment_trial","1","self_care_activities_semantic","semantic_sequence","chronological","","","","","","",""
"","","","","","html-keyboard-response","166","516669","0.0-166.0","5BE2FD19A74B4FC5A58F81F792B31130","019cfc7d-8043-7591-a6f5-6ee4e3d88cf2","019cfc7b-6c7b-7b1b-afe7-acad8efc6711","","null","
                <div class=""stimulus-container"">
                    <img src=""images/semantic_sequence/self_care_activities_semantic/self_care_activities_semantic_2.png"" class=""exp-image"">
                    <div class=""question-area""></div> 
                </div>","null","","","","","","","","","","","",""
"","","","","","html-button-response","167","517505","0.0-167.0","5BE2FD19A74B4FC5A58F81F792B31130","019cfc7d-8043-7591-a6f5-6ee4e3d88cf2","019cfc7b-6c7b-7b1b-afe7-acad8efc6711","","836","
                <div class=""stimulus-container"">
                    <img src=""images/semantic_sequence/self_care_activities_semantic/self_care_activities_semantic_2.png"" class=""exp-image"">
                    <div class=""question-area"">
                        <p style=""font-size: 20px; font-weight: bold; margin: 0;"">Is there a person in this image?</p>
                    </div>
                </div>","0","main_experiment_trial","2","self_care_activities_semantic","semantic_sequence","chronological","","","","","","",""
"","","","","","html-keyboard-response","168","522518","0.0-168.0","5BE2FD19A74B4FC5A58F81F792B31130","019cfc7d-8043-7591-a6f5-6ee4e3d88cf2","019cfc7b-6c7b-7b1b-afe7-acad8efc6711","","null","
                <div class=""stimulus-container"">
                    <img src=""images/semantic_sequence/self_care_activities_semantic/self_care_activities_semantic_3.png"" class=""exp-image"">
                    <div class=""question-area""></div> 
                </div>","null","","","","","","","","","","","",""
"","","","","","html-button-response","169","522933","0.0-169.0","5BE2FD19A74B4FC5A58F81F792B31130","019cfc7d-8043-7591-a6f5-6ee4e3d88cf2","019cfc7b-6c7b-7b1b-afe7-acad8efc6711","","415","
                <div class=""stimulus-container"">
                    <img src=""images/semantic_sequence/self_care_activities_semantic/self_care_activities_semantic_3.png"" class=""exp-image"">
                    <div class=""question-area"">
                        <p style=""font-size: 20px; font-weight: bold; margin: 0;"">Is there a person in this image?</p>
                    </div>
                </div>","0","main_experiment_trial","3","self_care_activities_semantic","semantic_sequence","chronological","","","","","","",""
"","","","","","html-keyboard-response","170","527940","0.0-170.0","5BE2FD19A74B4FC5A58F81F792B31130","019cfc7d-8043-7591-a6f5-6ee4e3d88cf2","019cfc7b-6c7b-7b1b-afe7-acad8efc6711","","null","
                <div class=""stimulus-container"">
                    <img src=""images/semantic_sequence/self_care_activities_semantic/self_care_activities_semantic_4.png"" class=""exp-image"">
                    <div class=""question-area""></div> 
                </div>","null","","","","","","","","","","","",""
"","","","","","html-button-response","171","528310","0.0-171.0","5BE2FD19A74B4FC5A58F81F792B31130","019cfc7d-8043-7591-a6f5-6ee4e3d88cf2","019cfc7b-6c7b-7b1b-afe7-acad8efc6711","","369","
                <div class=""stimulus-container"">
                    <img src=""images/semantic_sequence/self_care_activities_semantic/self_care_activities_semantic_4.png"" class=""exp-image"">
                    <div class=""question-area"">
                        <p style=""font-size: 20px; font-weight: bold; margin: 0;"">Is there a person in this image?</p>
                    </div>
                </div>","0","main_experiment_trial","4","self_care_activities_semantic","semantic_sequence","chronological","","","","","","",""
"","","","","","html-keyboard-response","172","533324","0.0-172.0","5BE2FD19A74B4FC5A58F81F792B31130","019cfc7d-8043-7591-a6f5-6ee4e3d88cf2","019cfc7b-6c7b-7b1b-afe7-acad8efc6711","","null","
                <div class=""stimulus-container"">
                    <img src=""images/semantic_sequence/self_care_activities_semantic/self_care_activities_semantic_5.png"" class=""exp-image"">
                    <div class=""question-area""></div> 
                </div>","null","","","","","","","","","","","",""
"","","","","","html-button-response","173","533675","0.0-173.0","5BE2FD19A74B4FC5A58F81F792B31130","019cfc7d-8043-7591-a6f5-6ee4e3d88cf2","019cfc7b-6c7b-7b1b-afe7-acad8efc6711","","351","
                <div class=""stimulus-container"">
                    <img src=""images/semantic_sequence/self_care_activities_semantic/self_care_activities_semantic_5.png"" class=""exp-image"">
                    <div class=""question-area"">
                        <p style=""font-size: 20px; font-weight: bold; margin: 0;"">Is there a person in this image?</p>
                    </div>
                </div>","0","main_experiment_trial","5","self_care_activities_semantic","semantic_sequence","chronological","","","","","","",""
"","","","","","html-keyboard-response","174","538688","0.0-174.0","5BE2FD19A74B4FC5A58F81F792B31130","019cfc7d-8043-7591-a6f5-6ee4e3d88cf2","019cfc7b-6c7b-7b1b-afe7-acad8efc6711","","null","
                <div class=""stimulus-container"">
                    <img src=""images/semantic_sequence/self_care_activities_semantic/self_care_activities_semantic_6.png"" class=""exp-image"">
                    <div class=""question-area""></div> 
                </div>","null","","","","","","","","","","","",""
"","","","","","html-button-response","175","540098","0.0-175.0","5BE2FD19A74B4FC5A58F81F792B31130","019cfc7d-8043-7591-a6f5-6ee4e3d88cf2","019cfc7b-6c7b-7b1b-afe7-acad8efc6711","","1409","
                <div class=""stimulus-container"">
                    <img src=""images/semantic_sequence/self_care_activities_semantic/self_care_activities_semantic_6.png"" class=""exp-image"">
                    <div class=""question-area"">
                        <p style=""font-size: 20px; font-weight: bold; margin: 0;"">Is there a person in this image?</p>
                    </div>
                </div>","1","main_experiment_trial","6","self_care_activities_semantic","semantic_sequence","chronological","","","","","","",""
"","","","","","html-keyboard-response","176","545107","0.0-176.0","5BE2FD19A74B4FC5A58F81F792B31130","019cfc7d-8043-7591-a6f5-6ee4e3d88cf2","019cfc7b-6c7b-7b1b-afe7-acad8efc6711","","null","
                <div class=""stimulus-container"">
