"success","timeout","failed_images","failed_audio","failed_video","trial_type","trial_index","time_elapsed","internal_node_id","subject_id","study_id","session_id","view_history","rt","stimulus","response","task","image_index","folder","sequence_type","presentation_order","valuable_image_index","reward_type","target_X","l_dist","r_dist","chosen_image_index","selected_after_X","correct_choice"
"true","false","[]","[]","[]","preload","0","30449","0.0-0.0","143A508813DA45C2852DC6A78FD99FC0","019d6651-d54b-7b8e-9648-4dbcda59a77d","019d6630-2071-75cb-8026-6699844a2719","","","","","","","","","","","","","","","","",""
"","","","","","instructions","1","33422","0.0-1.0","143A508813DA45C2852DC6A78FD99FC0","019d6651-d54b-7b8e-9648-4dbcda59a77d","019d6630-2071-75cb-8026-6699844a2719","[{""page_index"":0,""viewing_time"":2973}]","2973","","","","","","","","","","","","","","",""
"","","","","","instructions","2","39936","0.0-2.0","143A508813DA45C2852DC6A78FD99FC0","019d6651-d54b-7b8e-9648-4dbcda59a77d","019d6630-2071-75cb-8026-6699844a2719","[{""page_index"":0,""viewing_time"":6513}]","6513","","","","","","","","","","","","","","",""
"true","","","","","fullscreen","3","637188","0.0-3.0","143A508813DA45C2852DC6A78FD99FC0","019d6651-d54b-7b8e-9648-4dbcda59a77d","019d6630-2071-75cb-8026-6699844a2719","","596249","","","","","","","","","","","","","","",""
"","","","","","instructions","4","644307","0.0-4.0","143A508813DA45C2852DC6A78FD99FC0","019d6651-d54b-7b8e-9648-4dbcda59a77d","019d6630-2071-75cb-8026-6699844a2719","[{""page_index"":0,""viewing_time"":7118}]","7119","","","","","","","","","","","","","","",""
"","","","","","instructions","5","650950","0.0-5.0","143A508813DA45C2852DC6A78FD99FC0","019d6651-d54b-7b8e-9648-4dbcda59a77d","019d6630-2071-75cb-8026-6699844a2719","[{""page_index"":0,""viewing_time"":6643}]","6643","","","","","","","","","","","","","","",""
"","","","","","html-keyboard-response","6","654962","0.0-6.0","143A508813DA45C2852DC6A78FD99FC0","019d6651-d54b-7b8e-9648-4dbcda59a77d","019d6630-2071-75cb-8026-6699844a2719","","null","
                <div class=""stimulus-container"">
                    <img src=""images/instructions/movie_1.png"" class=""exp-image"">
                    <div class=""question-area""></div> 
                </div>","null","","","","","","","","","","","","",""
"","","","","","html-button-response","7","656535","0.0-7.0","143A508813DA45C2852DC6A78FD99FC0","019d6651-d54b-7b8e-9648-4dbcda59a77d","019d6630-2071-75cb-8026-6699844a2719","","1572","
                <div class=""stimulus-container"">
                    <img src=""images/instructions/movie_1.png"" class=""exp-image"">
                    <div class=""question-area"">
                        <p style=""font-size: 20px; font-weight: bold; margin: 0;"">Was there a person in this image?</p>
                    </div>
                </div>","0","example_question","1","","","","","","","","","","",""
"","","","","","html-keyboard-response","8","660546","0.0-8.0","143A508813DA45C2852DC6A78FD99FC0","019d6651-d54b-7b8e-9648-4dbcda59a77d","019d6630-2071-75cb-8026-6699844a2719","","null","
                <div class=""stimulus-container"">
                    <img src=""images/instructions/movie_2.png"" class=""exp-image"">
                    <div class=""question-area""></div> 
                </div>","null","","","","","","","","","","","","",""
"","","","","","html-button-response","9","661542","0.0-9.0","143A508813DA45C2852DC6A78FD99FC0","019d6651-d54b-7b8e-9648-4dbcda59a77d","019d6630-2071-75cb-8026-6699844a2719","","995","
                <div class=""stimulus-container"">
                    <img src=""images/instructions/movie_2.png"" class=""exp-image"">
                    <div class=""question-area"">
                        <p style=""font-size: 20px; font-weight: bold; margin: 0;"">Was there a person in this image?</p>
                    </div>
                </div>","0","example_question","2","","","","","","","","","","",""
"","","","","","html-keyboard-response","10","665547","0.0-10.0","143A508813DA45C2852DC6A78FD99FC0","019d6651-d54b-7b8e-9648-4dbcda59a77d","019d6630-2071-75cb-8026-6699844a2719","","null","
                <div class=""stimulus-container"">
                    <img src=""images/instructions/movie_3.png"" class=""exp-image"">
                    <div class=""question-area""></div> 
                </div>","null","","","","","","","","","","","","",""
"","","","","","html-button-response","11","666198","0.0-11.0","143A508813DA45C2852DC6A78FD99FC0","019d6651-d54b-7b8e-9648-4dbcda59a77d","019d6630-2071-75cb-8026-6699844a2719","","651","
                <div class=""stimulus-container"">
                    <img src=""images/instructions/movie_3.png"" class=""exp-image"">
                    <div class=""question-area"">
                        <p style=""font-size: 20px; font-weight: bold; margin: 0;"">Was there a person in this image?</p>
                    </div>
                </div>","0","example_question","3","","","","","","","","","","",""
"","","","","","html-keyboard-response","12","670207","0.0-12.0","143A508813DA45C2852DC6A78FD99FC0","019d6651-d54b-7b8e-9648-4dbcda59a77d","019d6630-2071-75cb-8026-6699844a2719","","null","
                <div class=""stimulus-container"">
                    <img src=""images/instructions/movie_4.png"" class=""exp-image"">
                    <div class=""question-area""></div> 
                </div>","null","","","","","","","","","","","","",""
"","","","","","html-button-response","13","671205","0.0-13.0","143A508813DA45C2852DC6A78FD99FC0","019d6651-d54b-7b8e-9648-4dbcda59a77d","019d6630-2071-75cb-8026-6699844a2719","","997","
                <div class=""stimulus-container"">
                    <img src=""images/instructions/movie_4.png"" class=""exp-image"">
                    <div class=""question-area"">
                        <p style=""font-size: 20px; font-weight: bold; margin: 0;"">Was there a person in this image?</p>
                    </div>
                </div>","0","example_question","4","","","","","","","","","","",""
"","","","","","instructions","14","672736","0.0-14.0","143A508813DA45C2852DC6A78FD99FC0","019d6651-d54b-7b8e-9648-4dbcda59a77d","019d6630-2071-75cb-8026-6699844a2719","[{""page_index"":0,""viewing_time"":1531}]","1531","","","","","","","","","","","","","","",""
"","","","","","instructions","15","679637","0.0-15.0","143A508813DA45C2852DC6A78FD99FC0","019d6651-d54b-7b8e-9648-4dbcda59a77d","019d6630-2071-75cb-8026-6699844a2719","[{""page_index"":0,""viewing_time"":6900}]","6901","","","","","","","","","","","","","","",""
"","","","","","html-keyboard-response","16","684638","0.0-16.0","143A508813DA45C2852DC6A78FD99FC0","019d6651-d54b-7b8e-9648-4dbcda59a77d","019d6630-2071-75cb-8026-6699844a2719","","null","<div style=""background-color: white; width: 100vw; height: 100vh;""></div>","null","","","","","","","","","","","","",""
"","","","","","html-keyboard-response","17","689648","0.0-17.0","143A508813DA45C2852DC6A78FD99FC0","019d6651-d54b-7b8e-9648-4dbcda59a77d","019d6630-2071-75cb-8026-6699844a2719","","null","
                <div class=""stimulus-container"">
                    <img src=""images/schematic_sequence/flight_scheme/flight_scheme_1.png"" class=""exp-image"">
                    <div class=""question-area""></div> 
                </div>","null","","","","","","","","","","","","",""
"","","","","","html-button-response","18","692658","0.0-18.0","143A508813DA45C2852DC6A78FD99FC0","019d6651-d54b-7b8e-9648-4dbcda59a77d","019d6630-2071-75cb-8026-6699844a2719","","null","
                <div class=""stimulus-container"">
                    <img src=""images/schematic_sequence/flight_scheme/flight_scheme_1.png"" class=""exp-image"">
                    <div class=""question-area"">
                        <p style=""font-size: 20px; font-weight: bold; margin: 0;"">Is there a person in this image?</p>
                    </div>
                </div>","null","main_experiment_trial","1","flight_scheme","schematic_sequence","chronological","","","","","","","",""
"","","","","","html-keyboard-response","19","697671","0.0-19.0","143A508813DA45C2852DC6A78FD99FC0","019d6651-d54b-7b8e-9648-4dbcda59a77d","019d6630-2071-75cb-8026-6699844a2719","","null","
                <div class=""stimulus-container"">
                    <img src=""images/schematic_sequence/flight_scheme/flight_scheme_2.png"" class=""exp-image"">
                    <div class=""question-area""></div> 
                </div>","null","","","","","","","","","","","","",""
"","","","","","html-button-response","20","698398","0.0-20.0","143A508813DA45C2852DC6A78FD99FC0","019d6651-d54b-7b8e-9648-4dbcda59a77d","019d6630-2071-75cb-8026-6699844a2719","","726","
                <div class=""stimulus-container"">
                    <img src=""images/schematic_sequence/flight_scheme/flight_scheme_2.png"" class=""exp-image"">
                    <div class=""question-area"">
                        <p style=""font-size: 20px; font-weight: bold; margin: 0;"">Is there a person in this image?</p>
                    </div>
                </div>","1","main_experiment_trial","2","flight_scheme","schematic_sequence","chronological","","","","","","","",""
"","","","","","html-keyboard-response","21","703400","0.0-21.0","143A508813DA45C2852DC6A78FD99FC0","019d6651-d54b-7b8e-9648-4dbcda59a77d","019d6630-2071-75cb-8026-6699844a2719","","null","
                <div class=""stimulus-container"">
                    <img src=""images/schematic_sequence/flight_scheme/flight_scheme_3.png"" class=""exp-image"">
                    <div class=""question-area""></div> 
                </div>","null","","","","","","","","","","","","",""
"","","","","","html-button-response","22","704323","0.0-22.0","143A508813DA45C2852DC6A78FD99FC0","019d6651-d54b-7b8e-9648-4dbcda59a77d","019d6630-2071-75cb-8026-6699844a2719","","922","
                <div class=""stimulus-container"">
                    <img src=""images/schematic_sequence/flight_scheme/flight_scheme_3.png"" class=""exp-image"">
                    <div class=""question-area"">
                        <p style=""font-size: 20px; font-weight: bold; margin: 0;"">Is there a person in this image?</p>
                    </div>
                </div>","0","main_experiment_trial","3","flight_scheme","schematic_sequence","chronological","","","","","","","",""
"","","","","","html-keyboard-response","23","709330","0.0-23.0","143A508813DA45C2852DC6A78FD99FC0","019d6651-d54b-7b8e-9648-4dbcda59a77d","019d6630-2071-75cb-8026-6699844a2719","","null","
                <div class=""stimulus-container"">
                    <img src=""images/schematic_sequence/flight_scheme/flight_scheme_4.png"" class=""exp-image"">
                    <div class=""question-area""></div> 
                </div>","null","","","","","","","","","","","","",""
"","","","","","html-button-response","24","710019","0.0-24.0","143A508813DA45C2852DC6A78FD99FC0","019d6651-d54b-7b8e-9648-4dbcda59a77d","019d6630-2071-75cb-8026-6699844a2719","","688","
                <div class=""stimulus-container"">
                    <img src=""images/schematic_sequence/flight_scheme/flight_scheme_4.png"" class=""exp-image"">
                    <div class=""question-area"">
                        <p style=""font-size: 20px; font-weight: bold; margin: 0;"">Is there a person in this image?</p>
                    </div>
                </div>","0","main_experiment_trial","4","flight_scheme","schematic_sequence","chronological","","","","","","","",""
"","","","","","html-keyboard-response","25","715032","0.0-25.0","143A508813DA45C2852DC6A78FD99FC0","019d6651-d54b-7b8e-9648-4dbcda59a77d","019d6630-2071-75cb-8026-6699844a2719","","null","
                <div class=""stimulus-container"">
                    <img src=""images/schematic_sequence/flight_scheme/flight_scheme_5.png"" class=""exp-image"">
                    <div class=""question-area""></div> 
                </div>","null","","","","","","","","","","","","",""
"","","","","","html-button-response","26","715664","0.0-26.0","143A508813DA45C2852DC6A78FD99FC0","019d6651-d54b-7b8e-9648-4dbcda59a77d","019d6630-2071-75cb-8026-6699844a2719","","631","
                <div class=""stimulus-container"">
                    <img src=""images/schematic_sequence/flight_scheme/flight_scheme_5.png"" class=""exp-image"">
                    <div class=""question-area"">
                        <p style=""font-size: 20px; font-weight: bold; margin: 0;"">Is there a person in this image?</p>
                    </div>
                </div>","0","main_experiment_trial","5","flight_scheme","schematic_sequence","chronological","","","","","","","",""
"","","","","","html-keyboard-response","27","720669","0.0-27.0","143A508813DA45C2852DC6A78FD99FC0","019d6651-d54b-7b8e-9648-4dbcda59a77d","019d6630-2071-75cb-8026-6699844a2719","","null","
                <div class=""stimulus-container"">
                    <img src=""images/schematic_sequence/flight_scheme/flight_scheme_6.png"" class=""exp-image"">
                    <div class=""question-area""></div> 
                </div>","null","","","","","","","","","","","","",""
"","","","","","html-button-response","28","721588","0.0-28.0","143A508813DA45C2852DC6A78FD99FC0","019d6651-d54b-7b8e-9648-4dbcda59a77d","019d6630-2071-75cb-8026-6699844a2719","","918","
                <div class=""stimulus-container"">
                    <img src=""images/schematic_sequence/flight_scheme/flight_scheme_6.png"" class=""exp-image"">
                    <div class=""question-area"">
                        <p style=""font-size: 20px; font-weight: bold; margin: 0;"">Is there a person in this image?</p>
                    </div>
                </div>","1","main_experiment_trial","6","flight_scheme","schematic_sequence","chronological","","","","","","","",""
"","","","","","html-keyboard-response","29","726601","0.0-29.0","143A508813DA45C2852DC6A78FD99FC0","019d6651-d54b-7b8e-9648-4dbcda59a77d","019d6630-2071-75cb-8026-6699844a2719","","null","
                <div class=""stimulus-container"">
                    <img src=""images/schematic_sequence/flight_scheme/flight_scheme_7.png"" class=""exp-image"">
                    <div class=""question-area""></div> 
                </div>","null","","","","","","","","","","","","",""
"","","","","","html-button-response","30","727385","0.0-30.0","143A508813DA45C2852DC6A78FD99FC0","019d6651-d54b-7b8e-9648-4dbcda59a77d","019d6630-2071-75cb-8026-6699844a2719","","783","
                <div class=""stimulus-container"">
                    <img src=""images/schematic_sequence/flight_scheme/flight_scheme_7.png"" class=""exp-image"">
                    <div class=""question-area"">
                        <p style=""font-size: 20px; font-weight: bold; margin: 0;"">Is there a person in this image?</p>
                    </div>
                </div>","1","main_experiment_trial","7","flight_scheme","schematic_sequence","chronological","","","","","","","",""
"","","","","","html-keyboard-response","31","732397","0.0-31.0","143A508813DA45C2852DC6A78FD99FC0","019d6651-d54b-7b8e-9648-4dbcda59a77d","019d6630-2071-75cb-8026-6699844a2719","","null","
                <div class=""stimulus-container"">
                    <img src=""images/schematic_sequence/flight_scheme/flight_scheme_8.png"" class=""exp-image"">
                    <div class=""question-area""></div> 
                </div>","null","","","","","","","","","","","","",""
"","","","","","html-button-response","32","733271","0.0-32.0","143A508813DA45C2852DC6A78FD99FC0","019d6651-d54b-7b8e-9648-4dbcda59a77d","019d6630-2071-75cb-8026-6699844a2719","","874","
                <div class=""stimulus-container"">
                    <img src=""images/schematic_sequence/flight_scheme/flight_scheme_8.png"" class=""exp-image"">
                    <div class=""question-area"">
                        <p style=""font-size: 20px; font-weight: bold; margin: 0;"">Is there a person in this image?</p>
                    </div>
                </div>","1","main_experiment_trial","8","flight_scheme","schematic_sequence","chronological","","","","","","","",""
"","","","","","html-keyboard-response","33","738275","0.0-33.0","143A508813DA45C2852DC6A78FD99FC0","019d6651-d54b-7b8e-9648-4dbcda59a77d","019d6630-2071-75cb-8026-6699844a2719","","null","
                <div class=""stimulus-container"">
                    <img src=""images/schematic_sequence/flight_scheme/flight_scheme_9.png"" class=""exp-image"">
                    <div class=""question-area""></div> 
                </div>","null","","","","","","","","","","","","",""
"","","","","","html-button-response","34","739653","0.0-34.0","143A508813DA45C2852DC6A78FD99FC0","019d6651-d54b-7b8e-9648-4dbcda59a77d","019d6630-2071-75cb-8026-6699844a2719","","1377","
                <div class=""stimulus-container"">
                    <img src=""images/schematic_sequence/flight_scheme/flight_scheme_9.png"" class=""exp-image"">
                    <div class=""question-area"">
                        <p style=""font-size: 20px; font-weight: bold; margin: 0;"">Is there a person in this image?</p>
                    </div>
                </div>","0","main_experiment_trial","9","flight_scheme","schematic_sequence","chronological","","","","","","","",""
"","","","","","html-keyboard-response","35","744658","0.0-35.0","143A508813DA45C2852DC6A78FD99FC0","019d6651-d54b-7b8e-9648-4dbcda59a77d","019d6630-2071-75cb-8026-6699844a2719","","null","
                <div class=""stimulus-container"">
                    <img src=""images/schematic_sequence/flight_scheme/flight_scheme_ten.png"" class=""exp-image"">
                    <div class=""question-area""></div> 
                </div>","null","","","","","","","","","","","","",""
"","","","","","html-button-response","36","745517","0.0-36.0","143A508813DA45C2852DC6A78FD99FC0","019d6651-d54b-7b8e-9648-4dbcda59a77d","019d6630-2071-75cb-8026-6699844a2719","","858","
                <div class=""stimulus-container"">
                    <img src=""images/schematic_sequence/flight_scheme/flight_scheme_ten.png"" class=""exp-image"">
                    <div class=""question-area"">
                        <p style=""font-size: 20px; font-weight: bold; margin: 0;"">Is there a person in this image?</p>
                    </div>
                </div>","0","main_experiment_trial","ten","flight_scheme","schematic_sequence","chronological","","","","","","","",""
"","","","","","html-keyboard-response","37","750518","0.0-37.0","143A508813DA45C2852DC6A78FD99FC0","019d6651-d54b-7b8e-9648-4dbcda59a77d","019d6630-2071-75cb-8026-6699844a2719","","null","<div style=""background-color: white; width: 100vw; height: 100vh;""></div>","null","","","","","","","","","","","","",""
"","","","","","html-keyboard-response","38","755530","0.0-38.0","143A508813DA45C2852DC6A78FD99FC0","019d6651-d54b-7b8e-9648-4dbcda59a77d","019d6630-2071-75cb-8026-6699844a2719","","null","
                <div class=""stimulus-container"">
                    <img src=""images/semantic_sequence/physical_activity_semantic/physical_activity_semantic_1.png"" class=""exp-image"">
                    <div class=""question-area""></div> 
                </div>","null","","","","","","","","","","","","",""
"","","","","","html-button-response","39","756295","0.0-39.0","143A508813DA45C2852DC6A78FD99FC0","019d6651-d54b-7b8e-9648-4dbcda59a77d","019d6630-2071-75cb-8026-6699844a2719","","764","
                <div class=""stimulus-container"">
                    <img src=""images/semantic_sequence/physical_activity_semantic/physical_activity_semantic_1.png"" class=""exp-image"">
                    <div class=""question-area"">
                        <p style=""font-size: 20px; font-weight: bold; margin: 0;"">Is there a person in this image?</p>
                    </div>
                </div>","0","main_experiment_trial","1","physical_activity_semantic","semantic_sequence","chronological","","","","","","","",""
"","","","","","html-keyboard-response","40","761308","0.0-40.0","143A508813DA45C2852DC6A78FD99FC0","019d6651-d54b-7b8e-9648-4dbcda59a77d","019d6630-2071-75cb-8026-6699844a2719","","null","
                <div class=""stimulus-container"">
                    <img src=""images/semantic_sequence/physical_activity_semantic/physical_activity_semantic_2.png"" class=""exp-image"">
                    <div class=""question-area""></div> 
                </div>","null","","","","","","","","","","","","",""
"","","","","","html-button-response","41","761968","0.0-41.0","143A508813DA45C2852DC6A78FD99FC0","019d6651-d54b-7b8e-9648-4dbcda59a77d","019d6630-2071-75cb-8026-6699844a2719","","659","
                <div class=""stimulus-container"">
                    <img src=""images/semantic_sequence/physical_activity_semantic/physical_activity_semantic_2.png"" class=""exp-image"">
                    <div class=""question-area"">
                        <p style=""font-size: 20px; font-weight: bold; margin: 0;"">Is there a person in this image?</p>
                    </div>
                </div>","0","main_experiment_trial","2","physical_activity_semantic","semantic_sequence","chronological","","","","","","","",""
"","","","","","html-keyboard-response","42","766975","0.0-42.0","143A508813DA45C2852DC6A78FD99FC0","019d6651-d54b-7b8e-9648-4dbcda59a77d","019d6630-2071-75cb-8026-6699844a2719","","null","
                <div class=""stimulus-container"">
                    <img src=""images/semantic_sequence/physical_activity_semantic/physical_activity_semantic_3.png"" class=""exp-image"">
                    <div class=""question-area""></div> 
                </div>","null","","","","","","","","","","","","",""
"","","","","","html-button-response","43","767552","0.0-43.0","143A508813DA45C2852DC6A78FD99FC0","019d6651-d54b-7b8e-9648-4dbcda59a77d","019d6630-2071-75cb-8026-6699844a2719","","576","
                <div class=""stimulus-container"">
                    <img src=""images/semantic_sequence/physical_activity_semantic/physical_activity_semantic_3.png"" class=""exp-image"">
                    <div class=""question-area"">
                        <p style=""font-size: 20px; font-weight: bold; margin: 0;"">Is there a person in this image?</p>
                    </div>
                </div>","0","main_experiment_trial","3","physical_activity_semantic","semantic_sequence","chronological","","","","","","","",""
"","","","","","html-keyboard-response","44","772567","0.0-44.0","143A508813DA45C2852DC6A78FD99FC0","019d6651-d54b-7b8e-9648-4dbcda59a77d","019d6630-2071-75cb-8026-6699844a2719","","null","
                <div class=""stimulus-container"">
                    <img src=""images/semantic_sequence/physical_activity_semantic/physical_activity_semantic_4.png"" class=""exp-image"">
                    <div class=""question-area""></div> 
                </div>","null","","","","","","","","","","","","",""
"","","","","","html-button-response","45","773028","0.0-45.0","143A508813DA45C2852DC6A78FD99FC0","019d6651-d54b-7b8e-9648-4dbcda59a77d","019d6630-2071-75cb-8026-6699844a2719","","460","
                <div class=""stimulus-container"">
                    <img src=""images/semantic_sequence/physical_activity_semantic/physical_activity_semantic_4.png"" class=""exp-image"">
                    <div class=""question-area"">
                        <p style=""font-size: 20px; font-weight: bold; margin: 0;"">Is there a person in this image?</p>
                    </div>
                </div>","0","main_experiment_trial","4","physical_activity_semantic","semantic_sequence","chronological","","","","","","","",""
"","","","","","html-keyboard-response","46","778036","0.0-46.0","143A508813DA45C2852DC6A78FD99FC0","019d6651-d54b-7b8e-9648-4dbcda59a77d","019d6630-2071-75cb-8026-6699844a2719","","null","
                <div class=""stimulus-container"">
                    <img src=""images/semantic_sequence/physical_activity_semantic/physical_activity_semantic_5.png"" class=""exp-image"">
                    <div class=""question-area""></div> 
                </div>","null","","","","","","","","","","","","",""
"","","","","","html-button-response","47","778612","0.0-47.0","143A508813DA45C2852DC6A78FD99FC0","019d6651-d54b-7b8e-9648-4dbcda59a77d","019d6630-2071-75cb-8026-6699844a2719","","575","
                <div class=""stimulus-container"">
                    <img src=""images/semantic_sequence/physical_activity_semantic/physical_activity_semantic_5.png"" class=""exp-image"">
                    <div class=""question-area"">
                        <p style=""font-size: 20px; font-weight: bold; margin: 0;"">Is there a person in this image?</p>
                    </div>
                </div>","0","main_experiment_trial","5","physical_activity_semantic","semantic_sequence","chronological","","","","","","","",""
"","","","","","html-keyboard-response","48","783615","0.0-48.0","143A508813DA45C2852DC6A78FD99FC0","019d6651-d54b-7b8e-9648-4dbcda59a77d","019d6630-2071-75cb-8026-6699844a2719","","null","
                <div class=""stimulus-container"">
                    <img src=""images/semantic_sequence/physical_activity_semantic/physical_activity_semantic_6.png"" class=""exp-image"">
                    <div class=""question-area""></div> 
                </div>","null","","","","","","","","","","","","",""
"","","","","","html-button-response","49","784285","0.0-49.0","143A508813DA45C2852DC6A78FD99FC0","019d6651-d54b-7b8e-9648-4dbcda59a77d","019d6630-2071-75cb-8026-6699844a2719","","669","
                <div class=""stimulus-container"">
                    <img src=""images/semantic_sequence/physical_activity_semantic/physical_activity_semantic_6.png"" class=""exp-image"">
                    <div class=""question-area"">
                        <p style=""font-size: 20px; font-weight: bold; margin: 0;"">Is there a person in this image?</p>
                    </div>
                </div>","0","main_experiment_trial","6","physical_activity_semantic","semantic_sequence","chronological","","","","","","","",""
"","","","","","html-keyboard-response","50","789301","0.0-50.0","143A508813DA45C2852DC6A78FD99FC0","019d6651-d54b-7b8e-9648-4dbcda59a77d","019d6630-2071-75cb-8026-6699844a2719","","null","
                <div class=""stimulus-container"">
                    <img src=""images/semantic_sequence/physical_activity_semantic/physical_activity_semantic_7.png"" class=""exp-image"">
                    <div class=""question-area""></div> 
                </div>","null","","","","","","","","","","","","",""
"","","","","","html-button-response","51","790051","0.0-51.0","143A508813DA45C2852DC6A78FD99FC0","019d6651-d54b-7b8e-9648-4dbcda59a77d","019d6630-2071-75cb-8026-6699844a2719","","749","
                <div class=""stimulus-container"">
                    <img src=""images/semantic_sequence/physical_activity_semantic/physical_activity_semantic_7.png"" class=""exp-image"">
                    <div class=""question-area"">
                        <p style=""font-size: 20px; font-weight: bold; margin: 0;"">Is there a person in this image?</p>
                    </div>
                </div>","0","main_experiment_trial","7","physical_activity_semantic","semantic_sequence","chronological","","","","","","","",""
"","","","","","html-keyboard-response","52","795059","0.0-52.0","143A508813DA45C2852DC6A78FD99FC0","019d6651-d54b-7b8e-9648-4dbcda59a77d","019d6630-2071-75cb-8026-6699844a2719","","null","
                <div class=""stimulus-container"">
                    <img src=""images/semantic_sequence/physical_activity_semantic/physical_activity_semantic_8.png"" class=""exp-image"">
                    <div class=""question-area""></div> 
                </div>","null","","","","","","","","","","","","",""
"","","","","","html-button-response","53","795794","0.0-53.0","143A508813DA45C2852DC6A78FD99FC0","019d6651-d54b-7b8e-9648-4dbcda59a77d","019d6630-2071-75cb-8026-6699844a2719","","734","
                <div class=""stimulus-container"">
                    <img src=""images/semantic_sequence/physical_activity_semantic/physical_activity_semantic_8.png"" class=""exp-image"">
                    <div class=""question-area"">
                        <p style=""font-size: 20px; font-weight: bold; margin: 0;"">Is there a person in this image?</p>
                    </div>
                </div>","0","main_experiment_trial","8","physical_activity_semantic","semantic_sequence","chronological","","","","","","","",""
"","","","","","html-keyboard-response","54","800809","0.0-54.0","143A508813DA45C2852DC6A78FD99FC0","019d6651-d54b-7b8e-9648-4dbcda59a77d","019d6630-2071-75cb-8026-6699844a2719","","null","
                <div class=""stimulus-container"">
                    <img src=""images/semantic_sequence/physical_activity_semantic/physical_activity_semantic_9.png"" class=""exp-image"">
                    <div class=""question-area""></div> 
                </div>","null","","","","","","","","","","","","",""
"","","","","","html-button-response","55","801372","0.0-55.0","143A508813DA45C2852DC6A78FD99FC0","019d6651-d54b-7b8e-9648-4dbcda59a77d","019d6630-2071-75cb-8026-6699844a2719","","562","
                <div class=""stimulus-container"">
                    <img src=""images/semantic_sequence/physical_activity_semantic/physical_activity_semantic_9.png"" class=""exp-image"">
                    <div class=""question-area"">
                        <p style=""font-size: 20px; font-weight: bold; margin: 0;"">Is there a person in this image?</p>
                    </div>
                </div>","0","main_experiment_trial","9","physical_activity_semantic","semantic_sequence","chronological","","","","","","","",""
"","","","","","html-keyboard-response","56","806377","0.0-56.0","143A508813DA45C2852DC6A78FD99FC0","019d6651-d54b-7b8e-9648-4dbcda59a77d","019d6630-2071-75cb-8026-6699844a2719","","null","
                <div class=""stimulus-container"">
                    <img src=""images/semantic_sequence/physical_activity_semantic/physical_activity_semantic_ten.png"" class=""exp-image"">
                    <div class=""question-area""></div> 
                </div>","null","","","","","","","","","","","","",""
"","","","","","html-button-response","57","807019","0.0-57.0","143A508813DA45C2852DC6A78FD99FC0","019d6651-d54b-7b8e-9648-4dbcda59a77d","019d6630-2071-75cb-8026-6699844a2719","","641","
                <div class=""stimulus-container"">
                    <img src=""images/semantic_sequence/physical_activity_semantic/physical_activity_semantic_ten.png"" class=""exp-image"">
                    <div class=""question-area"">
                        <p style=""font-size: 20px; font-weight: bold; margin: 0;"">Is there a person in this image?</p>
                    </div>
                </div>","0","main_experiment_trial","ten","physical_activity_semantic","semantic_sequence","chronological","","","","","","","",""
"","","","","","html-keyboard-response","58","812025","0.0-58.0","143A508813DA45C2852DC6A78FD99FC0","019d6651-d54b-7b8e-9648-4dbcda59a77d","019d6630-2071-75cb-8026-6699844a2719","","null","<div style=""background-color: white; width: 100vw; height: 100vh;""></div>","null","","","","","","","","","","","","",""
"","","","","","html-keyboard-response","59","817031","0.0-59.0","143A508813DA45C2852DC6A78FD99FC0","019d6651-d54b-7b8e-9648-4dbcda59a77d","019d6630-2071-75cb-8026-6699844a2719","","null","
                <div class=""stimulus-container"">
                    <img src=""images/causal_sequence/coin_causal/coin_causal_1.png"" class=""exp-image"">
                    <div class=""question-area""></div> 
                </div>","null","","","","","","","","","","","","",""
"","","","","","html-button-response","60","817623","0.0-60.0","143A508813DA45C2852DC6A78FD99FC0","019d6651-d54b-7b8e-9648-4dbcda59a77d","019d6630-2071-75cb-8026-6699844a2719","","591","
                <div class=""stimulus-container"">
                    <img src=""images/causal_sequence/coin_causal/coin_causal_1.png"" class=""exp-image"">
                    <div class=""question-area"">
                        <p style=""font-size: 20px; font-weight: bold; margin: 0;"">Is there a person in this image?</p>
                    </div>
                </div>","0","main_experiment_trial","1","coin_causal","causal_sequence","chronological","","","","","","","",""
"","","","","","html-keyboard-response","61","822628","0.0-61.0","143A508813DA45C2852DC6A78FD99FC0","019d6651-d54b-7b8e-9648-4dbcda59a77d","019d6630-2071-75cb-8026-6699844a2719","","null","
                <div class=""stimulus-container"">
                    <img src=""images/causal_sequence/coin_causal/coin_causal_2.png"" class=""exp-image"">
                    <div class=""question-area""></div> 
                </div>","null","","","","","","","","","","","","",""
"","","","","","html-button-response","62","823225","0.0-62.0","143A508813DA45C2852DC6A78FD99FC0","019d6651-d54b-7b8e-9648-4dbcda59a77d","019d6630-2071-75cb-8026-6699844a2719","","597","
                <div class=""stimulus-container"">
                    <img src=""images/causal_sequence/coin_causal/coin_causal_2.png"" class=""exp-image"">
                    <div class=""question-area"">
                        <p style=""font-size: 20px; font-weight: bold; margin: 0;"">Is there a person in this image?</p>
                    </div>
                </div>","0","main_experiment_trial","2","coin_causal","causal_sequence","chronological","","","","","","","",""
"","","","","","html-keyboard-response","63","828239","0.0-63.0","143A508813DA45C2852DC6A78FD99FC0","019d6651-d54b-7b8e-9648-4dbcda59a77d","019d6630-2071-75cb-8026-6699844a2719","","null","
                <div class=""stimulus-container"">
                    <img src=""images/causal_sequence/coin_causal/coin_causal_3.png"" class=""exp-image"">
                    <div class=""question-area""></div> 
                </div>","null","","","","","","","","","","","","",""
"","","","","","html-button-response","64","828879","0.0-64.0","143A508813DA45C2852DC6A78FD99FC0","019d6651-d54b-7b8e-9648-4dbcda59a77d","019d6630-2071-75cb-8026-6699844a2719","","639","
                <div class=""stimulus-container"">
                    <img src=""images/causal_sequence/coin_causal/coin_causal_3.png"" class=""exp-image"">
                    <div class=""question-area"">
                        <p style=""font-size: 20px; font-weight: bold; margin: 0;"">Is there a person in this image?</p>
                    </div>
                </div>","0","main_experiment_trial","3","coin_causal","causal_sequence","chronological","","","","","","","",""
"","","","","","html-keyboard-response","65","833892","0.0-65.0","143A508813DA45C2852DC6A78FD99FC0","019d6651-d54b-7b8e-9648-4dbcda59a77d","019d6630-2071-75cb-8026-6699844a2719","","null","
                <div class=""stimulus-container"">
                    <img src=""images/causal_sequence/coin_causal/coin_causal_4.png"" class=""exp-image"">
                    <div class=""question-area""></div> 
                </div>","null","","","","","","","","","","","","",""
"","","","","","html-button-response","66","834514","0.0-66.0","143A508813DA45C2852DC6A78FD99FC0","019d6651-d54b-7b8e-9648-4dbcda59a77d","019d6630-2071-75cb-8026-6699844a2719","","621","
                <div class=""stimulus-container"">
                    <img src=""images/causal_sequence/coin_causal/coin_causal_4.png"" class=""exp-image"">
                    <div class=""question-area"">
                        <p style=""font-size: 20px; font-weight: bold; margin: 0;"">Is there a person in this image?</p>
                    </div>
                </div>","0","main_experiment_trial","4","coin_causal","causal_sequence","chronological","","","","","","","",""
"","","","","","html-keyboard-response","67","839527","0.0-67.0","143A508813DA45C2852DC6A78FD99FC0","019d6651-d54b-7b8e-9648-4dbcda59a77d","019d6630-2071-75cb-8026-6699844a2719","","null","
                <div class=""stimulus-container"">
                    <img src=""images/causal_sequence/coin_causal/coin_causal_5.png"" class=""exp-image"">
                    <div class=""question-area""></div> 
                </div>","null","","","","","","","","","","","","",""
"","","","","","html-button-response","68","840103","0.0-68.0","143A508813DA45C2852DC6A78FD99FC0","019d6651-d54b-7b8e-9648-4dbcda59a77d","019d6630-2071-75cb-8026-6699844a2719","","575","
                <div class=""stimulus-container"">
                    <img src=""images/causal_sequence/coin_causal/coin_causal_5.png"" class=""exp-image"">
                    <div class=""question-area"">
                        <p style=""font-size: 20px; font-weight: bold; margin: 0;"">Is there a person in this image?</p>
                    </div>
                </div>","0","main_experiment_trial","5","coin_causal","causal_sequence","chronological","","","","","","","",""
"","","","","","html-keyboard-response","69","845115","0.0-69.0","143A508813DA45C2852DC6A78FD99FC0","019d6651-d54b-7b8e-9648-4dbcda59a77d","019d6630-2071-75cb-8026-6699844a2719","","null","
                <div class=""stimulus-container"">
                    <img src=""images/causal_sequence/coin_causal/coin_causal_6.png"" class=""exp-image"">
                    <div class=""question-area""></div> 
                </div>","null","","","","","","","","","","","","",""
"","","","","","html-button-response","70","845651","0.0-70.0","143A508813DA45C2852DC6A78FD99FC0","019d6651-d54b-7b8e-9648-4dbcda59a77d","019d6630-2071-75cb-8026-6699844a2719","","535","
                <div class=""stimulus-container"">
                    <img src=""images/causal_sequence/coin_causal/coin_causal_6.png"" class=""exp-image"">
                    <div class=""question-area"">
                        <p style=""font-size: 20px; font-weight: bold; margin: 0;"">Is there a person in this image?</p>
                    </div>
                </div>","0","main_experiment_trial","6","coin_causal","causal_sequence","chronological","","","","","","","",""
"","","","","","html-keyboard-response","71","850652","0.0-71.0","143A508813DA45C2852DC6A78FD99FC0","019d6651-d54b-7b8e-9648-4dbcda59a77d","019d6630-2071-75cb-8026-6699844a2719","","null","
                <div class=""stimulus-container"">
                    <img src=""images/causal_sequence/coin_causal/coin_causal_7.png"" class=""exp-image"">
                    <div class=""question-area""></div> 
                </div>","null","","","","","","","","","","","","",""
"","","","","","html-button-response","72","851823","0.0-72.0","143A508813DA45C2852DC6A78FD99FC0","019d6651-d54b-7b8e-9648-4dbcda59a77d","019d6630-2071-75cb-8026-6699844a2719","","1170","
                <div class=""stimulus-container"">
                    <img src=""images/causal_sequence/coin_causal/coin_causal_7.png"" class=""exp-image"">
                    <div class=""question-area"">
                        <p style=""font-size: 20px; font-weight: bold; margin: 0;"">Is there a person in this image?</p>
                    </div>
                </div>","1","main_experiment_trial","7","coin_causal","causal_sequence","chronological","","","","","","","",""
"","","","","","html-keyboard-response","73","856835","0.0-73.0","143A508813DA45C2852DC6A78FD99FC0","019d6651-d54b-7b8e-9648-4dbcda59a77d","019d6630-2071-75cb-8026-6699844a2719","","null","
                <div class=""stimulus-container"">
                    <img src=""images/causal_sequence/coin_causal/coin_causal_8.png"" class=""exp-image"">
                    <div class=""question-area""></div> 
                </div>","null","","","","","","","","","","","","",""
"","","","","","html-button-response","74","857381","0.0-74.0","143A508813DA45C2852DC6A78FD99FC0","019d6651-d54b-7b8e-9648-4dbcda59a77d","019d6630-2071-75cb-8026-6699844a2719","","545","
                <div class=""stimulus-container"">
                    <img src=""images/causal_sequence/coin_causal/coin_causal_8.png"" class=""exp-image"">
                    <div class=""question-area"">
                        <p style=""font-size: 20px; font-weight: bold; margin: 0;"">Is there a person in this image?</p>
                    </div>
                </div>","0","main_experiment_trial","8","coin_causal","causal_sequence","chronological","","","","","","","",""
"","","","","","html-keyboard-response","75","862386","0.0-75.0","143A508813DA45C2852DC6A78FD99FC0","019d6651-d54b-7b8e-9648-4dbcda59a77d","019d6630-2071-75cb-8026-6699844a2719","","null","
                <div class=""stimulus-container"">
                    <img src=""images/causal_sequence/coin_causal/coin_causal_9.png"" class=""exp-image"">
                    <div class=""question-area""></div> 
                </div>","null","","","","","","","","","","","","",""
"","","","","","html-button-response","76","863048","0.0-76.0","143A508813DA45C2852DC6A78FD99FC0","019d6651-d54b-7b8e-9648-4dbcda59a77d","019d6630-2071-75cb-8026-6699844a2719","","661","
                <div class=""stimulus-container"">
                    <img src=""images/causal_sequence/coin_causal/coin_causal_9.png"" class=""exp-image"">
                    <div class=""question-area"">
                        <p style=""font-size: 20px; font-weight: bold; margin: 0;"">Is there a person in this image?</p>
                    </div>
                </div>","0","main_experiment_trial","9","coin_causal","causal_sequence","chronological","","","","","","","",""
"","","","","","html-keyboard-response","77","868057","0.0-77.0","143A508813DA45C2852DC6A78FD99FC0","019d6651-d54b-7b8e-9648-4dbcda59a77d","019d6630-2071-75cb-8026-6699844a2719","","null","
                <div class=""stimulus-container"">
                    <img src=""images/causal_sequence/coin_causal/coin_causal_ten.png"" class=""exp-image"">
                    <div class=""question-area""></div> 
                </div>","null","","","","","","","","","","","","",""
"","","","","","html-button-response","78","868621","0.0-78.0","143A508813DA45C2852DC6A78FD99FC0","019d6651-d54b-7b8e-9648-4dbcda59a77d","019d6630-2071-75cb-8026-6699844a2719","","563","
                <div class=""stimulus-container"">
                    <img src=""images/causal_sequence/coin_causal/coin_causal_ten.png"" class=""exp-image"">
                    <div class=""question-area"">
                        <p style=""font-size: 20px; font-weight: bold; margin: 0;"">Is there a person in this image?</p>
                    </div>
                </div>","0","main_experiment_trial","ten","coin_causal","causal_sequence","chronological","","","","","","","",""
"","","","","","html-keyboard-response","79","873626","0.0-79.0","143A508813DA45C2852DC6A78FD99FC0","019d6651-d54b-7b8e-9648-4dbcda59a77d","019d6630-2071-75cb-8026-6699844a2719","","null","<div style=""background-color: white; width: 100vw; height: 100vh;""></div>","null","","","","","","","","","","","","",""
"","","","","","html-keyboard-response","80","878630","0.0-80.0","143A508813DA45C2852DC6A78FD99FC0","019d6651-d54b-7b8e-9648-4dbcda59a77d","019d6630-2071-75cb-8026-6699844a2719","","null","
                <div class=""stimulus-container"">
                    <img src=""images/semantic_sequence/kitchen_operations_semantic/kitchen_operations_semantic_1.png"" class=""exp-image"">
                    <div class=""question-area""></div> 
                </div>","null","","","","","","","","","","","","",""
"","","","","","html-button-response","81","879629","0.0-81.0","143A508813DA45C2852DC6A78FD99FC0","019d6651-d54b-7b8e-9648-4dbcda59a77d","019d6630-2071-75cb-8026-6699844a2719","","998","
                <div class=""stimulus-container"">
                    <img src=""images/semantic_sequence/kitchen_operations_semantic/kitchen_operations_semantic_1.png"" class=""exp-image"">
                    <div class=""question-area"">
                        <p style=""font-size: 20px; font-weight: bold; margin: 0;"">Is there a person in this image?</p>
                    </div>
                </div>","0","main_experiment_trial","1","kitchen_operations_semantic","semantic_sequence","chronological","","","","","","","",""
"","","","","","html-keyboard-response","82","884635","0.0-82.0","143A508813DA45C2852DC6A78FD99FC0","019d6651-d54b-7b8e-9648-4dbcda59a77d","019d6630-2071-75cb-8026-6699844a2719","","null","
                <div class=""stimulus-container"">
                    <img src=""images/semantic_sequence/kitchen_operations_semantic/kitchen_operations_semantic_2.png"" class=""exp-image"">
                    <div class=""question-area""></div> 
                </div>","null","","","","","","","","","","","","",""
"","","","","","html-button-response","83","885479","0.0-83.0","143A508813DA45C2852DC6A78FD99FC0","019d6651-d54b-7b8e-9648-4dbcda59a77d","019d6630-2071-75cb-8026-6699844a2719","","843","
                <div class=""stimulus-container"">
                    <img src=""images/semantic_sequence/kitchen_operations_semantic/kitchen_operations_semantic_2.png"" class=""exp-image"">
                    <div class=""question-area"">
                        <p style=""font-size: 20px; font-weight: bold; margin: 0;"">Is there a person in this image?</p>
                    </div>
                </div>","0","main_experiment_trial","2","kitchen_operations_semantic","semantic_sequence","chronological","","","","","","","",""
"","","","","","html-keyboard-response","84","890490","0.0-84.0","143A508813DA45C2852DC6A78FD99FC0","019d6651-d54b-7b8e-9648-4dbcda59a77d","019d6630-2071-75cb-8026-6699844a2719","","null","
                <div class=""stimulus-container"">
                    <img src=""images/semantic_sequence/kitchen_operations_semantic/kitchen_operations_semantic_3.png"" class=""exp-image"">
                    <div class=""question-area""></div> 
                </div>","null","","","","","","","","","","","","",""
"","","","","","html-button-response","85","891130","0.0-85.0","143A508813DA45C2852DC6A78FD99FC0","019d6651-d54b-7b8e-9648-4dbcda59a77d","019d6630-2071-75cb-8026-6699844a2719","","640","
                <div class=""stimulus-container"">
                    <img src=""images/semantic_sequence/kitchen_operations_semantic/kitchen_operations_semantic_3.png"" class=""exp-image"">
                    <div class=""question-area"">
                        <p style=""font-size: 20px; font-weight: bold; margin: 0;"">Is there a person in this image?</p>
                    </div>
                </div>","0","main_experiment_trial","3","kitchen_operations_semantic","semantic_sequence","chronological","","","","","","","",""
"","","","","","html-keyboard-response","86","896146","0.0-86.0","143A508813DA45C2852DC6A78FD99FC0","019d6651-d54b-7b8e-9648-4dbcda59a77d","019d6630-2071-75cb-8026-6699844a2719","","null","
                <div class=""stimulus-container"">
                    <img src=""images/semantic_sequence/kitchen_operations_semantic/kitchen_operations_semantic_4.png"" class=""exp-image"">
                    <div class=""question-area""></div> 
                </div>","null","","","","","","","","","","","","",""
"","","","","","html-button-response","87","896710","0.0-87.0","143A508813DA45C2852DC6A78FD99FC0","019d6651-d54b-7b8e-9648-4dbcda59a77d","019d6630-2071-75cb-8026-6699844a2719","","563","
                <div class=""stimulus-container"">
                    <img src=""images/semantic_sequence/kitchen_operations_semantic/kitchen_operations_semantic_4.png"" class=""exp-image"">
                    <div class=""question-area"">
                        <p style=""font-size: 20px; font-weight: bold; margin: 0;"">Is there a person in this image?</p>
                    </div>
                </div>","0","main_experiment_trial","4","kitchen_operations_semantic","semantic_sequence","chronological","","","","","","","",""
"","","","","","html-keyboard-response","88","901715","0.0-88.0","143A508813DA45C2852DC6A78FD99FC0","019d6651-d54b-7b8e-9648-4dbcda59a77d","019d6630-2071-75cb-8026-6699844a2719","","null","
                <div class=""stimulus-container"">
                    <img src=""images/semantic_sequence/kitchen_operations_semantic/kitchen_operations_semantic_5.png"" class=""exp-image"">
                    <div class=""question-area""></div> 
                </div>","null","","","","","","","","","","","","",""
"","","","","","html-button-response","89","902275","0.0-89.0","143A508813DA45C2852DC6A78FD99FC0","019d6651-d54b-7b8e-9648-4dbcda59a77d","019d6630-2071-75cb-8026-6699844a2719","","560","
                <div class=""stimulus-container"">
                    <img src=""images/semantic_sequence/kitchen_operations_semantic/kitchen_operations_semantic_5.png"" class=""exp-image"">
                    <div class=""question-area"">
                        <p style=""font-size: 20px; font-weight: bold; margin: 0;"">Is there a person in this image?</p>
                    </div>
                </div>","0","main_experiment_trial","5","kitchen_operations_semantic","semantic_sequence","chronological","","","","","","","",""
"","","","","","html-keyboard-response","90","907279","0.0-90.0","143A508813DA45C2852DC6A78FD99FC0","019d6651-d54b-7b8e-9648-4dbcda59a77d","019d6630-2071-75cb-8026-6699844a2719","","null","
                <div class=""stimulus-container"">
                    <img src=""images/semantic_sequence/kitchen_operations_semantic/kitchen_operations_semantic_6.png"" class=""exp-image"">
                    <div class=""question-area""></div> 
                </div>","null","","","","","","","","","","","","",""
"","","","","","html-button-response","91","907822","0.0-91.0","143A508813DA45C2852DC6A78FD99FC0","019d6651-d54b-7b8e-9648-4dbcda59a77d","019d6630-2071-75cb-8026-6699844a2719","","542","
                <div class=""stimulus-container"">
                    <img src=""images/semantic_sequence/kitchen_operations_semantic/kitchen_operations_semantic_6.png"" class=""exp-image"">
                    <div class=""question-area"">
                        <p style=""font-size: 20px; font-weight: bold; margin: 0;"">Is there a person in this image?</p>
                    </div>
                </div>","0","main_experiment_trial","6","kitchen_operations_semantic","semantic_sequence","chronological","","","","","","","",""
"","","","","","html-keyboard-response","92","912831","0.0-92.0","143A508813DA45C2852DC6A78FD99FC0","019d6651-d54b-7b8e-9648-4dbcda59a77d","019d6630-2071-75cb-8026-6699844a2719","","null","
                <div class=""stimulus-container"">
                    <img src=""images/semantic_sequence/kitchen_operations_semantic/kitchen_operations_semantic_7.png"" class=""exp-image"">
                    <div class=""question-area""></div> 
                </div>","null","","","","","","","","","","","","",""
"","","","","","html-button-response","93","913408","0.0-93.0","143A508813DA45C2852DC6A78FD99FC0","019d6651-d54b-7b8e-9648-4dbcda59a77d","019d6630-2071-75cb-8026-6699844a2719","","577","
                <div class=""stimulus-container"">
                    <img src=""images/semantic_sequence/kitchen_operations_semantic/kitchen_operations_semantic_7.png"" class=""exp-image"">
                    <div class=""question-area"">
                        <p style=""font-size: 20px; font-weight: bold; margin: 0;"">Is there a person in this image?</p>
                    </div>
                </div>","0","main_experiment_trial","7","kitchen_operations_semantic","semantic_sequence","chronological","","","","","","","",""
"","","","","","html-keyboard-response","94","918425","0.0-94.0","143A508813DA45C2852DC6A78FD99FC0","019d6651-d54b-7b8e-9648-4dbcda59a77d","019d6630-2071-75cb-8026-6699844a2719","","null","
                <div class=""stimulus-container"">
                    <img src=""images/semantic_sequence/kitchen_operations_semantic/kitchen_operations_semantic_8.png"" class=""exp-image"">
                    <div class=""question-area""></div> 
                </div>","null","","","","","","","","","","","","",""
"","","","","","html-button-response","95","918986","0.0-95.0","143A508813DA45C2852DC6A78FD99FC0","019d6651-d54b-7b8e-9648-4dbcda59a77d","019d6630-2071-75cb-8026-6699844a2719","","560","
                <div class=""stimulus-container"">
                    <img src=""images/semantic_sequence/kitchen_operations_semantic/kitchen_operations_semantic_8.png"" class=""exp-image"">
                    <div class=""question-area"">
                        <p style=""font-size: 20px; font-weight: bold; margin: 0;"">Is there a person in this image?</p>
                    </div>
                </div>","0","main_experiment_trial","8","kitchen_operations_semantic","semantic_sequence","chronological","","","","","","","",""
"","","","","","html-keyboard-response","96","923992","0.0-96.0","143A508813DA45C2852DC6A78FD99FC0","019d6651-d54b-7b8e-9648-4dbcda59a77d","019d6630-2071-75cb-8026-6699844a2719","","null","
                <div class=""stimulus-container"">
                    <img src=""images/semantic_sequence/kitchen_operations_semantic/kitchen_operations_semantic_9.png"" class=""exp-image"">
                    <div class=""question-area""></div> 
                </div>","null","","","","","","","","","","","","",""
"","","","","","html-button-response","97","924525","0.0-97.0","143A508813DA45C2852DC6A78FD99FC0","019d6651-d54b-7b8e-9648-4dbcda59a77d","019d6630-2071-75cb-8026-6699844a2719","","532","
                <div class=""stimulus-container"">
                    <img src=""images/semantic_sequence/kitchen_operations_semantic/kitchen_operations_semantic_9.png"" class=""exp-image"">
                    <div class=""question-area"">
                        <p style=""font-size: 20px; font-weight: bold; margin: 0;"">Is there a person in this image?</p>
                    </div>
                </div>","0","main_experiment_trial","9","kitchen_operations_semantic","semantic_sequence","chronological","","","","","","","",""
"","","","","","html-keyboard-response","98","929541","0.0-98.0","143A508813DA45C2852DC6A78FD99FC0","019d6651-d54b-7b8e-9648-4dbcda59a77d","019d6630-2071-75cb-8026-6699844a2719","","null","
                <div class=""stimulus-container"">
                    <img src=""images/semantic_sequence/kitchen_operations_semantic/kitchen_operations_semantic_ten.png"" class=""exp-image"">
                    <div class=""question-area""></div> 
                </div>","null","","","","","","","","","","","","",""
"","","","","","html-button-response","99","930120","0.0-99.0","143A508813DA45C2852DC6A78FD99FC0","019d6651-d54b-7b8e-9648-4dbcda59a77d","019d6630-2071-75cb-8026-6699844a2719","","579","
                <div class=""stimulus-container"">
                    <img src=""images/semantic_sequence/kitchen_operations_semantic/kitchen_operations_semantic_ten.png"" class=""exp-image"">
                    <div class=""question-area"">
                        <p style=""font-size: 20px; font-weight: bold; margin: 0;"">Is there a person in this image?</p>
                    </div>
                </div>","0","main_experiment_trial","ten","kitchen_operations_semantic","semantic_sequence","chronological","","","","","","","",""
"","","","","","html-keyboard-response","100","935129","0.0-100.0","143A508813DA45C2852DC6A78FD99FC0","019d6651-d54b-7b8e-9648-4dbcda59a77d","019d6630-2071-75cb-8026-6699844a2719","","null","<div style=""background-color: white; width: 100vw; height: 100vh;""></div>","null","","","","","","","","","","","","",""
"","","","","","html-keyboard-response","101","940131","0.0-101.0","143A508813DA45C2852DC6A78FD99FC0","019d6651-d54b-7b8e-9648-4dbcda59a77d","019d6630-2071-75cb-8026-6699844a2719","","null","
                <div class=""stimulus-container"">
                    <img src=""images/causal_sequence/dog_causal/dog_causal_1.png"" class=""exp-image"">
                    <div class=""question-area""></div> 
                </div>","null","","","","","","","","","","","","",""
"","","","","","html-button-response","102","941053","0.0-102.0","143A508813DA45C2852DC6A78FD99FC0","019d6651-d54b-7b8e-9648-4dbcda59a77d","019d6630-2071-75cb-8026-6699844a2719","","922","
                <div class=""stimulus-container"">
                    <img src=""images/causal_sequence/dog_causal/dog_causal_1.png"" class=""exp-image"">
                    <div class=""question-area"">
                        <p style=""font-size: 20px; font-weight: bold; margin: 0;"">Is there a person in this image?</p>
                    </div>
                </div>","0","main_experiment_trial","1","dog_causal","causal_sequence","chronological","","","","","","","",""
"","","","","","html-keyboard-response","103","946057","0.0-103.0","143A508813DA45C2852DC6A78FD99FC0","019d6651-d54b-7b8e-9648-4dbcda59a77d","019d6630-2071-75cb-8026-6699844a2719","","null","
                <div class=""stimulus-container"">
                    <img src=""images/causal_sequence/dog_causal/dog_causal_2.png"" class=""exp-image"">
                    <div class=""question-area""></div> 
                </div>","null","","","","","","","","","","","","",""
"","","","","","html-button-response","104","946855","0.0-104.0","143A508813DA45C2852DC6A78FD99FC0","019d6651-d54b-7b8e-9648-4dbcda59a77d","019d6630-2071-75cb-8026-6699844a2719","","797","
                <div class=""stimulus-container"">
                    <img src=""images/causal_sequence/dog_causal/dog_causal_2.png"" class=""exp-image"">
                    <div class=""question-area"">
                        <p style=""font-size: 20px; font-weight: bold; margin: 0;"">Is there a person in this image?</p>
                    </div>
                </div>","0","main_experiment_trial","2","dog_causal","causal_sequence","chronological","","","","","","","",""
"","","","","","html-keyboard-response","105","951870","0.0-105.0","143A508813DA45C2852DC6A78FD99FC0","019d6651-d54b-7b8e-9648-4dbcda59a77d","019d6630-2071-75cb-8026-6699844a2719","","null","
                <div class=""stimulus-container"">
                    <img src=""images/causal_sequence/dog_causal/dog_causal_3.png"" class=""exp-image"">
                    <div class=""question-area""></div> 
                </div>","null","","","","","","","","","","","","",""
"","","","","","html-button-response","106","952435","0.0-106.0","143A508813DA45C2852DC6A78FD99FC0","019d6651-d54b-7b8e-9648-4dbcda59a77d","019d6630-2071-75cb-8026-6699844a2719","","563","
                <div class=""stimulus-container"">
                    <img src=""images/causal_sequence/dog_causal/dog_causal_3.png"" class=""exp-image"">
                    <div class=""question-area"">
                        <p style=""font-size: 20px; font-weight: bold; margin: 0;"">Is there a person in this image?</p>
                    </div>
                </div>","0","main_experiment_trial","3","dog_causal","causal_sequence","chronological","","","","","","","",""
"","","","","","html-keyboard-response","107","957436","0.0-107.0","143A508813DA45C2852DC6A78FD99FC0","019d6651-d54b-7b8e-9648-4dbcda59a77d","019d6630-2071-75cb-8026-6699844a2719","","null","
                <div class=""stimulus-container"">
                    <img src=""images/causal_sequence/dog_causal/dog_causal_4.png"" class=""exp-image"">
                    <div class=""question-area""></div> 
                </div>","null","","","","","","","","","","","","",""
"","","","","","html-button-response","108","958203","0.0-108.0","143A508813DA45C2852DC6A78FD99FC0","019d6651-d54b-7b8e-9648-4dbcda59a77d","019d6630-2071-75cb-8026-6699844a2719","","766","
                <div class=""stimulus-container"">
                    <img src=""images/causal_sequence/dog_causal/dog_causal_4.png"" class=""exp-image"">
                    <div class=""question-area"">
                        <p style=""font-size: 20px; font-weight: bold; margin: 0;"">Is there a person in this image?</p>
                    </div>
                </div>","0","main_experiment_trial","4","dog_causal","causal_sequence","chronological","","","","","","","",""
"","","","","","html-keyboard-response","109","963205","0.0-109.0","143A508813DA45C2852DC6A78FD99FC0","019d6651-d54b-7b8e-9648-4dbcda59a77d","019d6630-2071-75cb-8026-6699844a2719","","null","
                <div class=""stimulus-container"">
                    <img src=""images/causal_sequence/dog_causal/dog_causal_5.png"" class=""exp-image"">
                    <div class=""question-area""></div> 
                </div>","null","","","","","","","","","","","","",""
"","","","","","html-button-response","110","963780","0.0-110.0","143A508813DA45C2852DC6A78FD99FC0","019d6651-d54b-7b8e-9648-4dbcda59a77d","019d6630-2071-75cb-8026-6699844a2719","","574","
                <div class=""stimulus-container"">
                    <img src=""images/causal_sequence/dog_causal/dog_causal_5.png"" class=""exp-image"">
                    <div class=""question-area"">
                        <p style=""font-size: 20px; font-weight: bold; margin: 0;"">Is there a person in this image?</p>
                    </div>
                </div>","0","main_experiment_trial","5","dog_causal","causal_sequence","chronological","","","","","","","",""
"","","","","","html-keyboard-response","111","968787","0.0-111.0","143A508813DA45C2852DC6A78FD99FC0","019d6651-d54b-7b8e-9648-4dbcda59a77d","019d6630-2071-75cb-8026-6699844a2719","","null","
                <div class=""stimulus-container"">
                    <img src=""images/causal_sequence/dog_causal/dog_causal_6.png"" class=""exp-image"">
                    <div class=""question-area""></div> 
                </div>","null","","","","","","","","","","","","",""
"","","","","","html-button-response","112","969382","0.0-112.0","143A508813DA45C2852DC6A78FD99FC0","019d6651-d54b-7b8e-9648-4dbcda59a77d","019d6630-2071-75cb-8026-6699844a2719","","595","
                <div class=""stimulus-container"">
                    <img src=""images/causal_sequence/dog_causal/dog_causal_6.png"" class=""exp-image"">
                    <div class=""question-area"">
                        <p style=""font-size: 20px; font-weight: bold; margin: 0;"">Is there a person in this image?</p>
                    </div>
                </div>","0","main_experiment_trial","6","dog_causal","causal_sequence","chronological","","","","","","","",""
"","","","","","html-keyboard-response","113","974384","0.0-113.0","143A508813DA45C2852DC6A78FD99FC0","019d6651-d54b-7b8e-9648-4dbcda59a77d","019d6630-2071-75cb-8026-6699844a2719","","null","
                <div class=""stimulus-container"">
                    <img src=""images/causal_sequence/dog_causal/dog_causal_7.png"" class=""exp-image"">
                    <div class=""question-area""></div> 
                </div>","null","","","","","","","","","","","","",""
"","","","","","html-button-response","114","976220","0.0-114.0","143A508813DA45C2852DC6A78FD99FC0","019d6651-d54b-7b8e-9648-4dbcda59a77d","019d6630-2071-75cb-8026-6699844a2719","","1835","
                <div class=""stimulus-container"">
                    <img src=""images/causal_sequence/dog_causal/dog_causal_7.png"" class=""exp-image"">
                    <div class=""question-area"">
                        <p style=""font-size: 20px; font-weight: bold; margin: 0;"">Is there a person in this image?</p>
                    </div>
                </div>","0","main_experiment_trial","7","dog_causal","causal_sequence","chronological","","","","","","","",""
"","","","","","html-keyboard-response","115","981233","0.0-115.0","143A508813DA45C2852DC6A78FD99FC0","019d6651-d54b-7b8e-9648-4dbcda59a77d","019d6630-2071-75cb-8026-6699844a2719","","null","
                <div class=""stimulus-container"">
                    <img src=""images/causal_sequence/dog_causal/dog_causal_8.png"" class=""exp-image"">
                    <div class=""question-area""></div> 
                </div>","null","","","","","","","","","","","","",""
"","","","","","html-button-response","116","981870","0.0-116.0","143A508813DA45C2852DC6A78FD99FC0","019d6651-d54b-7b8e-9648-4dbcda59a77d","019d6630-2071-75cb-8026-6699844a2719","","636","
                <div class=""stimulus-container"">
                    <img src=""images/causal_sequence/dog_causal/dog_causal_8.png"" class=""exp-image"">
                    <div class=""question-area"">
                        <p style=""font-size: 20px; font-weight: bold; margin: 0;"">Is there a person in this image?</p>
                    </div>
                </div>","0","main_experiment_trial","8","dog_causal","causal_sequence","chronological","","","","","","","",""
"","","","","","html-keyboard-response","117","986883","0.0-117.0","143A508813DA45C2852DC6A78FD99FC0","019d6651-d54b-7b8e-9648-4dbcda59a77d","019d6630-2071-75cb-8026-6699844a2719","","null","
                <div class=""stimulus-container"">
                    <img src=""images/causal_sequence/dog_causal/dog_causal_9.png"" class=""exp-image"">
                    <div class=""question-area""></div> 
                </div>","null","","","","","","","","","","","","",""
"","","","","","html-button-response","118","987565","0.0-118.0","143A508813DA45C2852DC6A78FD99FC0","019d6651-d54b-7b8e-9648-4dbcda59a77d","019d6630-2071-75cb-8026-6699844a2719","","681","
                <div class=""stimulus-container"">
                    <img src=""images/causal_sequence/dog_causal/dog_causal_9.png"" class=""exp-image"">
                    <div class=""question-area"">
                        <p style=""font-size: 20px; font-weight: bold; margin: 0;"">Is there a person in this image?</p>
                    </div>
                </div>","0","main_experiment_trial","9","dog_causal","causal_sequence","chronological","","","","","","","",""
"","","","","","html-keyboard-response","119","992568","0.0-119.0","143A508813DA45C2852DC6A78FD99FC0","019d6651-d54b-7b8e-9648-4dbcda59a77d","019d6630-2071-75cb-8026-6699844a2719","","null","
                <div class=""stimulus-container"">
                    <img src=""images/causal_sequence/dog_causal/dog_causal_ten.png"" class=""exp-image"">
                    <div class=""question-area""></div> 
                </div>","null","","","","","","","","","","","","",""
"","","","","","html-button-response","120","993288","0.0-120.0","143A508813DA45C2852DC6A78FD99FC0","019d6651-d54b-7b8e-9648-4dbcda59a77d","019d6630-2071-75cb-8026-6699844a2719","","719","
                <div class=""stimulus-container"">
                    <img src=""images/causal_sequence/dog_causal/dog_causal_ten.png"" class=""exp-image"">
                    <div class=""question-area"">
                        <p style=""font-size: 20px; font-weight: bold; margin: 0;"">Is there a person in this image?</p>
                    </div>
                </div>","0","main_experiment_trial","ten","dog_causal","causal_sequence","chronological","","","","","","","",""
"","","","","","html-keyboard-response","121","998299","0.0-121.0","143A508813DA45C2852DC6A78FD99FC0","019d6651-d54b-7b8e-9648-4dbcda59a77d","019d6630-2071-75cb-8026-6699844a2719","","null","<div style=""background-color: white; width: 100vw; height: 100vh;""></div>","null","","","","","","","","","","","","",""
"","","","","","html-keyboard-response","122","1003302","0.0-122.0","143A508813DA45C2852DC6A78FD99FC0","019d6651-d54b-7b8e-9648-4dbcda59a77d","019d6630-2071-75cb-8026-6699844a2719","","null","
                <div class=""stimulus-container"">
                    <img src=""images/schematic_sequence/restaurant_scheme/restaurant_scheme_1.png"" class=""exp-image"">
                    <div class=""question-area""></div> 
                </div>","null","","","","","","","","","","","","",""
"","","","","","html-button-response","123","1004423","0.0-123.0","143A508813DA45C2852DC6A78FD99FC0","019d6651-d54b-7b8e-9648-4dbcda59a77d","019d6630-2071-75cb-8026-6699844a2719","","1121","
                <div class=""stimulus-container"">
                    <img src=""images/schematic_sequence/restaurant_scheme/restaurant_scheme_1.png"" class=""exp-image"">
                    <div class=""question-area"">
                        <p style=""font-size: 20px; font-weight: bold; margin: 0;"">Is there a person in this image?</p>
                    </div>
                </div>","0","main_experiment_trial","1","restaurant_scheme","schematic_sequence","chronological","","","","","","","",""
"","","","","","html-keyboard-response","124","1009426","0.0-124.0","143A508813DA45C2852DC6A78FD99FC0","019d6651-d54b-7b8e-9648-4dbcda59a77d","019d6630-2071-75cb-8026-6699844a2719","","null","
                <div class=""stimulus-container"">
                    <img src=""images/schematic_sequence/restaurant_scheme/restaurant_scheme_2.png"" class=""exp-image"">
                    <div class=""question-area""></div> 
                </div>","null","","","","","","","","","","","","",""
"","","","","","html-button-response","125","1010175","0.0-125.0","143A508813DA45C2852DC6A78FD99FC0","019d6651-d54b-7b8e-9648-4dbcda59a77d","019d6630-2071-75cb-8026-6699844a2719","","748","
                <div class=""stimulus-container"">
                    <img src=""images/schematic_sequence/restaurant_scheme/restaurant_scheme_2.png"" class=""exp-image"">
                    <div class=""question-area"">
                        <p style=""font-size: 20px; font-weight: bold; margin: 0;"">Is there a person in this image?</p>
                    </div>
                </div>","1","main_experiment_trial","2","restaurant_scheme","schematic_sequence","chronological","","","","","","","",""
"","","","","","html-keyboard-response","126","1015179","0.0-126.0","143A508813DA45C2852DC6A78FD99FC0","019d6651-d54b-7b8e-9648-4dbcda59a77d","019d6630-2071-75cb-8026-6699844a2719","","null","
                <div class=""stimulus-container"">
                    <img src=""images/schematic_sequence/restaurant_scheme/restaurant_scheme_3.png"" class=""exp-image"">
                    <div class=""question-area""></div> 
                </div>","null","","","","","","","","","","","","",""
"","","","","","html-button-response","127","1015865","0.0-127.0","143A508813DA45C2852DC6A78FD99FC0","019d6651-d54b-7b8e-9648-4dbcda59a77d","019d6630-2071-75cb-8026-6699844a2719","","685","
                <div class=""stimulus-container"">
                    <img src=""images/schematic_sequence/restaurant_scheme/restaurant_scheme_3.png"" class=""exp-image"">
                    <div class=""question-area"">
                        <p style=""font-size: 20px; font-weight: bold; margin: 0;"">Is there a person in this image?</p>
                    </div>
                </div>","1","main_experiment_trial","3","restaurant_scheme","schematic_sequence","chronological","","","","","","","",""
"","","","","","html-keyboard-response","128","1020865","0.0-128.0","143A508813DA45C2852DC6A78FD99FC0","019d6651-d54b-7b8e-9648-4dbcda59a77d","019d6630-2071-75cb-8026-6699844a2719","","null","
                <div class=""stimulus-container"">
                    <img src=""images/schematic_sequence/restaurant_scheme/restaurant_scheme_4.png"" class=""exp-image"">
                    <div class=""question-area""></div> 
                </div>","null","","","","","","","","","","","","",""
"","","","","","html-button-response","129","1021743","0.0-129.0","143A508813DA45C2852DC6A78FD99FC0","019d6651-d54b-7b8e-9648-4dbcda59a77d","019d6630-2071-75cb-8026-6699844a2719","","877","
                <div class=""stimulus-container"">
                    <img src=""images/schematic_sequence/restaurant_scheme/restaurant_scheme_4.png"" class=""exp-image"">
                    <div class=""question-area"">
                        <p style=""font-size: 20px; font-weight: bold; margin: 0;"">Is there a person in this image?</p>
                    </div>
                </div>","0","main_experiment_trial","4","restaurant_scheme","schematic_sequence","chronological","","","","","","","",""
"","","","","","html-keyboard-response","130","1026747","0.0-130.0","143A508813DA45C2852DC6A78FD99FC0","019d6651-d54b-7b8e-9648-4dbcda59a77d","019d6630-2071-75cb-8026-6699844a2719","","null","
                <div class=""stimulus-container"">
                    <img src=""images/schematic_sequence/restaurant_scheme/restaurant_scheme_5.png"" class=""exp-image"">
                    <div class=""question-area""></div> 
                </div>","null","","","","","","","","","","","","",""
"","","","","","html-button-response","131","1027341","0.0-131.0","143A508813DA45C2852DC6A78FD99FC0","019d6651-d54b-7b8e-9648-4dbcda59a77d","019d6630-2071-75cb-8026-6699844a2719","","593","
                <div class=""stimulus-container"">
                    <img src=""images/schematic_sequence/restaurant_scheme/restaurant_scheme_5.png"" class=""exp-image"">
                    <div class=""question-area"">
                        <p style=""font-size: 20px; font-weight: bold; margin: 0;"">Is there a person in this image?</p>
                    </div>
                </div>","0","main_experiment_trial","5","restaurant_scheme","schematic_sequence","chronological","","","","","","","",""
"","","","","","html-keyboard-response","132","1032351","0.0-132.0","143A508813DA45C2852DC6A78FD99FC0","019d6651-d54b-7b8e-9648-4dbcda59a77d","019d6630-2071-75cb-8026-6699844a2719","","null","
                <div class=""stimulus-container"">
                    <img src=""images/schematic_sequence/restaurant_scheme/restaurant_scheme_6.png"" class=""exp-image"">
                    <div class=""question-area""></div> 
                </div>","null","","","","","","","","","","","","",""
"","","","","","html-button-response","133","1033023","0.0-133.0","143A508813DA45C2852DC6A78FD99FC0","019d6651-d54b-7b8e-9648-4dbcda59a77d","019d6630-2071-75cb-8026-6699844a2719","","671","
                <div class=""stimulus-container"">
                    <img src=""images/schematic_sequence/restaurant_scheme/restaurant_scheme_6.png"" class=""exp-image"">
                    <div class=""question-area"">
                        <p style=""font-size: 20px; font-weight: bold; margin: 0;"">Is there a person in this image?</p>
                    </div>
                </div>","1","main_experiment_trial","6","restaurant_scheme","schematic_sequence","chronological","","","","","","","",""
"","","","","","html-keyboard-response","134","1038026","0.0-134.0","143A508813DA45C2852DC6A78FD99FC0","019d6651-d54b-7b8e-9648-4dbcda59a77d","019d6630-2071-75cb-8026-6699844a2719","","null","
                <div class=""stimulus-container"">
                    <img src=""images/schematic_sequence/restaurant_scheme/restaurant_scheme_7.png"" class=""exp-image"">
                    <div class=""question-area""></div> 
                </div>","null","","","","","","","","","","","","",""
"","","","","","html-button-response","135","1039086","0.0-135.0","143A508813DA45C2852DC6A78FD99FC0","019d6651-d54b-7b8e-9648-4dbcda59a77d","019d6630-2071-75cb-8026-6699844a2719","","1059","
                <div class=""stimulus-container"">
                    <img src=""images/schematic_sequence/restaurant_scheme/restaurant_scheme_7.png"" class=""exp-image"">
                    <div class=""question-area"">
                        <p style=""font-size: 20px; font-weight: bold; margin: 0;"">Is there a person in this image?</p>
                    </div>
                </div>","1","main_experiment_trial","7","restaurant_scheme","schematic_sequence","chronological","","","","","","","",""
"","","","","","html-keyboard-response","136","1044088","0.0-136.0","143A508813DA45C2852DC6A78FD99FC0","019d6651-d54b-7b8e-9648-4dbcda59a77d","019d6630-2071-75cb-8026-6699844a2719","","null","
                <div class=""stimulus-container"">
                    <img src=""images/schematic_sequence/restaurant_scheme/restaurant_scheme_8.png"" class=""exp-image"">
                    <div class=""question-area""></div> 
                </div>","null","","","","","","","","","","","","",""
"","","","","","html-button-response","137","1044727","0.0-137.0","143A508813DA45C2852DC6A78FD99FC0","019d6651-d54b-7b8e-9648-4dbcda59a77d","019d6630-2071-75cb-8026-6699844a2719","","639","
                <div class=""stimulus-container"">
                    <img src=""images/schematic_sequence/restaurant_scheme/restaurant_scheme_8.png"" class=""exp-image"">
                    <div class=""question-area"">
                        <p style=""font-size: 20px; font-weight: bold; margin: 0;"">Is there a person in this image?</p>
                    </div>
                </div>","0","main_experiment_trial","8","restaurant_scheme","schematic_sequence","chronological","","","","","","","",""
"","","","","","html-keyboard-response","138","1049739","0.0-138.0","143A508813DA45C2852DC6A78FD99FC0","019d6651-d54b-7b8e-9648-4dbcda59a77d","019d6630-2071-75cb-8026-6699844a2719","","null","
                <div class=""stimulus-container"">
                    <img src=""images/schematic_sequence/restaurant_scheme/restaurant_scheme_9.png"" class=""exp-image"">
                    <div class=""question-area""></div> 
                </div>","null","","","","","","","","","","","","",""
"","","","","","html-button-response","139","1050908","0.0-139.0","143A508813DA45C2852DC6A78FD99FC0","019d6651-d54b-7b8e-9648-4dbcda59a77d","019d6630-2071-75cb-8026-6699844a2719","","1168","
                <div class=""stimulus-container"">
                    <img src=""images/schematic_sequence/restaurant_scheme/restaurant_scheme_9.png"" class=""exp-image"">
                    <div class=""question-area"">
                        <p style=""font-size: 20px; font-weight: bold; margin: 0;"">Is there a person in this image?</p>
                    </div>
                </div>","0","main_experiment_trial","9","restaurant_scheme","schematic_sequence","chronological","","","","","","","",""
"","","","","","html-keyboard-response","140","1055911","0.0-140.0","143A508813DA45C2852DC6A78FD99FC0","019d6651-d54b-7b8e-9648-4dbcda59a77d","019d6630-2071-75cb-8026-6699844a2719","","null","
                <div class=""stimulus-container"">
                    <img src=""images/schematic_sequence/restaurant_scheme/restaurant_scheme_ten.png"" class=""exp-image"">
                    <div class=""question-area""></div> 
                </div>","null","","","","","","","","","","","","",""
"","","","","","html-button-response","141","1056519","0.0-141.0","143A508813DA45C2852DC6A78FD99FC0","019d6651-d54b-7b8e-9648-4dbcda59a77d","019d6630-2071-75cb-8026-6699844a2719","","607","
                <div class=""stimulus-container"">
                    <img src=""images/schematic_sequence/restaurant_scheme/restaurant_scheme_ten.png"" class=""exp-image"">
                    <div class=""question-area"">
                        <p style=""font-size: 20px; font-weight: bold; margin: 0;"">Is there a person in this image?</p>
                    </div>
                </div>","0","main_experiment_trial","ten","restaurant_scheme","schematic_sequence","chronological","","","","","","","",""
"","","","","","html-keyboard-response","142","1061521","0.0-142.0","143A508813DA45C2852DC6A78FD99FC0","019d6651-d54b-7b8e-9648-4dbcda59a77d","019d6630-2071-75cb-8026-6699844a2719","","null","<div style=""background-color: white; width: 100vw; height: 100vh;""></div>","null","","","","","","","","","","","","",""
"","","","","","html-keyboard-response","143","1066527","0.0-143.0","143A508813DA45C2852DC6A78FD99FC0","019d6651-d54b-7b8e-9648-4dbcda59a77d","019d6630-2071-75cb-8026-6699844a2719","","null","
                <div class=""stimulus-container"">
                    <img src=""images/semantic_sequence/housework_semantic/housework_semantic_1.png"" class=""exp-image"">
                    <div class=""question-area""></div> 
                </div>","null","","","","","","","","","","","","",""
"","","","","","html-button-response","144","1067105","0.0-144.0","143A508813DA45C2852DC6A78FD99FC0","019d6651-d54b-7b8e-9648-4dbcda59a77d","019d6630-2071-75cb-8026-6699844a2719","","577","
                <div class=""stimulus-container"">
                    <img src=""images/semantic_sequence/housework_semantic/housework_semantic_1.png"" class=""exp-image"">
                    <div class=""question-area"">
                        <p style=""font-size: 20px; font-weight: bold; margin: 0;"">Is there a person in this image?</p>
                    </div>
                </div>","0","main_experiment_trial","1","housework_semantic","semantic_sequence","chronological","","","","","","","",""
"","","","","","html-keyboard-response","145","1072111","0.0-145.0","143A508813DA45C2852DC6A78FD99FC0","019d6651-d54b-7b8e-9648-4dbcda59a77d","019d6630-2071-75cb-8026-6699844a2719","","null","
                <div class=""stimulus-container"">
                    <img src=""images/semantic_sequence/housework_semantic/housework_semantic_2.png"" class=""exp-image"">
                    <div class=""question-area""></div> 
                </div>","null","","","","","","","","","","","","",""
"","","","","","html-button-response","146","1072863","0.0-146.0","143A508813DA45C2852DC6A78FD99FC0","019d6651-d54b-7b8e-9648-4dbcda59a77d","019d6630-2071-75cb-8026-6699844a2719","","751","
                <div class=""stimulus-container"">
                    <img src=""images/semantic_sequence/housework_semantic/housework_semantic_2.png"" class=""exp-image"">
                    <div class=""question-area"">
                        <p style=""font-size: 20px; font-weight: bold; margin: 0;"">Is there a person in this image?</p>
                    </div>
                </div>","0","main_experiment_trial","2","housework_semantic","semantic_sequence","chronological","","","","","","","",""
"","","","","","html-keyboard-response","147","1077874","0.0-147.0","143A508813DA45C2852DC6A78FD99FC0","019d6651-d54b-7b8e-9648-4dbcda59a77d","019d6630-2071-75cb-8026-6699844a2719","","null","
                <div class=""stimulus-container"">
                    <img src=""images/semantic_sequence/housework_semantic/housework_semantic_3.png"" class=""exp-image"">
                    <div class=""question-area""></div> 
                </div>","null","","","","","","","","","","","","",""
"","","","","","html-button-response","148","1078530","0.0-148.0","143A508813DA45C2852DC6A78FD99FC0","019d6651-d54b-7b8e-9648-4dbcda59a77d","019d6630-2071-75cb-8026-6699844a2719","","655","
                <div class=""stimulus-container"">
                    <img src=""images/semantic_sequence/housework_semantic/housework_semantic_3.png"" class=""exp-image"">
                    <div class=""question-area"">
                        <p style=""font-size: 20px; font-weight: bold; margin: 0;"">Is there a person in this image?</p>
                    </div>
                </div>","0","main_experiment_trial","3","housework_semantic","semantic_sequence","chronological","","","","","","","",""
"","","","","","html-keyboard-response","149","1083535","0.0-149.0","143A508813DA45C2852DC6A78FD99FC0","019d6651-d54b-7b8e-9648-4dbcda59a77d","019d6630-2071-75cb-8026-6699844a2719","","null","
                <div class=""stimulus-container"">
                    <img src=""images/semantic_sequence/housework_semantic/housework_semantic_4.png"" class=""exp-image"">
                    <div class=""question-area""></div> 
                </div>","null","","","","","","","","","","","","",""
"","","","","","html-button-response","150","1084071","0.0-150.0","143A508813DA45C2852DC6A78FD99FC0","019d6651-d54b-7b8e-9648-4dbcda59a77d","019d6630-2071-75cb-8026-6699844a2719","","535","
                <div class=""stimulus-container"">
                    <img src=""images/semantic_sequence/housework_semantic/housework_semantic_4.png"" class=""exp-image"">
                    <div class=""question-area"">
                        <p style=""font-size: 20px; font-weight: bold; margin: 0;"">Is there a person in this image?</p>
                    </div>
                </div>","0","main_experiment_trial","4","housework_semantic","semantic_sequence","chronological","","","","","","","",""
"","","","","","html-keyboard-response","151","1089083","0.0-151.0","143A508813DA45C2852DC6A78FD99FC0","019d6651-d54b-7b8e-9648-4dbcda59a77d","019d6630-2071-75cb-8026-6699844a2719","","null","
                <div class=""stimulus-container"">
                    <img src=""images/semantic_sequence/housework_semantic/housework_semantic_5.png"" class=""exp-image"">
                    <div class=""question-area""></div> 
                </div>","null","","","","","","","","","","","","",""
"","","","","","html-button-response","152","1089917","0.0-152.0","143A508813DA45C2852DC6A78FD99FC0","019d6651-d54b-7b8e-9648-4dbcda59a77d","019d6630-2071-75cb-8026-6699844a2719","","833","
                <div class=""stimulus-container"">
                    <img src=""images/semantic_sequence/housework_semantic/housework_semantic_5.png"" class=""exp-image"">
                    <div class=""question-area"">
                        <p style=""font-size: 20px; font-weight: bold; margin: 0;"">Is there a person in this image?</p>
                    </div>
                </div>","0","main_experiment_trial","5","housework_semantic","semantic_sequence","chronological","","","","","","","",""
"","","","","","html-keyboard-response","153","1094931","0.0-153.0","143A508813DA45C2852DC6A78FD99FC0","019d6651-d54b-7b8e-9648-4dbcda59a77d","019d6630-2071-75cb-8026-6699844a2719","","null","
                <div class=""stimulus-container"">
                    <img src=""images/semantic_sequence/housework_semantic/housework_semantic_6.png"" class=""exp-image"">
                    <div class=""question-area""></div> 
                </div>","null","","","","","","","","","","","","",""
"","","","","","html-button-response","154","1095726","0.0-154.0","143A508813DA45C2852DC6A78FD99FC0","019d6651-d54b-7b8e-9648-4dbcda59a77d","019d6630-2071-75cb-8026-6699844a2719","","794","
                <div class=""stimulus-container"">
                    <img src=""images/semantic_sequence/housework_semantic/housework_semantic_6.png"" class=""exp-image"">
                    <div class=""question-area"">
                        <p style=""font-size: 20px; font-weight: bold; margin: 0;"">Is there a person in this image?</p>
                    </div>
                </div>","0","main_experiment_trial","6","housework_semantic","semantic_sequence","chronological","","","","","","","",""
"","","","","","html-keyboard-response","155","1100733","0.0-155.0","143A508813DA45C2852DC6A78FD99FC0","019d6651-d54b-7b8e-9648-4dbcda59a77d","019d6630-2071-75cb-8026-6699844a2719","","null","
                <div class=""stimulus-container"">
                    <img src=""images/semantic_sequence/housework_semantic/housework_semantic_7.png"" class=""exp-image"">
                    <div class=""question-area""></div> 
                </div>","null","","","","","","","","","","","","",""
"","","","","","html-button-response","156","1101671","0.0-156.0","143A508813DA45C2852DC6A78FD99FC0","019d6651-d54b-7b8e-9648-4dbcda59a77d","019d6630-2071-75cb-8026-6699844a2719","","937","
                <div class=""stimulus-container"">
                    <img src=""images/semantic_sequence/housework_semantic/housework_semantic_7.png"" class=""exp-image"">
                    <div class=""question-area"">
                        <p style=""font-size: 20px; font-weight: bold; margin: 0;"">Is there a person in this image?</p>
                    </div>
                </div>","0","main_experiment_trial","7","housework_semantic","semantic_sequence","chronological","","","","","","","",""
"","","","","","html-keyboard-response","157","1106682","0.0-157.0","143A508813DA45C2852DC6A78FD99FC0","019d6651-d54b-7b8e-9648-4dbcda59a77d","019d6630-2071-75cb-8026-6699844a2719","","null","
                <div class=""stimulus-container"">
                    <img src=""images/semantic_sequence/housework_semantic/housework_semantic_8.png"" class=""exp-image"">
                    <div class=""question-area""></div> 
                </div>","null","","","","","","","","","","","","",""
"","","","","","html-button-response","158","1107465","0.0-158.0","143A508813DA45C2852DC6A78FD99FC0","019d6651-d54b-7b8e-9648-4dbcda59a77d","019d6630-2071-75cb-8026-6699844a2719","","783","
                <div class=""stimulus-container"">
                    <img src=""images/semantic_sequence/housework_semantic/housework_semantic_8.png"" class=""exp-image"">
                    <div class=""question-area"">
                        <p style=""font-size: 20px; font-weight: bold; margin: 0;"">Is there a person in this image?</p>
                    </div>
                </div>","0","main_experiment_trial","8","housework_semantic","semantic_sequence","chronological","","","","","","","",""
"","","","","","html-keyboard-response","159","1112471","0.0-159.0","143A508813DA45C2852DC6A78FD99FC0","019d6651-d54b-7b8e-9648-4dbcda59a77d","019d6630-2071-75cb-8026-6699844a2719","","null","
                <div class=""stimulus-container"">
                    <img src=""images/semantic_sequence/housework_semantic/housework_semantic_9.png"" class=""exp-image"">
                    <div class=""question-area""></div> 
                </div>","null","","","","","","","","","","","","",""
"","","","","","html-button-response","160","1113091","0.0-160.0","143A508813DA45C2852DC6A78FD99FC0","019d6651-d54b-7b8e-9648-4dbcda59a77d","019d6630-2071-75cb-8026-6699844a2719","","620","
                <div class=""stimulus-container"">
                    <img src=""images/semantic_sequence/housework_semantic/housework_semantic_9.png"" class=""exp-image"">
                    <div class=""question-area"">
                        <p style=""font-size: 20px; font-weight: bold; margin: 0;"">Is there a person in this image?</p>
                    </div>
                </div>","0","main_experiment_trial","9","housework_semantic","semantic_sequence","chronological","","","","","","","",""
"","","","","","html-keyboard-response","161","1118097","0.0-161.0","143A508813DA45C2852DC6A78FD99FC0","019d6651-d54b-7b8e-9648-4dbcda59a77d","019d6630-2071-75cb-8026-6699844a2719","","null","
                <div class=""stimulus-container"">
                    <img src=""images/semantic_sequence/housework_semantic/housework_semantic_ten.png"" class=""exp-image"">
                    <div class=""question-area""></div> 
                </div>","null","","","","","","","","","","","","",""
"","","","","","html-button-response","162","1118955","0.0-162.0","143A508813DA45C2852DC6A78FD99FC0","019d6651-d54b-7b8e-9648-4dbcda59a77d","019d6630-2071-75cb-8026-6699844a2719","","857","
                <div class=""stimulus-container"">
                    <img src=""images/semantic_sequence/housework_semantic/housework_semantic_ten.png"" class=""exp-image"">
                    <div class=""question-area"">
                        <p style=""font-size: 20px; font-weight: bold; margin: 0;"">Is there a person in this image?</p>
                    </div>
                </div>","0","main_experiment_trial","ten","housework_semantic","semantic_sequence","chronological","","","","","","","",""
"","","","","","html-keyboard-response","163","1123959","0.0-163.0","143A508813DA45C2852DC6A78FD99FC0","019d6651-d54b-7b8e-9648-4dbcda59a77d","019d6630-2071-75cb-8026-6699844a2719","","null","<div style=""background-color: white; width: 100vw; height: 100vh;""></div>","null","","","","","","","","","","","","",""
"","","","","","html-keyboard-response","164","1128966","0.0-164.0","143A508813DA45C2852DC6A78FD99FC0","019d6651-d54b-7b8e-9648-4dbcda59a77d","019d6630-2071-75cb-8026-6699844a2719","","null","
                <div class=""stimulus-container"">
                    <img src=""images/schematic_sequence/hotel_scheme/hotel_scheme_1.png"" class=""exp-image"">
                    <div class=""question-area""></div> 
                </div>","null","","","","","","","","","","","","",""
"","","","","","html-button-response","165","1130582","0.0-165.0","143A508813DA45C2852DC6A78FD99FC0","019d6651-d54b-7b8e-9648-4dbcda59a77d","019d6630-2071-75cb-8026-6699844a2719","","1616","
                <div class=""stimulus-container"">
                    <img src=""images/schematic_sequence/hotel_scheme/hotel_scheme_1.png"" class=""exp-image"">
                    <div class=""question-area"">
                        <p style=""font-size: 20px; font-weight: bold; margin: 0;"">Is there a person in this image?</p>
                    </div>
                </div>","1","main_experiment_trial","1","hotel_scheme","schematic_sequence","chronological","","","","","","","",""
"","","","","","html-keyboard-response","166","1135595","0.0-166.0","143A508813DA45C2852DC6A78FD99FC0","019d6651-d54b-7b8e-9648-4dbcda59a77d","019d6630-2071-75cb-8026-6699844a2719","","null","
                <div class=""stimulus-container"">
                    <img src=""images/schematic_sequence/hotel_scheme/hotel_scheme_2.png"" class=""exp-image"">
                    <div class=""question-area""></div> 
                </div>","null","","","","","","","","","","","","",""
"","","","","","html-button-response","167","1137187","0.0-167.0","143A508813DA45C2852DC6A78FD99FC0","019d6651-d54b-7b8e-9648-4dbcda59a77d","019d6630-2071-75cb-8026-6699844a2719","","1591","
                <div class=""stimulus-container"">
                    <img src=""images/schematic_sequence/hotel_scheme/hotel_scheme_2.png"" class=""exp-image"">
                    <div class=""question-area"">
                        <p style=""font-size: 20px; font-weight: bold; margin: 0;"">Is there a person in this image?</p>
                    </div>
                </div>","0","main_experiment_trial","2","hotel_scheme","schematic_sequence","chronological","","","","","","","",""
"","","","","","html-keyboard-response","168","1142196","0.0-168.0","143A508813DA45C2852DC6A78FD99FC0","019d6651-d54b-7b8e-9648-4dbcda59a77d","019d6630-2071-75cb-8026-6699844a2719","","null","
                <div class=""stimulus-container"">
                    <img src=""images/schematic_sequence/hotel_scheme/hotel_scheme_3.png"" class=""exp-image"">
                    <div class=""question-area""></div> 
                </div>","null","","","","","","","","","","","","",""
"","","","","","html-button-response","169","1142852","0.0-169.0","143A508813DA45C2852DC6A78FD99FC0","019d6651-d54b-7b8e-9648-4dbcda59a77d","019d6630-2071-75cb-8026-6699844a2719","","656","
                <div class=""stimulus-container"">
                    <img src=""images/schematic_sequence/hotel_scheme/hotel_scheme_3.png"" class=""exp-image"">
                    <div class=""question-area"">
                        <p style=""font-size: 20px; font-weight: bold; margin: 0;"">Is there a person in this image?</p>
                    </div>
                </div>","0","main_experiment_trial","3","hotel_scheme","schematic_sequence","chronological","","","","","","","",""
"","","","","","html-keyboard-response","170","1147855","0.0-170.0","143A508813DA45C2852DC6A78FD99FC0","019d6651-d54b-7b8e-9648-4dbcda59a77d","019d6630-2071-75cb-8026-6699844a2719","","null","
                <div class=""stimulus-container"">
                    <img src=""images/schematic_sequence/hotel_scheme/hotel_scheme_4.png"" class=""exp-image"">
                    <div class=""question-area""></div> 
                </div>","null","","","","","","","","","","","","",""
"","","","","","html-button-response","171","1148917","0.0-171.0","143A508813DA45C2852DC6A78FD99FC0","019d6651-d54b-7b8e-9648-4dbcda59a77d","019d6630-2071-75cb-8026-6699844a2719","","1062","
                <div class=""stimulus-container"">
                    <img src=""images/schematic_sequence/hotel_scheme/hotel_scheme_4.png"" class=""exp-image"">
                    <div class=""question-area"">
                        <p style=""font-size: 20px; font-weight: bold; margin: 0;"">Is there a person in this image?</p>
                    </div>
                </div>","1","main_experiment_trial","4","hotel_scheme","schematic_sequence","chronological","","","","","","","",""
"","","","","","html-keyboard-response","172","1153933","0.0-172.0","143A508813DA45C2852DC6A78FD99FC0","019d6651-d54b-7b8e-9648-4dbcda59a77d","019d6630-2071-75cb-8026-6699844a2719","","null","
                <div class=""stimulus-container"">
                    <img src=""images/schematic_sequence/hotel_scheme/hotel_scheme_5.png"" class=""exp-image"">
                    <div class=""question-area""></div> 
                </div>","null","","","","","","","","","","","","",""
"","","","","","html-button-response","173","1154829","0.0-173.0","143A508813DA45C2852DC6A78FD99FC0","019d6651-d54b-7b8e-9648-4dbcda59a77d","019d6630-2071-75cb-8026-6699844a2719","","895","
                <div class=""stimulus-container"">
                    <img src=""images/schematic_sequence/hotel_scheme/hotel_scheme_5.png"" class=""exp-image"">
                    <div class=""question-area"">
                        <p style=""font-size: 20px; font-weight: bold; margin: 0;"">Is there a person in this image?</p>
                    </div>
                </div>","0","main_experiment_trial","5","hotel_scheme","schematic_sequence","chronological","","","","","","","",""
"","","","","","html-keyboard-response","174","1159830","0.0-174.0","143A508813DA45C2852DC6A78FD99FC0","019d6651-d54b-7b8e-9648-4dbcda59a77d","019d6630-2071-75cb-8026-6699844a2719","","null","
                <div class=""stimulus-container"">
                    <img src=""images/schematic_sequence/hotel_scheme/hotel_scheme_6.png"" class=""exp-image"">
                    <div class=""question-area""></div> 
                </div>","null","","","","","","","","","","","","",""
"","","","","","html-button-response","175","1160426","0.0-175.0","143A508813DA45C2852DC6A78FD99FC0","019d6651-d54b-7b8e-9648-4dbcda59a77d","019d6630-2071-75cb-8026-6699844a2719","","596","
                <div class=""stimulus-container"">
                    <img src=""images/schematic_sequence/hotel_scheme/hotel_scheme_6.png"" class=""exp-image"">
                    <div class=""question-area"">
                        <p style=""font-size: 20px; font-weight: bold; margin: 0;"">Is there a person in this image?</p>
                    </div>
                </div>","0","main_experiment_trial","6","hotel_scheme","schematic_sequence","chronological","","","","","","","",""
"","","","","","html-keyboard-response","176","1165437","0.0-176.0","143A508813DA45C2852DC6A78FD99FC0","019d6651-d54b-7b8e-9648-4dbcda59a77d","019d6630-2071-75cb-8026-6699844a2719","","null","
                <div class=""stimulus-container"">
                    <img src=""images/schematic_sequence/hotel_scheme/hotel_scheme_7.png"" class=""exp-image"">
                    <div class=""question-area""></div> 
                </div>","null","","","","","","","","","","","","",""
