"success","timeout","failed_images","failed_audio","failed_video","trial_type","trial_index","time_elapsed","internal_node_id","subject_id","study_id","session_id","view_history","rt","stimulus","response","task","image_index","folder","valuable_image_index","valuable_X","chosen_image_index","distance_from_X"
"false","false","[]","[]","[]","preload","0","19513","0.0-0.0","42166007888848DC85F1A0DFDF5645C8","019ce66c-09d2-7a1b-bbe2-c4e237e0b3e1","019ce643-47c6-74a0-b3d2-7bf5651ded46","","","","","","","","","","",""
"","","","","","instructions","1","33422","0.0-1.0","42166007888848DC85F1A0DFDF5645C8","019ce66c-09d2-7a1b-bbe2-c4e237e0b3e1","019ce643-47c6-74a0-b3d2-7bf5651ded46","[{""page_index"":0,""viewing_time"":13908}]","13908","","","","","","","","",""
"","","","","","instructions","2","43804","0.0-2.0","42166007888848DC85F1A0DFDF5645C8","019ce66c-09d2-7a1b-bbe2-c4e237e0b3e1","019ce643-47c6-74a0-b3d2-7bf5651ded46","[{""page_index"":0,""viewing_time"":10382}]","10382","","","","","","","","",""
"true","","","","","fullscreen","3","72043","0.0-3.0","42166007888848DC85F1A0DFDF5645C8","019ce66c-09d2-7a1b-bbe2-c4e237e0b3e1","019ce643-47c6-74a0-b3d2-7bf5651ded46","","27228","","","","","","","","",""
"","","","","","instructions","4","88344","0.0-4.0","42166007888848DC85F1A0DFDF5645C8","019ce66c-09d2-7a1b-bbe2-c4e237e0b3e1","019ce643-47c6-74a0-b3d2-7bf5651ded46","[{""page_index"":0,""viewing_time"":16299}]","16300","","","","","","","","",""
"","","","","","instructions","5","95647","0.0-5.0","42166007888848DC85F1A0DFDF5645C8","019ce66c-09d2-7a1b-bbe2-c4e237e0b3e1","019ce643-47c6-74a0-b3d2-7bf5651ded46","[{""page_index"":0,""viewing_time"":7302}]","7302","","","","","","","","",""
"","","","","","html-keyboard-response","6","99664","0.0-6.0","42166007888848DC85F1A0DFDF5645C8","019ce66c-09d2-7a1b-bbe2-c4e237e0b3e1","019ce643-47c6-74a0-b3d2-7bf5651ded46","","null","
                <div class=""stimulus-container"">
                    <img src=""images/instructions/movie_1.png"" class=""exp-image"">
                    <div class=""question-area""></div> 
                </div>","null","","","","","","",""
"","","","","","html-button-response","7","102677","0.0-7.0","42166007888848DC85F1A0DFDF5645C8","019ce66c-09d2-7a1b-bbe2-c4e237e0b3e1","019ce643-47c6-74a0-b3d2-7bf5651ded46","","null","
                <div class=""stimulus-container"">
                    <img src=""images/instructions/movie_1.png"" class=""exp-image"">
                    <div class=""question-area"">
                        <p style=""font-size: 20px; font-weight: bold; margin: 0;"">Was there a person in this image?</p>
                    </div>
                </div>","null","example_question","1","","","","",""
"","","","","","html-keyboard-response","8","106695","0.0-8.0","42166007888848DC85F1A0DFDF5645C8","019ce66c-09d2-7a1b-bbe2-c4e237e0b3e1","019ce643-47c6-74a0-b3d2-7bf5651ded46","","null","
                <div class=""stimulus-container"">
                    <img src=""images/instructions/movie_2.png"" class=""exp-image"">
                    <div class=""question-area""></div> 
                </div>","null","","","","","","",""
"","","","","","html-button-response","9","107517","0.0-9.0","42166007888848DC85F1A0DFDF5645C8","019ce66c-09d2-7a1b-bbe2-c4e237e0b3e1","019ce643-47c6-74a0-b3d2-7bf5651ded46","","820","
                <div class=""stimulus-container"">
                    <img src=""images/instructions/movie_2.png"" class=""exp-image"">
                    <div class=""question-area"">
                        <p style=""font-size: 20px; font-weight: bold; margin: 0;"">Was there a person in this image?</p>
                    </div>
                </div>","0","example_question","2","","","","",""
"","","","","","html-keyboard-response","10","111524","0.0-10.0","42166007888848DC85F1A0DFDF5645C8","019ce66c-09d2-7a1b-bbe2-c4e237e0b3e1","019ce643-47c6-74a0-b3d2-7bf5651ded46","","null","
                <div class=""stimulus-container"">
                    <img src=""images/instructions/movie_3.png"" class=""exp-image"">
                    <div class=""question-area""></div> 
                </div>","null","","","","","","",""
"","","","","","html-button-response","11","112200","0.0-11.0","42166007888848DC85F1A0DFDF5645C8","019ce66c-09d2-7a1b-bbe2-c4e237e0b3e1","019ce643-47c6-74a0-b3d2-7bf5651ded46","","674","
                <div class=""stimulus-container"">
                    <img src=""images/instructions/movie_3.png"" class=""exp-image"">
                    <div class=""question-area"">
                        <p style=""font-size: 20px; font-weight: bold; margin: 0;"">Was there a person in this image?</p>
                    </div>
                </div>","0","example_question","3","","","","",""
"","","","","","html-keyboard-response","12","116205","0.0-12.0","42166007888848DC85F1A0DFDF5645C8","019ce66c-09d2-7a1b-bbe2-c4e237e0b3e1","019ce643-47c6-74a0-b3d2-7bf5651ded46","","null","
                <div class=""stimulus-container"">
                    <img src=""images/instructions/movie_4.png"" class=""exp-image"">
                    <div class=""question-area""></div> 
                </div>","null","","","","","","",""
"","","","","","html-button-response","13","116769","0.0-13.0","42166007888848DC85F1A0DFDF5645C8","019ce66c-09d2-7a1b-bbe2-c4e237e0b3e1","019ce643-47c6-74a0-b3d2-7bf5651ded46","","562","
                <div class=""stimulus-container"">
                    <img src=""images/instructions/movie_4.png"" class=""exp-image"">
                    <div class=""question-area"">
                        <p style=""font-size: 20px; font-weight: bold; margin: 0;"">Was there a person in this image?</p>
                    </div>
                </div>","0","example_question","4","","","","",""
"","","","","","instructions","14","118845","0.0-14.0","42166007888848DC85F1A0DFDF5645C8","019ce66c-09d2-7a1b-bbe2-c4e237e0b3e1","019ce643-47c6-74a0-b3d2-7bf5651ded46","[{""page_index"":0,""viewing_time"":2074}]","2075","","","","","","","","",""
"","","","","","html-keyboard-response","15","119851","0.0-15.0","42166007888848DC85F1A0DFDF5645C8","019ce66c-09d2-7a1b-bbe2-c4e237e0b3e1","019ce643-47c6-74a0-b3d2-7bf5651ded46","","null","<div style=""background-color: gray; width: 100vw; height: 100vh;""></div>","null","","","","","","",""
"","","","","","html-keyboard-response","16","124867","0.0-16.0","42166007888848DC85F1A0DFDF5645C8","019ce66c-09d2-7a1b-bbe2-c4e237e0b3e1","019ce643-47c6-74a0-b3d2-7bf5651ded46","","null","
                    <div class=""stimulus-container"">
                        <img src=""images/causal_sequence/museum_causal/museum_causal_1.png"" class=""exp-image"">
                        <div class=""question-area""></div> 
                    </div>","null","","","","","","",""
"","","","","","html-button-response","17","125938","0.0-17.0","42166007888848DC85F1A0DFDF5645C8","019ce66c-09d2-7a1b-bbe2-c4e237e0b3e1","019ce643-47c6-74a0-b3d2-7bf5651ded46","","1069","
                    <div class=""stimulus-container"">
                        <img src=""images/causal_sequence/museum_causal/museum_causal_1.png"" class=""exp-image"">
                        <div class=""question-area"">
                            <p style=""font-size: 20px; font-weight: bold; margin: 0;"">Is there a person in this image?</p>
                        </div>
                    </div>","0","main_causal_task","1","museum_causal","","","",""
"","","","","","html-keyboard-response","18","130948","0.0-18.0","42166007888848DC85F1A0DFDF5645C8","019ce66c-09d2-7a1b-bbe2-c4e237e0b3e1","019ce643-47c6-74a0-b3d2-7bf5651ded46","","null","
                    <div class=""stimulus-container"">
                        <img src=""images/causal_sequence/museum_causal/museum_causal_2.png"" class=""exp-image"">
                        <div class=""question-area""></div> 
                    </div>","null","","","","","","",""
"","","","","","html-button-response","19","131855","0.0-19.0","42166007888848DC85F1A0DFDF5645C8","019ce66c-09d2-7a1b-bbe2-c4e237e0b3e1","019ce643-47c6-74a0-b3d2-7bf5651ded46","","905","
                    <div class=""stimulus-container"">
                        <img src=""images/causal_sequence/museum_causal/museum_causal_2.png"" class=""exp-image"">
                        <div class=""question-area"">
                            <p style=""font-size: 20px; font-weight: bold; margin: 0;"">Is there a person in this image?</p>
                        </div>
                    </div>","0","main_causal_task","2","museum_causal","","","",""
"","","","","","html-keyboard-response","20","136870","0.0-20.0","42166007888848DC85F1A0DFDF5645C8","019ce66c-09d2-7a1b-bbe2-c4e237e0b3e1","019ce643-47c6-74a0-b3d2-7bf5651ded46","","null","
                    <div class=""stimulus-container"">
                        <img src=""images/causal_sequence/museum_causal/museum_causal_3.png"" class=""exp-image"">
                        <div class=""question-area""></div> 
                    </div>","null","","","","","","",""
"","","","","","html-button-response","21","138621","0.0-21.0","42166007888848DC85F1A0DFDF5645C8","019ce66c-09d2-7a1b-bbe2-c4e237e0b3e1","019ce643-47c6-74a0-b3d2-7bf5651ded46","","1750","
                    <div class=""stimulus-container"">
                        <img src=""images/causal_sequence/museum_causal/museum_causal_3.png"" class=""exp-image"">
                        <div class=""question-area"">
                            <p style=""font-size: 20px; font-weight: bold; margin: 0;"">Is there a person in this image?</p>
                        </div>
                    </div>","1","main_causal_task","3","museum_causal","","","",""
"","","","","","html-keyboard-response","22","143633","0.0-22.0","42166007888848DC85F1A0DFDF5645C8","019ce66c-09d2-7a1b-bbe2-c4e237e0b3e1","019ce643-47c6-74a0-b3d2-7bf5651ded46","","null","
                    <div class=""stimulus-container"">
                        <img src=""images/causal_sequence/museum_causal/museum_causal_4.png"" class=""exp-image"">
                        <div class=""question-area""></div> 
                    </div>","null","","","","","","",""
"","","","","","html-button-response","23","144497","0.0-23.0","42166007888848DC85F1A0DFDF5645C8","019ce66c-09d2-7a1b-bbe2-c4e237e0b3e1","019ce643-47c6-74a0-b3d2-7bf5651ded46","","862","
                    <div class=""stimulus-container"">
                        <img src=""images/causal_sequence/museum_causal/museum_causal_4.png"" class=""exp-image"">
                        <div class=""question-area"">
                            <p style=""font-size: 20px; font-weight: bold; margin: 0;"">Is there a person in this image?</p>
                        </div>
                    </div>","1","main_causal_task","4","museum_causal","","","",""
"","","","","","html-keyboard-response","24","149502","0.0-24.0","42166007888848DC85F1A0DFDF5645C8","019ce66c-09d2-7a1b-bbe2-c4e237e0b3e1","019ce643-47c6-74a0-b3d2-7bf5651ded46","","null","
                    <div class=""stimulus-container"">
                        <img src=""images/causal_sequence/museum_causal/museum_causal_5.png"" class=""exp-image"">
                        <div class=""question-area""></div> 
                    </div>","null","","","","","","",""
"","","","","","html-button-response","25","150975","0.0-25.0","42166007888848DC85F1A0DFDF5645C8","019ce66c-09d2-7a1b-bbe2-c4e237e0b3e1","019ce643-47c6-74a0-b3d2-7bf5651ded46","","1472","
                    <div class=""stimulus-container"">
                        <img src=""images/causal_sequence/museum_causal/museum_causal_5.png"" class=""exp-image"">
                        <div class=""question-area"">
                            <p style=""font-size: 20px; font-weight: bold; margin: 0;"">Is there a person in this image?</p>
                        </div>
                    </div>","1","main_causal_task","5","museum_causal","","","",""
"","","","","","html-keyboard-response","26","155979","0.0-26.0","42166007888848DC85F1A0DFDF5645C8","019ce66c-09d2-7a1b-bbe2-c4e237e0b3e1","019ce643-47c6-74a0-b3d2-7bf5651ded46","","null","
                    <div class=""stimulus-container"">
                        <img src=""images/causal_sequence/museum_causal/museum_causal_6.png"" class=""exp-image"">
                        <div class=""question-area""></div> 
                    </div>","null","","","","","","",""
"","","","","","html-button-response","27","156600","0.0-27.0","42166007888848DC85F1A0DFDF5645C8","019ce66c-09d2-7a1b-bbe2-c4e237e0b3e1","019ce643-47c6-74a0-b3d2-7bf5651ded46","","619","
                    <div class=""stimulus-container"">
                        <img src=""images/causal_sequence/museum_causal/museum_causal_6.png"" class=""exp-image"">
                        <div class=""question-area"">
                            <p style=""font-size: 20px; font-weight: bold; margin: 0;"">Is there a person in this image?</p>
                        </div>
                    </div>","0","main_causal_task","6","museum_causal","","","",""
"","","","","","html-keyboard-response","28","161612","0.0-28.0","42166007888848DC85F1A0DFDF5645C8","019ce66c-09d2-7a1b-bbe2-c4e237e0b3e1","019ce643-47c6-74a0-b3d2-7bf5651ded46","","null","
                    <div class=""stimulus-container"">
                        <img src=""images/causal_sequence/museum_causal/museum_causal_7.png"" class=""exp-image"">
                        <div class=""question-area""></div> 
                    </div>","null","","","","","","",""
"","","","","","html-button-response","29","162233","0.0-29.0","42166007888848DC85F1A0DFDF5645C8","019ce66c-09d2-7a1b-bbe2-c4e237e0b3e1","019ce643-47c6-74a0-b3d2-7bf5651ded46","","619","
                    <div class=""stimulus-container"">
                        <img src=""images/causal_sequence/museum_causal/museum_causal_7.png"" class=""exp-image"">
                        <div class=""question-area"">
                            <p style=""font-size: 20px; font-weight: bold; margin: 0;"">Is there a person in this image?</p>
                        </div>
                    </div>","1","main_causal_task","7","museum_causal","","","",""
"","","","","","html-keyboard-response","30","167243","0.0-30.0","42166007888848DC85F1A0DFDF5645C8","019ce66c-09d2-7a1b-bbe2-c4e237e0b3e1","019ce643-47c6-74a0-b3d2-7bf5651ded46","","null","
                    <div class=""stimulus-container"">
                        <img src=""images/causal_sequence/museum_causal/museum_causal_8.png"" class=""exp-image"">
                        <div class=""question-area""></div> 
                    </div>","null","","","","","","",""
"","","","","","html-button-response","31","168226","0.0-31.0","42166007888848DC85F1A0DFDF5645C8","019ce66c-09d2-7a1b-bbe2-c4e237e0b3e1","019ce643-47c6-74a0-b3d2-7bf5651ded46","","981","
                    <div class=""stimulus-container"">
                        <img src=""images/causal_sequence/museum_causal/museum_causal_8.png"" class=""exp-image"">
                        <div class=""question-area"">
                            <p style=""font-size: 20px; font-weight: bold; margin: 0;"">Is there a person in this image?</p>
                        </div>
                    </div>","0","main_causal_task","8","museum_causal","","","",""
"","","","","","html-keyboard-response","32","173228","0.0-32.0","42166007888848DC85F1A0DFDF5645C8","019ce66c-09d2-7a1b-bbe2-c4e237e0b3e1","019ce643-47c6-74a0-b3d2-7bf5651ded46","","null","
                    <div class=""stimulus-container"">
                        <img src=""images/causal_sequence/museum_causal/museum_causal_9.png"" class=""exp-image"">
                        <div class=""question-area""></div> 
                    </div>","null","","","","","","",""
"","","","","","html-button-response","33","173831","0.0-33.0","42166007888848DC85F1A0DFDF5645C8","019ce66c-09d2-7a1b-bbe2-c4e237e0b3e1","019ce643-47c6-74a0-b3d2-7bf5651ded46","","600","
                    <div class=""stimulus-container"">
                        <img src=""images/causal_sequence/museum_causal/museum_causal_9.png"" class=""exp-image"">
                        <div class=""question-area"">
                            <p style=""font-size: 20px; font-weight: bold; margin: 0;"">Is there a person in this image?</p>
                        </div>
                    </div>","1","main_causal_task","9","museum_causal","","","",""
"","","","","","html-keyboard-response","34","174834","0.0-34.0","42166007888848DC85F1A0DFDF5645C8","019ce66c-09d2-7a1b-bbe2-c4e237e0b3e1","019ce643-47c6-74a0-b3d2-7bf5651ded46","","null","<div style=""background-color: gray; width: 100vw; height: 100vh;""></div>","null","","","","","","",""
"","","","","","html-keyboard-response","35","179839","0.0-35.0","42166007888848DC85F1A0DFDF5645C8","019ce66c-09d2-7a1b-bbe2-c4e237e0b3e1","019ce643-47c6-74a0-b3d2-7bf5651ded46","","null","
                    <div class=""stimulus-container"">
                        <img src=""images/causal_sequence/coin_causal/coin_causal_1.png"" class=""exp-image"">
                        <div class=""question-area""></div> 
                    </div>","null","","","","","","",""
"","","","","","html-button-response","36","180685","0.0-36.0","42166007888848DC85F1A0DFDF5645C8","019ce66c-09d2-7a1b-bbe2-c4e237e0b3e1","019ce643-47c6-74a0-b3d2-7bf5651ded46","","844","
                    <div class=""stimulus-container"">
                        <img src=""images/causal_sequence/coin_causal/coin_causal_1.png"" class=""exp-image"">
                        <div class=""question-area"">
                            <p style=""font-size: 20px; font-weight: bold; margin: 0;"">Is there a person in this image?</p>
                        </div>
                    </div>","0","main_causal_task","1","coin_causal","","","",""
"","","","","","html-keyboard-response","37","185688","0.0-37.0","42166007888848DC85F1A0DFDF5645C8","019ce66c-09d2-7a1b-bbe2-c4e237e0b3e1","019ce643-47c6-74a0-b3d2-7bf5651ded46","","null","
                    <div class=""stimulus-container"">
                        <img src=""images/causal_sequence/coin_causal/coin_causal_2.png"" class=""exp-image"">
                        <div class=""question-area""></div> 
                    </div>","null","","","","","","",""
"","","","","","html-button-response","38","186849","0.0-38.0","42166007888848DC85F1A0DFDF5645C8","019ce66c-09d2-7a1b-bbe2-c4e237e0b3e1","019ce643-47c6-74a0-b3d2-7bf5651ded46","","1159","
                    <div class=""stimulus-container"">
                        <img src=""images/causal_sequence/coin_causal/coin_causal_2.png"" class=""exp-image"">
                        <div class=""question-area"">
                            <p style=""font-size: 20px; font-weight: bold; margin: 0;"">Is there a person in this image?</p>
                        </div>
                    </div>","0","main_causal_task","2","coin_causal","","","",""
"","","","","","html-keyboard-response","39","191853","0.0-39.0","42166007888848DC85F1A0DFDF5645C8","019ce66c-09d2-7a1b-bbe2-c4e237e0b3e1","019ce643-47c6-74a0-b3d2-7bf5651ded46","","null","
                    <div class=""stimulus-container"">
                        <img src=""images/causal_sequence/coin_causal/coin_causal_3.png"" class=""exp-image"">
                        <div class=""question-area""></div> 
                    </div>","null","","","","","","",""
"","","","","","html-button-response","40","192446","0.0-40.0","42166007888848DC85F1A0DFDF5645C8","019ce66c-09d2-7a1b-bbe2-c4e237e0b3e1","019ce643-47c6-74a0-b3d2-7bf5651ded46","","591","
                    <div class=""stimulus-container"">
                        <img src=""images/causal_sequence/coin_causal/coin_causal_3.png"" class=""exp-image"">
                        <div class=""question-area"">
                            <p style=""font-size: 20px; font-weight: bold; margin: 0;"">Is there a person in this image?</p>
                        </div>
                    </div>","0","main_causal_task","3","coin_causal","","","",""
"","","","","","html-keyboard-response","41","197460","0.0-41.0","42166007888848DC85F1A0DFDF5645C8","019ce66c-09d2-7a1b-bbe2-c4e237e0b3e1","019ce643-47c6-74a0-b3d2-7bf5651ded46","","null","
                    <div class=""stimulus-container"">
                        <img src=""images/causal_sequence/coin_causal/coin_causal_4.png"" class=""exp-image"">
                        <div class=""question-area""></div> 
                    </div>","null","","","","","","",""
"","","","","","html-button-response","42","198489","0.0-42.0","42166007888848DC85F1A0DFDF5645C8","019ce66c-09d2-7a1b-bbe2-c4e237e0b3e1","019ce643-47c6-74a0-b3d2-7bf5651ded46","","1028","
                    <div class=""stimulus-container"">
                        <img src=""images/causal_sequence/coin_causal/coin_causal_4.png"" class=""exp-image"">
                        <div class=""question-area"">
                            <p style=""font-size: 20px; font-weight: bold; margin: 0;"">Is there a person in this image?</p>
                        </div>
                    </div>","0","main_causal_task","4","coin_causal","","","",""
"","","","","","html-keyboard-response","43","203491","0.0-43.0","42166007888848DC85F1A0DFDF5645C8","019ce66c-09d2-7a1b-bbe2-c4e237e0b3e1","019ce643-47c6-74a0-b3d2-7bf5651ded46","","null","
                    <div class=""stimulus-container"">
                        <img src=""images/causal_sequence/coin_causal/coin_causal_5.png"" class=""exp-image"">
                        <div class=""question-area""></div> 
                    </div>","null","","","","","","",""
"","","","","","html-button-response","44","204254","0.0-44.0","42166007888848DC85F1A0DFDF5645C8","019ce66c-09d2-7a1b-bbe2-c4e237e0b3e1","019ce643-47c6-74a0-b3d2-7bf5651ded46","","760","
                    <div class=""stimulus-container"">
                        <img src=""images/causal_sequence/coin_causal/coin_causal_5.png"" class=""exp-image"">
                        <div class=""question-area"">
                            <p style=""font-size: 20px; font-weight: bold; margin: 0;"">Is there a person in this image?</p>
                        </div>
                    </div>","0","main_causal_task","5","coin_causal","","","",""
"","","","","","html-keyboard-response","45","209262","0.0-45.0","42166007888848DC85F1A0DFDF5645C8","019ce66c-09d2-7a1b-bbe2-c4e237e0b3e1","019ce643-47c6-74a0-b3d2-7bf5651ded46","","null","
                    <div class=""stimulus-container"">
                        <img src=""images/causal_sequence/coin_causal/coin_causal_6.png"" class=""exp-image"">
                        <div class=""question-area""></div> 
                    </div>","null","","","","","","",""
"","","","","","html-button-response","46","210036","0.0-46.0","42166007888848DC85F1A0DFDF5645C8","019ce66c-09d2-7a1b-bbe2-c4e237e0b3e1","019ce643-47c6-74a0-b3d2-7bf5651ded46","","772","
                    <div class=""stimulus-container"">
                        <img src=""images/causal_sequence/coin_causal/coin_causal_6.png"" class=""exp-image"">
                        <div class=""question-area"">
                            <p style=""font-size: 20px; font-weight: bold; margin: 0;"">Is there a person in this image?</p>
                        </div>
                    </div>","0","main_causal_task","6","coin_causal","","","",""
"","","","","","html-keyboard-response","47","215039","0.0-47.0","42166007888848DC85F1A0DFDF5645C8","019ce66c-09d2-7a1b-bbe2-c4e237e0b3e1","019ce643-47c6-74a0-b3d2-7bf5651ded46","","null","
                    <div class=""stimulus-container"">
                        <img src=""images/causal_sequence/coin_causal/coin_causal_7.png"" class=""exp-image"">
                        <div class=""question-area""></div> 
                    </div>","null","","","","","","",""
"","","","","","html-button-response","48","215684","0.0-48.0","42166007888848DC85F1A0DFDF5645C8","019ce66c-09d2-7a1b-bbe2-c4e237e0b3e1","019ce643-47c6-74a0-b3d2-7bf5651ded46","","642","
                    <div class=""stimulus-container"">
                        <img src=""images/causal_sequence/coin_causal/coin_causal_7.png"" class=""exp-image"">
                        <div class=""question-area"">
                            <p style=""font-size: 20px; font-weight: bold; margin: 0;"">Is there a person in this image?</p>
                        </div>
                    </div>","1","main_causal_task","7","coin_causal","","","",""
"","","","","","html-keyboard-response","49","220687","0.0-49.0","42166007888848DC85F1A0DFDF5645C8","019ce66c-09d2-7a1b-bbe2-c4e237e0b3e1","019ce643-47c6-74a0-b3d2-7bf5651ded46","","null","
                    <div class=""stimulus-container"">
                        <img src=""images/causal_sequence/coin_causal/coin_causal_8.png"" class=""exp-image"">
                        <div class=""question-area""></div> 
                    </div>","null","","","","","","",""
"","","","","","html-button-response","50","221405","0.0-50.0","42166007888848DC85F1A0DFDF5645C8","019ce66c-09d2-7a1b-bbe2-c4e237e0b3e1","019ce643-47c6-74a0-b3d2-7bf5651ded46","","716","
                    <div class=""stimulus-container"">
                        <img src=""images/causal_sequence/coin_causal/coin_causal_8.png"" class=""exp-image"">
                        <div class=""question-area"">
                            <p style=""font-size: 20px; font-weight: bold; margin: 0;"">Is there a person in this image?</p>
                        </div>
                    </div>","0","main_causal_task","8","coin_causal","","","",""
"","","","","","html-keyboard-response","51","226422","0.0-51.0","42166007888848DC85F1A0DFDF5645C8","019ce66c-09d2-7a1b-bbe2-c4e237e0b3e1","019ce643-47c6-74a0-b3d2-7bf5651ded46","","null","
                    <div class=""stimulus-container"">
                        <img src=""images/causal_sequence/coin_causal/coin_causal_9.png"" class=""exp-image"">
                        <div class=""question-area""></div> 
                    </div>","null","","","","","","",""
"","","","","","html-button-response","52","227027","0.0-52.0","42166007888848DC85F1A0DFDF5645C8","019ce66c-09d2-7a1b-bbe2-c4e237e0b3e1","019ce643-47c6-74a0-b3d2-7bf5651ded46","","603","
                    <div class=""stimulus-container"">
                        <img src=""images/causal_sequence/coin_causal/coin_causal_9.png"" class=""exp-image"">
                        <div class=""question-area"">
                            <p style=""font-size: 20px; font-weight: bold; margin: 0;"">Is there a person in this image?</p>
                        </div>
                    </div>","0","main_causal_task","9","coin_causal","","","",""
"","","","","","html-keyboard-response","53","228042","0.0-53.0","42166007888848DC85F1A0DFDF5645C8","019ce66c-09d2-7a1b-bbe2-c4e237e0b3e1","019ce643-47c6-74a0-b3d2-7bf5651ded46","","null","<div style=""background-color: gray; width: 100vw; height: 100vh;""></div>","null","","","","","","",""
"","","","","","html-keyboard-response","54","233046","0.0-54.0","42166007888848DC85F1A0DFDF5645C8","019ce66c-09d2-7a1b-bbe2-c4e237e0b3e1","019ce643-47c6-74a0-b3d2-7bf5651ded46","","null","
                    <div class=""stimulus-container"">
                        <img src=""images/causal_sequence/saving_a_cat_causal/saving_a_cat_causal_1.png"" class=""exp-image"">
                        <div class=""question-area""></div> 
                    </div>","null","","","","","","",""
"","","","","","html-button-response","55","234637","0.0-55.0","42166007888848DC85F1A0DFDF5645C8","019ce66c-09d2-7a1b-bbe2-c4e237e0b3e1","019ce643-47c6-74a0-b3d2-7bf5651ded46","","1588","
                    <div class=""stimulus-container"">
                        <img src=""images/causal_sequence/saving_a_cat_causal/saving_a_cat_causal_1.png"" class=""exp-image"">
                        <div class=""question-area"">
                            <p style=""font-size: 20px; font-weight: bold; margin: 0;"">Is there a person in this image?</p>
                        </div>
                    </div>","0","main_causal_task","1","saving_a_cat_causal","","","",""
"","","","","","html-keyboard-response","56","239653","0.0-56.0","42166007888848DC85F1A0DFDF5645C8","019ce66c-09d2-7a1b-bbe2-c4e237e0b3e1","019ce643-47c6-74a0-b3d2-7bf5651ded46","","null","
                    <div class=""stimulus-container"">
                        <img src=""images/causal_sequence/saving_a_cat_causal/saving_a_cat_causal_2.png"" class=""exp-image"">
                        <div class=""question-area""></div> 
                    </div>","null","","","","","","",""
"","","","","","html-button-response","57","240529","0.0-57.0","42166007888848DC85F1A0DFDF5645C8","019ce66c-09d2-7a1b-bbe2-c4e237e0b3e1","019ce643-47c6-74a0-b3d2-7bf5651ded46","","874","
                    <div class=""stimulus-container"">
                        <img src=""images/causal_sequence/saving_a_cat_causal/saving_a_cat_causal_2.png"" class=""exp-image"">
                        <div class=""question-area"">
                            <p style=""font-size: 20px; font-weight: bold; margin: 0;"">Is there a person in this image?</p>
                        </div>
                    </div>","0","main_causal_task","2","saving_a_cat_causal","","","",""
"","","","","","html-keyboard-response","58","245533","0.0-58.0","42166007888848DC85F1A0DFDF5645C8","019ce66c-09d2-7a1b-bbe2-c4e237e0b3e1","019ce643-47c6-74a0-b3d2-7bf5651ded46","","null","
                    <div class=""stimulus-container"">
                        <img src=""images/causal_sequence/saving_a_cat_causal/saving_a_cat_causal_3.png"" class=""exp-image"">
                        <div class=""question-area""></div> 
                    </div>","null","","","","","","",""
"","","","","","html-button-response","59","247317","0.0-59.0","42166007888848DC85F1A0DFDF5645C8","019ce66c-09d2-7a1b-bbe2-c4e237e0b3e1","019ce643-47c6-74a0-b3d2-7bf5651ded46","","1782","
                    <div class=""stimulus-container"">
                        <img src=""images/causal_sequence/saving_a_cat_causal/saving_a_cat_causal_3.png"" class=""exp-image"">
                        <div class=""question-area"">
                            <p style=""font-size: 20px; font-weight: bold; margin: 0;"">Is there a person in this image?</p>
                        </div>
                    </div>","0","main_causal_task","3","saving_a_cat_causal","","","",""
"","","","","","html-keyboard-response","60","252320","0.0-60.0","42166007888848DC85F1A0DFDF5645C8","019ce66c-09d2-7a1b-bbe2-c4e237e0b3e1","019ce643-47c6-74a0-b3d2-7bf5651ded46","","null","
                    <div class=""stimulus-container"">
                        <img src=""images/causal_sequence/saving_a_cat_causal/saving_a_cat_causal_4.png"" class=""exp-image"">
                        <div class=""question-area""></div> 
                    </div>","null","","","","","","",""
"","","","","","html-button-response","61","253217","0.0-61.0","42166007888848DC85F1A0DFDF5645C8","019ce66c-09d2-7a1b-bbe2-c4e237e0b3e1","019ce643-47c6-74a0-b3d2-7bf5651ded46","","895","
                    <div class=""stimulus-container"">
                        <img src=""images/causal_sequence/saving_a_cat_causal/saving_a_cat_causal_4.png"" class=""exp-image"">
                        <div class=""question-area"">
                            <p style=""font-size: 20px; font-weight: bold; margin: 0;"">Is there a person in this image?</p>
                        </div>
                    </div>","0","main_causal_task","4","saving_a_cat_causal","","","",""
"","","","","","html-keyboard-response","62","258223","0.0-62.0","42166007888848DC85F1A0DFDF5645C8","019ce66c-09d2-7a1b-bbe2-c4e237e0b3e1","019ce643-47c6-74a0-b3d2-7bf5651ded46","","null","
                    <div class=""stimulus-container"">
                        <img src=""images/causal_sequence/saving_a_cat_causal/saving_a_cat_causal_5.png"" class=""exp-image"">
                        <div class=""question-area""></div> 
                    </div>","null","","","","","","",""
"","","","","","html-button-response","63","261227","0.0-63.0","42166007888848DC85F1A0DFDF5645C8","019ce66c-09d2-7a1b-bbe2-c4e237e0b3e1","019ce643-47c6-74a0-b3d2-7bf5651ded46","","null","
                    <div class=""stimulus-container"">
                        <img src=""images/causal_sequence/saving_a_cat_causal/saving_a_cat_causal_5.png"" class=""exp-image"">
                        <div class=""question-area"">
                            <p style=""font-size: 20px; font-weight: bold; margin: 0;"">Is there a person in this image?</p>
                        </div>
                    </div>","null","main_causal_task","5","saving_a_cat_causal","","","",""
"","","","","","html-keyboard-response","64","266243","0.0-64.0","42166007888848DC85F1A0DFDF5645C8","019ce66c-09d2-7a1b-bbe2-c4e237e0b3e1","019ce643-47c6-74a0-b3d2-7bf5651ded46","","null","
                    <div class=""stimulus-container"">
                        <img src=""images/causal_sequence/saving_a_cat_causal/saving_a_cat_causal_6.png"" class=""exp-image"">
                        <div class=""question-area""></div> 
                    </div>","null","","","","","","",""
"","","","","","html-button-response","65","267215","0.0-65.0","42166007888848DC85F1A0DFDF5645C8","019ce66c-09d2-7a1b-bbe2-c4e237e0b3e1","019ce643-47c6-74a0-b3d2-7bf5651ded46","","970","
                    <div class=""stimulus-container"">
                        <img src=""images/causal_sequence/saving_a_cat_causal/saving_a_cat_causal_6.png"" class=""exp-image"">
                        <div class=""question-area"">
                            <p style=""font-size: 20px; font-weight: bold; margin: 0;"">Is there a person in this image?</p>
                        </div>
                    </div>","0","main_causal_task","6","saving_a_cat_causal","","","",""
"","","","","","html-keyboard-response","66","272219","0.0-66.0","42166007888848DC85F1A0DFDF5645C8","019ce66c-09d2-7a1b-bbe2-c4e237e0b3e1","019ce643-47c6-74a0-b3d2-7bf5651ded46","","null","
                    <div class=""stimulus-container"">
                        <img src=""images/causal_sequence/saving_a_cat_causal/saving_a_cat_causal_7.png"" class=""exp-image"">
                        <div class=""question-area""></div> 
                    </div>","null","","","","","","",""
"","","","","","html-button-response","67","273174","0.0-67.0","42166007888848DC85F1A0DFDF5645C8","019ce66c-09d2-7a1b-bbe2-c4e237e0b3e1","019ce643-47c6-74a0-b3d2-7bf5651ded46","","953","
                    <div class=""stimulus-container"">
                        <img src=""images/causal_sequence/saving_a_cat_causal/saving_a_cat_causal_7.png"" class=""exp-image"">
                        <div class=""question-area"">
                            <p style=""font-size: 20px; font-weight: bold; margin: 0;"">Is there a person in this image?</p>
                        </div>
                    </div>","0","main_causal_task","7","saving_a_cat_causal","","","",""
"","","","","","html-keyboard-response","68","278190","0.0-68.0","42166007888848DC85F1A0DFDF5645C8","019ce66c-09d2-7a1b-bbe2-c4e237e0b3e1","019ce643-47c6-74a0-b3d2-7bf5651ded46","","null","
                    <div class=""stimulus-container"">
                        <img src=""images/causal_sequence/saving_a_cat_causal/saving_a_cat_causal_8.png"" class=""exp-image"">
                        <div class=""question-area""></div> 
                    </div>","null","","","","","","",""
"","","","","","html-button-response","69","278905","0.0-69.0","42166007888848DC85F1A0DFDF5645C8","019ce66c-09d2-7a1b-bbe2-c4e237e0b3e1","019ce643-47c6-74a0-b3d2-7bf5651ded46","","714","
                    <div class=""stimulus-container"">
                        <img src=""images/causal_sequence/saving_a_cat_causal/saving_a_cat_causal_8.png"" class=""exp-image"">
                        <div class=""question-area"">
                            <p style=""font-size: 20px; font-weight: bold; margin: 0;"">Is there a person in this image?</p>
                        </div>
                    </div>","0","main_causal_task","8","saving_a_cat_causal","","","",""
"","","","","","html-keyboard-response","70","283916","0.0-70.0","42166007888848DC85F1A0DFDF5645C8","019ce66c-09d2-7a1b-bbe2-c4e237e0b3e1","019ce643-47c6-74a0-b3d2-7bf5651ded46","","null","
                    <div class=""stimulus-container"">
                        <img src=""images/causal_sequence/saving_a_cat_causal/saving_a_cat_causal_9.png"" class=""exp-image"">
                        <div class=""question-area""></div> 
                    </div>","null","","","","","","",""
"","","","","","html-button-response","71","284788","0.0-71.0","42166007888848DC85F1A0DFDF5645C8","019ce66c-09d2-7a1b-bbe2-c4e237e0b3e1","019ce643-47c6-74a0-b3d2-7bf5651ded46","","870","
                    <div class=""stimulus-container"">
                        <img src=""images/causal_sequence/saving_a_cat_causal/saving_a_cat_causal_9.png"" class=""exp-image"">
                        <div class=""question-area"">
                            <p style=""font-size: 20px; font-weight: bold; margin: 0;"">Is there a person in this image?</p>
                        </div>
                    </div>","0","main_causal_task","9","saving_a_cat_causal","","","",""
"","","","","","html-keyboard-response","72","285805","0.0-72.0","42166007888848DC85F1A0DFDF5645C8","019ce66c-09d2-7a1b-bbe2-c4e237e0b3e1","019ce643-47c6-74a0-b3d2-7bf5651ded46","","null","<div style=""background-color: gray; width: 100vw; height: 100vh;""></div>","null","","","","","","",""
"","","","","","html-keyboard-response","73","290818","0.0-73.0","42166007888848DC85F1A0DFDF5645C8","019ce66c-09d2-7a1b-bbe2-c4e237e0b3e1","019ce643-47c6-74a0-b3d2-7bf5651ded46","","null","
                    <div class=""stimulus-container"">
                        <img src=""images/causal_sequence/dog_causal/dog_causal_1.png"" class=""exp-image"">
                        <div class=""question-area""></div> 
                    </div>","null","","","","","","",""
"","","","","","html-button-response","74","291532","0.0-74.0","42166007888848DC85F1A0DFDF5645C8","019ce66c-09d2-7a1b-bbe2-c4e237e0b3e1","019ce643-47c6-74a0-b3d2-7bf5651ded46","","713","
                    <div class=""stimulus-container"">
                        <img src=""images/causal_sequence/dog_causal/dog_causal_1.png"" class=""exp-image"">
                        <div class=""question-area"">
                            <p style=""font-size: 20px; font-weight: bold; margin: 0;"">Is there a person in this image?</p>
                        </div>
                    </div>","0","main_causal_task","1","dog_causal","","","",""
"","","","","","html-keyboard-response","75","296547","0.0-75.0","42166007888848DC85F1A0DFDF5645C8","019ce66c-09d2-7a1b-bbe2-c4e237e0b3e1","019ce643-47c6-74a0-b3d2-7bf5651ded46","","null","
                    <div class=""stimulus-container"">
                        <img src=""images/causal_sequence/dog_causal/dog_causal_2.png"" class=""exp-image"">
                        <div class=""question-area""></div> 
                    </div>","null","","","","","","",""
"","","","","","html-button-response","76","297169","0.0-76.0","42166007888848DC85F1A0DFDF5645C8","019ce66c-09d2-7a1b-bbe2-c4e237e0b3e1","019ce643-47c6-74a0-b3d2-7bf5651ded46","","620","
                    <div class=""stimulus-container"">
                        <img src=""images/causal_sequence/dog_causal/dog_causal_2.png"" class=""exp-image"">
                        <div class=""question-area"">
                            <p style=""font-size: 20px; font-weight: bold; margin: 0;"">Is there a person in this image?</p>
                        </div>
                    </div>","0","main_causal_task","2","dog_causal","","","",""
"","","","","","html-keyboard-response","77","302172","0.0-77.0","42166007888848DC85F1A0DFDF5645C8","019ce66c-09d2-7a1b-bbe2-c4e237e0b3e1","019ce643-47c6-74a0-b3d2-7bf5651ded46","","null","
                    <div class=""stimulus-container"">
                        <img src=""images/causal_sequence/dog_causal/dog_causal_3.png"" class=""exp-image"">
                        <div class=""question-area""></div> 
                    </div>","null","","","","","","",""
"","","","","","html-button-response","78","303316","0.0-78.0","42166007888848DC85F1A0DFDF5645C8","019ce66c-09d2-7a1b-bbe2-c4e237e0b3e1","019ce643-47c6-74a0-b3d2-7bf5651ded46","","1142","
                    <div class=""stimulus-container"">
                        <img src=""images/causal_sequence/dog_causal/dog_causal_3.png"" class=""exp-image"">
                        <div class=""question-area"">
                            <p style=""font-size: 20px; font-weight: bold; margin: 0;"">Is there a person in this image?</p>
                        </div>
                    </div>","0","main_causal_task","3","dog_causal","","","",""
"","","","","","html-keyboard-response","79","308320","0.0-79.0","42166007888848DC85F1A0DFDF5645C8","019ce66c-09d2-7a1b-bbe2-c4e237e0b3e1","019ce643-47c6-74a0-b3d2-7bf5651ded46","","null","
                    <div class=""stimulus-container"">
                        <img src=""images/causal_sequence/dog_causal/dog_causal_4.png"" class=""exp-image"">
                        <div class=""question-area""></div> 
                    </div>","null","","","","","","",""
"","","","","","html-button-response","80","309074","0.0-80.0","42166007888848DC85F1A0DFDF5645C8","019ce66c-09d2-7a1b-bbe2-c4e237e0b3e1","019ce643-47c6-74a0-b3d2-7bf5651ded46","","753","
                    <div class=""stimulus-container"">
                        <img src=""images/causal_sequence/dog_causal/dog_causal_4.png"" class=""exp-image"">
                        <div class=""question-area"">
                            <p style=""font-size: 20px; font-weight: bold; margin: 0;"">Is there a person in this image?</p>
                        </div>
                    </div>","0","main_causal_task","4","dog_causal","","","",""
"","","","","","html-keyboard-response","81","314088","0.0-81.0","42166007888848DC85F1A0DFDF5645C8","019ce66c-09d2-7a1b-bbe2-c4e237e0b3e1","019ce643-47c6-74a0-b3d2-7bf5651ded46","","null","
                    <div class=""stimulus-container"">
                        <img src=""images/causal_sequence/dog_causal/dog_causal_5.png"" class=""exp-image"">
                        <div class=""question-area""></div> 
                    </div>","null","","","","","","",""
"","","","","","html-button-response","82","314959","0.0-82.0","42166007888848DC85F1A0DFDF5645C8","019ce66c-09d2-7a1b-bbe2-c4e237e0b3e1","019ce643-47c6-74a0-b3d2-7bf5651ded46","","869","
                    <div class=""stimulus-container"">
                        <img src=""images/causal_sequence/dog_causal/dog_causal_5.png"" class=""exp-image"">
                        <div class=""question-area"">
                            <p style=""font-size: 20px; font-weight: bold; margin: 0;"">Is there a person in this image?</p>
                        </div>
                    </div>","0","main_causal_task","5","dog_causal","","","",""
"","","","","","html-keyboard-response","83","319961","0.0-83.0","42166007888848DC85F1A0DFDF5645C8","019ce66c-09d2-7a1b-bbe2-c4e237e0b3e1","019ce643-47c6-74a0-b3d2-7bf5651ded46","","null","
                    <div class=""stimulus-container"">
                        <img src=""images/causal_sequence/dog_causal/dog_causal_6.png"" class=""exp-image"">
                        <div class=""question-area""></div> 
                    </div>","null","","","","","","",""
"","","","","","html-button-response","84","320709","0.0-84.0","42166007888848DC85F1A0DFDF5645C8","019ce66c-09d2-7a1b-bbe2-c4e237e0b3e1","019ce643-47c6-74a0-b3d2-7bf5651ded46","","747","
                    <div class=""stimulus-container"">
                        <img src=""images/causal_sequence/dog_causal/dog_causal_6.png"" class=""exp-image"">
                        <div class=""question-area"">
                            <p style=""font-size: 20px; font-weight: bold; margin: 0;"">Is there a person in this image?</p>
                        </div>
                    </div>","0","main_causal_task","6","dog_causal","","","",""
"","","","","","html-keyboard-response","85","325722","0.0-85.0","42166007888848DC85F1A0DFDF5645C8","019ce66c-09d2-7a1b-bbe2-c4e237e0b3e1","019ce643-47c6-74a0-b3d2-7bf5651ded46","","null","
                    <div class=""stimulus-container"">
                        <img src=""images/causal_sequence/dog_causal/dog_causal_7.png"" class=""exp-image"">
                        <div class=""question-area""></div> 
                    </div>","null","","","","","","",""
"","","","","","html-button-response","86","327697","0.0-86.0","42166007888848DC85F1A0DFDF5645C8","019ce66c-09d2-7a1b-bbe2-c4e237e0b3e1","019ce643-47c6-74a0-b3d2-7bf5651ded46","","1972","
                    <div class=""stimulus-container"">
                        <img src=""images/causal_sequence/dog_causal/dog_causal_7.png"" class=""exp-image"">
                        <div class=""question-area"">
                            <p style=""font-size: 20px; font-weight: bold; margin: 0;"">Is there a person in this image?</p>
                        </div>
                    </div>","0","main_causal_task","7","dog_causal","","","",""
"","","","","","html-keyboard-response","87","332705","0.0-87.0","42166007888848DC85F1A0DFDF5645C8","019ce66c-09d2-7a1b-bbe2-c4e237e0b3e1","019ce643-47c6-74a0-b3d2-7bf5651ded46","","null","
                    <div class=""stimulus-container"">
                        <img src=""images/causal_sequence/dog_causal/dog_causal_8.png"" class=""exp-image"">
                        <div class=""question-area""></div> 
                    </div>","null","","","","","","",""
"","","","","","html-button-response","88","333606","0.0-88.0","42166007888848DC85F1A0DFDF5645C8","019ce66c-09d2-7a1b-bbe2-c4e237e0b3e1","019ce643-47c6-74a0-b3d2-7bf5651ded46","","900","
                    <div class=""stimulus-container"">
                        <img src=""images/causal_sequence/dog_causal/dog_causal_8.png"" class=""exp-image"">
                        <div class=""question-area"">
                            <p style=""font-size: 20px; font-weight: bold; margin: 0;"">Is there a person in this image?</p>
                        </div>
                    </div>","0","main_causal_task","8","dog_causal","","","",""
"","","","","","html-keyboard-response","89","338613","0.0-89.0","42166007888848DC85F1A0DFDF5645C8","019ce66c-09d2-7a1b-bbe2-c4e237e0b3e1","019ce643-47c6-74a0-b3d2-7bf5651ded46","","null","
                    <div class=""stimulus-container"">
                        <img src=""images/causal_sequence/dog_causal/dog_causal_9.png"" class=""exp-image"">
                        <div class=""question-area""></div> 
                    </div>","null","","","","","","",""
"","","","","","html-button-response","90","339571","0.0-90.0","42166007888848DC85F1A0DFDF5645C8","019ce66c-09d2-7a1b-bbe2-c4e237e0b3e1","019ce643-47c6-74a0-b3d2-7bf5651ded46","","956","
                    <div class=""stimulus-container"">
                        <img src=""images/causal_sequence/dog_causal/dog_causal_9.png"" class=""exp-image"">
                        <div class=""question-area"">
                            <p style=""font-size: 20px; font-weight: bold; margin: 0;"">Is there a person in this image?</p>
                        </div>
                    </div>","0","main_causal_task","9","dog_causal","","","",""
"","","","","","html-keyboard-response","91","340589","0.0-91.0","42166007888848DC85F1A0DFDF5645C8","019ce66c-09d2-7a1b-bbe2-c4e237e0b3e1","019ce643-47c6-74a0-b3d2-7bf5651ded46","","null","<div style=""background-color: gray; width: 100vw; height: 100vh;""></div>","null","","","","","","",""
"","","","","","html-keyboard-response","92","345602","0.0-92.0","42166007888848DC85F1A0DFDF5645C8","019ce66c-09d2-7a1b-bbe2-c4e237e0b3e1","019ce643-47c6-74a0-b3d2-7bf5651ded46","","null","
                    <div class=""stimulus-container"">
                        <img src=""images/causal_sequence/package_causal/package_causal_1.png"" class=""exp-image"">
                        <div class=""question-area""></div> 
                    </div>","null","","","","","","",""
"","","","","","html-button-response","93","346342","0.0-93.0","42166007888848DC85F1A0DFDF5645C8","019ce66c-09d2-7a1b-bbe2-c4e237e0b3e1","019ce643-47c6-74a0-b3d2-7bf5651ded46","","738","
                    <div class=""stimulus-container"">
                        <img src=""images/causal_sequence/package_causal/package_causal_1.png"" class=""exp-image"">
                        <div class=""question-area"">
                            <p style=""font-size: 20px; font-weight: bold; margin: 0;"">Is there a person in this image?</p>
                        </div>
                    </div>","0","main_causal_task","1","package_causal","","","",""
"","","","","","html-keyboard-response","94","351346","0.0-94.0","42166007888848DC85F1A0DFDF5645C8","019ce66c-09d2-7a1b-bbe2-c4e237e0b3e1","019ce643-47c6-74a0-b3d2-7bf5651ded46","","null","
                    <div class=""stimulus-container"">
                        <img src=""images/causal_sequence/package_causal/package_causal_2.png"" class=""exp-image"">
                        <div class=""question-area""></div> 
                    </div>","null","","","","","","",""
"","","","","","html-button-response","95","352123","0.0-95.0","42166007888848DC85F1A0DFDF5645C8","019ce66c-09d2-7a1b-bbe2-c4e237e0b3e1","019ce643-47c6-74a0-b3d2-7bf5651ded46","","775","
                    <div class=""stimulus-container"">
                        <img src=""images/causal_sequence/package_causal/package_causal_2.png"" class=""exp-image"">
                        <div class=""question-area"">
                            <p style=""font-size: 20px; font-weight: bold; margin: 0;"">Is there a person in this image?</p>
                        </div>
                    </div>","0","main_causal_task","2","package_causal","","","",""
"","","","","","html-keyboard-response","96","357134","0.0-96.0","42166007888848DC85F1A0DFDF5645C8","019ce66c-09d2-7a1b-bbe2-c4e237e0b3e1","019ce643-47c6-74a0-b3d2-7bf5651ded46","","null","
                    <div class=""stimulus-container"">
                        <img src=""images/causal_sequence/package_causal/package_causal_3.png"" class=""exp-image"">
                        <div class=""question-area""></div> 
                    </div>","null","","","","","","",""
"","","","","","html-button-response","97","358056","0.0-97.0","42166007888848DC85F1A0DFDF5645C8","019ce66c-09d2-7a1b-bbe2-c4e237e0b3e1","019ce643-47c6-74a0-b3d2-7bf5651ded46","","920","
                    <div class=""stimulus-container"">
                        <img src=""images/causal_sequence/package_causal/package_causal_3.png"" class=""exp-image"">
                        <div class=""question-area"">
                            <p style=""font-size: 20px; font-weight: bold; margin: 0;"">Is there a person in this image?</p>
                        </div>
                    </div>","0","main_causal_task","3","package_causal","","","",""
"","","","","","html-keyboard-response","98","363061","0.0-98.0","42166007888848DC85F1A0DFDF5645C8","019ce66c-09d2-7a1b-bbe2-c4e237e0b3e1","019ce643-47c6-74a0-b3d2-7bf5651ded46","","null","
                    <div class=""stimulus-container"">
                        <img src=""images/causal_sequence/package_causal/package_causal_4.png"" class=""exp-image"">
                        <div class=""question-area""></div> 
                    </div>","null","","","","","","",""
"","","","","","html-button-response","99","363779","0.0-99.0","42166007888848DC85F1A0DFDF5645C8","019ce66c-09d2-7a1b-bbe2-c4e237e0b3e1","019ce643-47c6-74a0-b3d2-7bf5651ded46","","715","
                    <div class=""stimulus-container"">
                        <img src=""images/causal_sequence/package_causal/package_causal_4.png"" class=""exp-image"">
                        <div class=""question-area"">
                            <p style=""font-size: 20px; font-weight: bold; margin: 0;"">Is there a person in this image?</p>
                        </div>
                    </div>","1","main_causal_task","4","package_causal","","","",""
"","","","","","html-keyboard-response","100","368788","0.0-100.0","42166007888848DC85F1A0DFDF5645C8","019ce66c-09d2-7a1b-bbe2-c4e237e0b3e1","019ce643-47c6-74a0-b3d2-7bf5651ded46","","null","
                    <div class=""stimulus-container"">
                        <img src=""images/causal_sequence/package_causal/package_causal_5.png"" class=""exp-image"">
                        <div class=""question-area""></div> 
                    </div>","null","","","","","","",""
"","","","","","html-button-response","101","369814","0.0-101.0","42166007888848DC85F1A0DFDF5645C8","019ce66c-09d2-7a1b-bbe2-c4e237e0b3e1","019ce643-47c6-74a0-b3d2-7bf5651ded46","","1025","
                    <div class=""stimulus-container"">
                        <img src=""images/causal_sequence/package_causal/package_causal_5.png"" class=""exp-image"">
                        <div class=""question-area"">
                            <p style=""font-size: 20px; font-weight: bold; margin: 0;"">Is there a person in this image?</p>
                        </div>
                    </div>","0","main_causal_task","5","package_causal","","","",""
"","","","","","html-keyboard-response","102","374821","0.0-102.0","42166007888848DC85F1A0DFDF5645C8","019ce66c-09d2-7a1b-bbe2-c4e237e0b3e1","019ce643-47c6-74a0-b3d2-7bf5651ded46","","null","
                    <div class=""stimulus-container"">
                        <img src=""images/causal_sequence/package_causal/package_causal_6.png"" class=""exp-image"">
                        <div class=""question-area""></div> 
                    </div>","null","","","","","","",""
"","","","","","html-button-response","103","375888","0.0-103.0","42166007888848DC85F1A0DFDF5645C8","019ce66c-09d2-7a1b-bbe2-c4e237e0b3e1","019ce643-47c6-74a0-b3d2-7bf5651ded46","","1065","
                    <div class=""stimulus-container"">
                        <img src=""images/causal_sequence/package_causal/package_causal_6.png"" class=""exp-image"">
                        <div class=""question-area"">
                            <p style=""font-size: 20px; font-weight: bold; margin: 0;"">Is there a person in this image?</p>
                        </div>
                    </div>","0","main_causal_task","6","package_causal","","","",""
"","","","","","html-keyboard-response","104","380906","0.0-104.0","42166007888848DC85F1A0DFDF5645C8","019ce66c-09d2-7a1b-bbe2-c4e237e0b3e1","019ce643-47c6-74a0-b3d2-7bf5651ded46","","null","
                    <div class=""stimulus-container"">
                        <img src=""images/causal_sequence/package_causal/package_causal_7.png"" class=""exp-image"">
                        <div class=""question-area""></div> 
                    </div>","null","","","","","","",""
"","","","","","html-button-response","105","381629","0.0-105.0","42166007888848DC85F1A0DFDF5645C8","019ce66c-09d2-7a1b-bbe2-c4e237e0b3e1","019ce643-47c6-74a0-b3d2-7bf5651ded46","","721","
                    <div class=""stimulus-container"">
                        <img src=""images/causal_sequence/package_causal/package_causal_7.png"" class=""exp-image"">
                        <div class=""question-area"">
                            <p style=""font-size: 20px; font-weight: bold; margin: 0;"">Is there a person in this image?</p>
                        </div>
                    </div>","0","main_causal_task","7","package_causal","","","",""
"","","","","","html-keyboard-response","106","386644","0.0-106.0","42166007888848DC85F1A0DFDF5645C8","019ce66c-09d2-7a1b-bbe2-c4e237e0b3e1","019ce643-47c6-74a0-b3d2-7bf5651ded46","","null","
                    <div class=""stimulus-container"">
                        <img src=""images/causal_sequence/package_causal/package_causal_8.png"" class=""exp-image"">
                        <div class=""question-area""></div> 
                    </div>","null","","","","","","",""
"","","","","","html-button-response","107","387671","0.0-107.0","42166007888848DC85F1A0DFDF5645C8","019ce66c-09d2-7a1b-bbe2-c4e237e0b3e1","019ce643-47c6-74a0-b3d2-7bf5651ded46","","1025","
                    <div class=""stimulus-container"">
                        <img src=""images/causal_sequence/package_causal/package_causal_8.png"" class=""exp-image"">
                        <div class=""question-area"">
                            <p style=""font-size: 20px; font-weight: bold; margin: 0;"">Is there a person in this image?</p>
                        </div>
                    </div>","0","main_causal_task","8","package_causal","","","",""
"","","","","","html-keyboard-response","108","392686","0.0-108.0","42166007888848DC85F1A0DFDF5645C8","019ce66c-09d2-7a1b-bbe2-c4e237e0b3e1","019ce643-47c6-74a0-b3d2-7bf5651ded46","","null","
                    <div class=""stimulus-container"">
                        <img src=""images/causal_sequence/package_causal/package_causal_9.png"" class=""exp-image"">
                        <div class=""question-area""></div> 
                    </div>","null","","","","","","",""
"","","","","","html-button-response","109","393570","0.0-109.0","42166007888848DC85F1A0DFDF5645C8","019ce66c-09d2-7a1b-bbe2-c4e237e0b3e1","019ce643-47c6-74a0-b3d2-7bf5651ded46","","883","
                    <div class=""stimulus-container"">
                        <img src=""images/causal_sequence/package_causal/package_causal_9.png"" class=""exp-image"">
                        <div class=""question-area"">
                            <p style=""font-size: 20px; font-weight: bold; margin: 0;"">Is there a person in this image?</p>
                        </div>
                    </div>","0","main_causal_task","9","package_causal","","","",""
"","","","","","html-keyboard-response","110","394576","0.0-110.0","42166007888848DC85F1A0DFDF5645C8","019ce66c-09d2-7a1b-bbe2-c4e237e0b3e1","019ce643-47c6-74a0-b3d2-7bf5651ded46","","null","<div style=""background-color: gray; width: 100vw; height: 100vh;""></div>","null","","","","","","",""
"","","","","","html-keyboard-response","111","399585","0.0-111.0","42166007888848DC85F1A0DFDF5645C8","019ce66c-09d2-7a1b-bbe2-c4e237e0b3e1","019ce643-47c6-74a0-b3d2-7bf5651ded46","","null","
                    <div class=""stimulus-container"">
                        <img src=""images/causal_sequence/the_performance_causal/the_performance_causal_1.png"" class=""exp-image"">
                        <div class=""question-area""></div> 
                    </div>","null","","","","","","",""
"","","","","","html-button-response","112","400831","0.0-112.0","42166007888848DC85F1A0DFDF5645C8","019ce66c-09d2-7a1b-bbe2-c4e237e0b3e1","019ce643-47c6-74a0-b3d2-7bf5651ded46","","1245","
                    <div class=""stimulus-container"">
                        <img src=""images/causal_sequence/the_performance_causal/the_performance_causal_1.png"" class=""exp-image"">
                        <div class=""question-area"">
                            <p style=""font-size: 20px; font-weight: bold; margin: 0;"">Is there a person in this image?</p>
                        </div>
                    </div>","0","main_causal_task","1","the_performance_causal","","","",""
"","","","","","html-keyboard-response","113","405836","0.0-113.0","42166007888848DC85F1A0DFDF5645C8","019ce66c-09d2-7a1b-bbe2-c4e237e0b3e1","019ce643-47c6-74a0-b3d2-7bf5651ded46","","null","
                    <div class=""stimulus-container"">
                        <img src=""images/causal_sequence/the_performance_causal/the_performance_causal_2.png"" class=""exp-image"">
                        <div class=""question-area""></div> 
                    </div>","null","","","","","","",""
"","","","","","html-button-response","114","408164","0.0-114.0","42166007888848DC85F1A0DFDF5645C8","019ce66c-09d2-7a1b-bbe2-c4e237e0b3e1","019ce643-47c6-74a0-b3d2-7bf5651ded46","","2327","
                    <div class=""stimulus-container"">
                        <img src=""images/causal_sequence/the_performance_causal/the_performance_causal_2.png"" class=""exp-image"">
                        <div class=""question-area"">
                            <p style=""font-size: 20px; font-weight: bold; margin: 0;"">Is there a person in this image?</p>
                        </div>
                    </div>","0","main_causal_task","2","the_performance_causal","","","",""
"","","","","","html-keyboard-response","115","413175","0.0-115.0","42166007888848DC85F1A0DFDF5645C8","019ce66c-09d2-7a1b-bbe2-c4e237e0b3e1","019ce643-47c6-74a0-b3d2-7bf5651ded46","","null","
                    <div class=""stimulus-container"">
                        <img src=""images/causal_sequence/the_performance_causal/the_performance_causal_3.png"" class=""exp-image"">
                        <div class=""question-area""></div> 
                    </div>","null","","","","","","",""
"","","","","","html-button-response","116","414018","0.0-116.0","42166007888848DC85F1A0DFDF5645C8","019ce66c-09d2-7a1b-bbe2-c4e237e0b3e1","019ce643-47c6-74a0-b3d2-7bf5651ded46","","841","
                    <div class=""stimulus-container"">
                        <img src=""images/causal_sequence/the_performance_causal/the_performance_causal_3.png"" class=""exp-image"">
                        <div class=""question-area"">
                            <p style=""font-size: 20px; font-weight: bold; margin: 0;"">Is there a person in this image?</p>
                        </div>
                    </div>","0","main_causal_task","3","the_performance_causal","","","",""
"","","","","","html-keyboard-response","117","419031","0.0-117.0","42166007888848DC85F1A0DFDF5645C8","019ce66c-09d2-7a1b-bbe2-c4e237e0b3e1","019ce643-47c6-74a0-b3d2-7bf5651ded46","","null","
                    <div class=""stimulus-container"">
                        <img src=""images/causal_sequence/the_performance_causal/the_performance_causal_4.png"" class=""exp-image"">
                        <div class=""question-area""></div> 
                    </div>","null","","","","","","",""
"","","","","","html-button-response","118","419810","0.0-118.0","42166007888848DC85F1A0DFDF5645C8","019ce66c-09d2-7a1b-bbe2-c4e237e0b3e1","019ce643-47c6-74a0-b3d2-7bf5651ded46","","777","
                    <div class=""stimulus-container"">
                        <img src=""images/causal_sequence/the_performance_causal/the_performance_causal_4.png"" class=""exp-image"">
                        <div class=""question-area"">
                            <p style=""font-size: 20px; font-weight: bold; margin: 0;"">Is there a person in this image?</p>
                        </div>
                    </div>","0","main_causal_task","4","the_performance_causal","","","",""
"","","","","","html-keyboard-response","119","424817","0.0-119.0","42166007888848DC85F1A0DFDF5645C8","019ce66c-09d2-7a1b-bbe2-c4e237e0b3e1","019ce643-47c6-74a0-b3d2-7bf5651ded46","","null","
                    <div class=""stimulus-container"">
                        <img src=""images/causal_sequence/the_performance_causal/the_performance_causal_5.png"" class=""exp-image"">
                        <div class=""question-area""></div> 
                    </div>","null","","","","","","",""
"","","","","","html-button-response","120","425596","0.0-120.0","42166007888848DC85F1A0DFDF5645C8","019ce66c-09d2-7a1b-bbe2-c4e237e0b3e1","019ce643-47c6-74a0-b3d2-7bf5651ded46","","777","
                    <div class=""stimulus-container"">
                        <img src=""images/causal_sequence/the_performance_causal/the_performance_causal_5.png"" class=""exp-image"">
                        <div class=""question-area"">
                            <p style=""font-size: 20px; font-weight: bold; margin: 0;"">Is there a person in this image?</p>
                        </div>
                    </div>","0","main_causal_task","5","the_performance_causal","","","",""
"","","","","","html-keyboard-response","121","430606","0.0-121.0","42166007888848DC85F1A0DFDF5645C8","019ce66c-09d2-7a1b-bbe2-c4e237e0b3e1","019ce643-47c6-74a0-b3d2-7bf5651ded46","","null","
                    <div class=""stimulus-container"">
                        <img src=""images/causal_sequence/the_performance_causal/the_performance_causal_6.png"" class=""exp-image"">
                        <div class=""question-area""></div> 
                    </div>","null","","","","","","",""
"","","","","","html-button-response","122","431317","0.0-122.0","42166007888848DC85F1A0DFDF5645C8","019ce66c-09d2-7a1b-bbe2-c4e237e0b3e1","019ce643-47c6-74a0-b3d2-7bf5651ded46","","710","
                    <div class=""stimulus-container"">
                        <img src=""images/causal_sequence/the_performance_causal/the_performance_causal_6.png"" class=""exp-image"">
                        <div class=""question-area"">
                            <p style=""font-size: 20px; font-weight: bold; margin: 0;"">Is there a person in this image?</p>
                        </div>
                    </div>","0","main_causal_task","6","the_performance_causal","","","",""
"","","","","","html-keyboard-response","123","436325","0.0-123.0","42166007888848DC85F1A0DFDF5645C8","019ce66c-09d2-7a1b-bbe2-c4e237e0b3e1","019ce643-47c6-74a0-b3d2-7bf5651ded46","","null","
                    <div class=""stimulus-container"">
                        <img src=""images/causal_sequence/the_performance_causal/the_performance_causal_7.png"" class=""exp-image"">
                        <div class=""question-area""></div> 
                    </div>","null","","","","","","",""
"","","","","","html-button-response","124","437077","0.0-124.0","42166007888848DC85F1A0DFDF5645C8","019ce66c-09d2-7a1b-bbe2-c4e237e0b3e1","019ce643-47c6-74a0-b3d2-7bf5651ded46","","750","
                    <div class=""stimulus-container"">
                        <img src=""images/causal_sequence/the_performance_causal/the_performance_causal_7.png"" class=""exp-image"">
                        <div class=""question-area"">
                            <p style=""font-size: 20px; font-weight: bold; margin: 0;"">Is there a person in this image?</p>
                        </div>
                    </div>","0","main_causal_task","7","the_performance_causal","","","",""
"","","","","","html-keyboard-response","125","442079","0.0-125.0","42166007888848DC85F1A0DFDF5645C8","019ce66c-09d2-7a1b-bbe2-c4e237e0b3e1","019ce643-47c6-74a0-b3d2-7bf5651ded46","","null","
                    <div class=""stimulus-container"">
                        <img src=""images/causal_sequence/the_performance_causal/the_performance_causal_8.png"" class=""exp-image"">
                        <div class=""question-area""></div> 
                    </div>","null","","","","","","",""
"","","","","","html-button-response","126","443764","0.0-126.0","42166007888848DC85F1A0DFDF5645C8","019ce66c-09d2-7a1b-bbe2-c4e237e0b3e1","019ce643-47c6-74a0-b3d2-7bf5651ded46","","1683","
                    <div class=""stimulus-container"">
                        <img src=""images/causal_sequence/the_performance_causal/the_performance_causal_8.png"" class=""exp-image"">
                        <div class=""question-area"">
                            <p style=""font-size: 20px; font-weight: bold; margin: 0;"">Is there a person in this image?</p>
                        </div>
                    </div>","0","main_causal_task","8","the_performance_causal","","","",""
"","","","","","html-keyboard-response","127","448773","0.0-127.0","42166007888848DC85F1A0DFDF5645C8","019ce66c-09d2-7a1b-bbe2-c4e237e0b3e1","019ce643-47c6-74a0-b3d2-7bf5651ded46","","null","
                    <div class=""stimulus-container"">
                        <img src=""images/causal_sequence/the_performance_causal/the_performance_causal_9.png"" class=""exp-image"">
                        <div class=""question-area""></div> 
                    </div>","null","","","","","","",""
"","","","","","html-button-response","128","449697","0.0-128.0","42166007888848DC85F1A0DFDF5645C8","019ce66c-09d2-7a1b-bbe2-c4e237e0b3e1","019ce643-47c6-74a0-b3d2-7bf5651ded46","","923","
                    <div class=""stimulus-container"">
                        <img src=""images/causal_sequence/the_performance_causal/the_performance_causal_9.png"" class=""exp-image"">
                        <div class=""question-area"">
                            <p style=""font-size: 20px; font-weight: bold; margin: 0;"">Is there a person in this image?</p>
                        </div>
                    </div>","0","main_causal_task","9","the_performance_causal","","","",""
"","","","","","instructions","129","451429","0.0-129.0","42166007888848DC85F1A0DFDF5645C8","019ce66c-09d2-7a1b-bbe2-c4e237e0b3e1","019ce643-47c6-74a0-b3d2-7bf5651ded46","[{""page_index"":0,""viewing_time"":1731}]","1731","","","","","","","","",""
"","","","","","instructions","130","459755","0.0-130.0","42166007888848DC85F1A0DFDF5645C8","019ce66c-09d2-7a1b-bbe2-c4e237e0b3e1","019ce643-47c6-74a0-b3d2-7bf5651ded46","[{""page_index"":0,""viewing_time"":8325}]","8325","","","","","","","","",""
"","","","","","html-keyboard-response","131","460767","0.0-131.0","42166007888848DC85F1A0DFDF5645C8","019ce66c-09d2-7a1b-bbe2-c4e237e0b3e1","019ce643-47c6-74a0-b3d2-7bf5651ded46","","null","
        <div class=""stimulus-container"" style=""display: flex; align-items: center; justify-content: center; gap: 30px;"">
            <img src=""images/instructions/movie_1.png"" class=""exp-image"">
            <div style=""font-size: 40px; font-weight: bold; color: green; border: 5px solid green; padding: 25px; border-radius: 15px; background-color: #f0fff0;"">
                WORTH<br>$1
            </div>
        </div>
        <div class=""question-area""></div>","null","","","","","","",""
"","","","","","html-button-response","132","462647","0.0-132.0","42166007888848DC85F1A0DFDF5645C8","019ce66c-09d2-7a1b-bbe2-c4e237e0b3e1","019ce643-47c6-74a0-b3d2-7bf5651ded46","","1877","
        <div class=""stimulus-container"" style=""display: flex; align-items: center; justify-content: center; gap: 30px;"">
            <img src=""images/instructions/movie_1.png"" class=""exp-image"">
            <div style=""font-size: 40px; font-weight: bold; color: green; border: 5px solid green; padding: 25px; border-radius: 15px; background-color: #f0fff0;"">
                WORTH<br>$1
            </div>
        </div>
        <div class=""question-area"">
            <p style=""font-size: 20px; font-weight: bold; margin: 0;"">Was there a person in this image?</p>
        </div>","0","","","","","","",""
"","","","","","instructions","133","464066","0.0-133.0","42166007888848DC85F1A0DFDF5645C8","019ce66c-09d2-7a1b-bbe2-c4e237e0b3e1","019ce643-47c6-74a0-b3d2-7bf5651ded46","[{""page_index"":0,""viewing_time"":1418}]","1419","","","","","","","","",""
"","","","","","html-keyboard-response","134","474080","0.0-134.0","42166007888848DC85F1A0DFDF5645C8","019ce66c-09d2-7a1b-bbe2-c4e237e0b3e1","019ce643-47c6-74a0-b3d2-7bf5651ded46","","null","
            <div class=""stimulus-container"" style=""display: flex; align-items: center; justify-content: center; gap: 30px;"">
                <img src=""images/causal_sequence/package_causal/package_causal_4.png"" class=""exp-image"">
                <div style=""font-size: 40px; font-weight: bold; color: green; border: 5px solid green; padding: 25px; border-radius: 15px; background-color: #f0fff0;"">
                    WORTH<br>$1
                </div>
            </div>
            <div class=""question-area""></div>","null","","","","","","",""
"","","","","","html-button-response","135","475463","0.0-135.0","42166007888848DC85F1A0DFDF5645C8","019ce66c-09d2-7a1b-bbe2-c4e237e0b3e1","019ce643-47c6-74a0-b3d2-7bf5651ded46","","1380","
            <div class=""stimulus-container"" style=""display: flex; align-items: center; justify-content: center; gap: 30px;"">
                <img src=""images/causal_sequence/package_causal/package_causal_4.png"" class=""exp-image"">
                <div style=""font-size: 40px; font-weight: bold; color: green; border: 5px solid green; padding: 25px; border-radius: 15px; background-color: #f0fff0;"">
                    WORTH<br>$1
                </div>
            </div>
            <div class=""question-area"">
                <p style=""font-size: 20px; font-weight: bold; margin: 0;"">Was there a person in this image?</p>
            </div>","1","part2_value_learning","","package_causal","4","","",""
"","","","","","html-keyboard-response","136","485473","0.0-136.0","42166007888848DC85F1A0DFDF5645C8","019ce66c-09d2-7a1b-bbe2-c4e237e0b3e1","019ce643-47c6-74a0-b3d2-7bf5651ded46","","null","
            <div class=""stimulus-container"" style=""display: flex; align-items: center; justify-content: center; gap: 30px;"">
                <img src=""images/causal_sequence/saving_a_cat_causal/saving_a_cat_causal_5.png"" class=""exp-image"">
                <div style=""font-size: 40px; font-weight: bold; color: green; border: 5px solid green; padding: 25px; border-radius: 15px; background-color: #f0fff0;"">
                    WORTH<br>$1
                </div>
            </div>
            <div class=""question-area""></div>","null","","","","","","",""
"","","","","","html-button-response","137","486588","0.0-137.0","42166007888848DC85F1A0DFDF5645C8","019ce66c-09d2-7a1b-bbe2-c4e237e0b3e1","019ce643-47c6-74a0-b3d2-7bf5651ded46","","1113","
            <div class=""stimulus-container"" style=""display: flex; align-items: center; justify-content: center; gap: 30px;"">
                <img src=""images/causal_sequence/saving_a_cat_causal/saving_a_cat_causal_5.png"" class=""exp-image"">
                <div style=""font-size: 40px; font-weight: bold; color: green; border: 5px solid green; padding: 25px; border-radius: 15px; background-color: #f0fff0;"">
                    WORTH<br>$1
                </div>
            </div>
            <div class=""question-area"">
                <p style=""font-size: 20px; font-weight: bold; margin: 0;"">Was there a person in this image?</p>
            </div>","0","part2_value_learning","","saving_a_cat_causal","5","","",""
"","","","","","html-keyboard-response","138","496604","0.0-138.0","42166007888848DC85F1A0DFDF5645C8","019ce66c-09d2-7a1b-bbe2-c4e237e0b3e1","019ce643-47c6-74a0-b3d2-7bf5651ded46","","null","
            <div class=""stimulus-container"" style=""display: flex; align-items: center; justify-content: center; gap: 30px;"">
                <img src=""images/causal_sequence/the_performance_causal/the_performance_causal_6.png"" class=""exp-image"">
                <div style=""font-size: 40px; font-weight: bold; color: green; border: 5px solid green; padding: 25px; border-radius: 15px; background-color: #f0fff0;"">
                    WORTH<br>$1
                </div>
            </div>
            <div class=""question-area""></div>","null","","","","","","",""
"","","","","","html-button-response","139","497536","0.0-139.0","42166007888848DC85F1A0DFDF5645C8","019ce66c-09d2-7a1b-bbe2-c4e237e0b3e1","019ce643-47c6-74a0-b3d2-7bf5651ded46","","930","
            <div class=""stimulus-container"" style=""display: flex; align-items: center; justify-content: center; gap: 30px;"">
                <img src=""images/causal_sequence/the_performance_causal/the_performance_causal_6.png"" class=""exp-image"">
                <div style=""font-size: 40px; font-weight: bold; color: green; border: 5px solid green; padding: 25px; border-radius: 15px; background-color: #f0fff0;"">
                    WORTH<br>$1
                </div>
            </div>
            <div class=""question-area"">
                <p style=""font-size: 20px; font-weight: bold; margin: 0;"">Was there a person in this image?</p>
            </div>","0","part2_value_learning","","the_performance_causal","6","","",""
"","","","","","html-keyboard-response","140","507545","0.0-140.0","42166007888848DC85F1A0DFDF5645C8","019ce66c-09d2-7a1b-bbe2-c4e237e0b3e1","019ce643-47c6-74a0-b3d2-7bf5651ded46","","null","
            <div class=""stimulus-container"" style=""display: flex; align-items: center; justify-content: center; gap: 30px;"">
                <img src=""images/causal_sequence/museum_causal/museum_causal_5.png"" class=""exp-image"">
                <div style=""font-size: 40px; font-weight: bold; color: green; border: 5px solid green; padding: 25px; border-radius: 15px; background-color: #f0fff0;"">
                    WORTH<br>$1
                </div>
            </div>
            <div class=""question-area""></div>","null","","","","","","",""
"","","","","","html-button-response","141","508581","0.0-141.0","42166007888848DC85F1A0DFDF5645C8","019ce66c-09d2-7a1b-bbe2-c4e237e0b3e1","019ce643-47c6-74a0-b3d2-7bf5651ded46","","1034","
            <div class=""stimulus-container"" style=""display: flex; align-items: center; justify-content: center; gap: 30px;"">
                <img src=""images/causal_sequence/museum_causal/museum_causal_5.png"" class=""exp-image"">
                <div style=""font-size: 40px; font-weight: bold; color: green; border: 5px solid green; padding: 25px; border-radius: 15px; background-color: #f0fff0;"">
                    WORTH<br>$1
                </div>
            </div>
            <div class=""question-area"">
                <p style=""font-size: 20px; font-weight: bold; margin: 0;"">Was there a person in this image?</p>
            </div>","0","part2_value_learning","","museum_causal","5","","",""
"","","","","","html-keyboard-response","142","518588","0.0-142.0","42166007888848DC85F1A0DFDF5645C8","019ce66c-09d2-7a1b-bbe2-c4e237e0b3e1","019ce643-47c6-74a0-b3d2-7bf5651ded46","","null","
            <div class=""stimulus-container"" style=""display: flex; align-items: center; justify-content: center; gap: 30px;"">
                <img src=""images/causal_sequence/coin_causal/coin_causal_5.png"" class=""exp-image"">
                <div style=""font-size: 40px; font-weight: bold; color: green; border: 5px solid green; padding: 25px; border-radius: 15px; background-color: #f0fff0;"">
                    WORTH<br>$1
                </div>
            </div>
            <div class=""question-area""></div>","null","","","","","","",""
"","","","","","html-button-response","143","519651","0.0-143.0","42166007888848DC85F1A0DFDF5645C8","019ce66c-09d2-7a1b-bbe2-c4e237e0b3e1","019ce643-47c6-74a0-b3d2-7bf5651ded46","","1062","
            <div class=""stimulus-container"" style=""display: flex; align-items: center; justify-content: center; gap: 30px;"">
                <img src=""images/causal_sequence/coin_causal/coin_causal_5.png"" class=""exp-image"">
                <div style=""font-size: 40px; font-weight: bold; color: green; border: 5px solid green; padding: 25px; border-radius: 15px; background-color: #f0fff0;"">
                    WORTH<br>$1
                </div>
            </div>
            <div class=""question-area"">
                <p style=""font-size: 20px; font-weight: bold; margin: 0;"">Was there a person in this image?</p>
            </div>","0","part2_value_learning","","coin_causal","5","","",""
"","","","","","html-keyboard-response","144","529662","0.0-144.0","42166007888848DC85F1A0DFDF5645C8","019ce66c-09d2-7a1b-bbe2-c4e237e0b3e1","019ce643-47c6-74a0-b3d2-7bf5651ded46","","null","
            <div class=""stimulus-container"" style=""display: flex; align-items: center; justify-content: center; gap: 30px;"">
                <img src=""images/causal_sequence/dog_causal/dog_causal_4.png"" class=""exp-image"">
                <div style=""font-size: 40px; font-weight: bold; color: green; border: 5px solid green; padding: 25px; border-radius: 15px; background-color: #f0fff0;"">
                    WORTH<br>$1
                </div>
            </div>
            <div class=""question-area""></div>","null","","","","","","",""
"","","","","","html-button-response","145","530511","0.0-145.0","42166007888848DC85F1A0DFDF5645C8","019ce66c-09d2-7a1b-bbe2-c4e237e0b3e1","019ce643-47c6-74a0-b3d2-7bf5651ded46","","847","
            <div class=""stimulus-container"" style=""display: flex; align-items: center; justify-content: center; gap: 30px;"">
                <img src=""images/causal_sequence/dog_causal/dog_causal_4.png"" class=""exp-image"">
                <div style=""font-size: 40px; font-weight: bold; color: green; border: 5px solid green; padding: 25px; border-radius: 15px; background-color: #f0fff0;"">
                    WORTH<br>$1
                </div>
            </div>
            <div class=""question-area"">
                <p style=""font-size: 20px; font-weight: bold; margin: 0;"">Was there a person in this image?</p>
            </div>","0","part2_value_learning","","dog_causal","4","","",""
"","","","","","instructions","146","531923","0.0-146.0","42166007888848DC85F1A0DFDF5645C8","019ce66c-09d2-7a1b-bbe2-c4e237e0b3e1","019ce643-47c6-74a0-b3d2-7bf5651ded46","[{""page_index"":0,""viewing_time"":1411}]","1411","","","","","","","","",""
"","","","","","instructions","147","534024","0.0-147.0","42166007888848DC85F1A0DFDF5645C8","019ce66c-09d2-7a1b-bbe2-c4e237e0b3e1","019ce643-47c6-74a0-b3d2-7bf5651ded46","[{""page_index"":0,""viewing_time"":2099}]","2100","","","","","","","","",""
"","","","","","html-keyboard-response","148","544031","0.0-148.0-0.0","42166007888848DC85F1A0DFDF5645C8","019ce66c-09d2-7a1b-bbe2-c4e237e0b3e1","019ce643-47c6-74a0-b3d2-7bf5651ded46","","null","
                        <div style=""font-family: Arial; margin-bottom: 20px;""><h3>Which image is more valuable?</h3></div>
                        <div class=""stimulus-container"" style=""display: flex; width: 1100px; justify-content: center; gap: 50px;"">
                            <img src=""images/causal_sequence/coin_causal/coin_causal_6.png"" class=""exp-image"">
                            <img src=""images/causal_sequence/coin_causal/coin_causal_4.png"" class=""exp-image"">
                        </div>","null","","","","","","",""
"","","","","","html-button-response","149","545172","0.0-148.0-1.0","42166007888848DC85F1A0DFDF5645C8","019ce66c-09d2-7a1b-bbe2-c4e237e0b3e1","019ce643-47c6-74a0-b3d2-7bf5651ded46","","1138","
                        <div style=""font-family: Arial; margin-bottom: 20px;""><h3>Which image is more valuable?</h3></div>
                        <div class=""stimulus-container"" style=""display: flex; width: 1100px; justify-content: center; gap: 50px;"">
                            <img src=""images/causal_sequence/coin_causal/coin_causal_6.png"" class=""exp-image"">
                            <img src=""images/causal_sequence/coin_causal/coin_causal_4.png"" class=""exp-image"">
                        </div>","0","part3_final_choice","","coin_causal","","5","6","1"
"","","","","","html-keyboard-response","150","555180","0.0-149.0-0.0","42166007888848DC85F1A0DFDF5645C8","019ce66c-09d2-7a1b-bbe2-c4e237e0b3e1","019ce643-47c6-74a0-b3d2-7bf5651ded46","","null","
                        <div style=""font-family: Arial; margin-bottom: 20px;""><h3>Which image is more valuable?</h3></div>
                        <div class=""stimulus-container"" style=""display: flex; width: 1100px; justify-content: center; gap: 50px;"">
                            <img src=""images/causal_sequence/package_causal/package_causal_3.png"" class=""exp-image"">
                            <img src=""images/causal_sequence/package_causal/package_causal_5.png"" class=""exp-image"">
                        </div>","null","","","","","","",""
"","","","","","html-button-response","151","556119","0.0-149.0-1.0","42166007888848DC85F1A0DFDF5645C8","019ce66c-09d2-7a1b-bbe2-c4e237e0b3e1","019ce643-47c6-74a0-b3d2-7bf5651ded46","","937","
                        <div style=""font-family: Arial; margin-bottom: 20px;""><h3>Which image is more valuable?</h3></div>
                        <div class=""stimulus-container"" style=""display: flex; width: 1100px; justify-content: center; gap: 50px;"">
                            <img src=""images/causal_sequence/package_causal/package_causal_3.png"" class=""exp-image"">
                            <img src=""images/causal_sequence/package_causal/package_causal_5.png"" class=""exp-image"">
                        </div>","1","part3_final_choice","","package_causal","","4","5","1"
"","","","","","html-keyboard-response","152","566133","0.0-150.0-0.0","42166007888848DC85F1A0DFDF5645C8","019ce66c-09d2-7a1b-bbe2-c4e237e0b3e1","019ce643-47c6-74a0-b3d2-7bf5651ded46","","null","
                        <div style=""font-family: Arial; margin-bottom: 20px;""><h3>Which image is more valuable?</h3></div>
                        <div class=""stimulus-container"" style=""display: flex; width: 1100px; justify-content: center; gap: 50px;"">
                            <img src=""images/causal_sequence/museum_causal/museum_causal_6.png"" class=""exp-image"">
                            <img src=""images/causal_sequence/museum_causal/museum_causal_4.png"" class=""exp-image"">
                        </div>","null","","","","","","",""
"","","","","","html-button-response","153","567862","0.0-150.0-1.0","42166007888848DC85F1A0DFDF5645C8","019ce66c-09d2-7a1b-bbe2-c4e237e0b3e1","019ce643-47c6-74a0-b3d2-7bf5651ded46","","1727","
                        <div style=""font-family: Arial; margin-bottom: 20px;""><h3>Which image is more valuable?</h3></div>
                        <div class=""stimulus-container"" style=""display: flex; width: 1100px; justify-content: center; gap: 50px;"">
                            <img src=""images/causal_sequence/museum_causal/museum_causal_6.png"" class=""exp-image"">
                            <img src=""images/causal_sequence/museum_causal/museum_causal_4.png"" class=""exp-image"">
                        </div>","1","part3_final_choice","","museum_causal","","5","4","-1"
"","","","","","html-keyboard-response","154","577876","0.0-151.0-0.0","42166007888848DC85F1A0DFDF5645C8","019ce66c-09d2-7a1b-bbe2-c4e237e0b3e1","019ce643-47c6-74a0-b3d2-7bf5651ded46","","null","
                        <div style=""font-family: Arial; margin-bottom: 20px;""><h3>Which image is more valuable?</h3></div>
                        <div class=""stimulus-container"" style=""display: flex; width: 1100px; justify-content: center; gap: 50px;"">
                            <img src=""images/causal_sequence/saving_a_cat_causal/saving_a_cat_causal_6.png"" class=""exp-image"">
                            <img src=""images/causal_sequence/saving_a_cat_causal/saving_a_cat_causal_4.png"" class=""exp-image"">
                        </div>","null","","","","","","",""
"","","","","","html-button-response","155","578973","0.0-151.0-1.0","42166007888848DC85F1A0DFDF5645C8","019ce66c-09d2-7a1b-bbe2-c4e237e0b3e1","019ce643-47c6-74a0-b3d2-7bf5651ded46","","1096","
                        <div style=""font-family: Arial; margin-bottom: 20px;""><h3>Which image is more valuable?</h3></div>
                        <div class=""stimulus-container"" style=""display: flex; width: 1100px; justify-content: center; gap: 50px;"">
                            <img src=""images/causal_sequence/saving_a_cat_causal/saving_a_cat_causal_6.png"" class=""exp-image"">
                            <img src=""images/causal_sequence/saving_a_cat_causal/saving_a_cat_causal_4.png"" class=""exp-image"">
                        </div>","1","part3_final_choice","","saving_a_cat_causal","","5","4","-1"
"","","","","","html-keyboard-response","156","588989","0.0-152.0-0.0","42166007888848DC85F1A0DFDF5645C8","019ce66c-09d2-7a1b-bbe2-c4e237e0b3e1","019ce643-47c6-74a0-b3d2-7bf5651ded46","","null","
                        <div style=""font-family: Arial; margin-bottom: 20px;""><h3>Which image is more valuable?</h3></div>
                        <div class=""stimulus-container"" style=""display: flex; width: 1100px; justify-content: center; gap: 50px;"">
                            <img src=""images/causal_sequence/the_performance_causal/the_performance_causal_5.png"" class=""exp-image"">
                            <img src=""images/causal_sequence/the_performance_causal/the_performance_causal_7.png"" class=""exp-image"">
                        </div>","null","","","","","","",""
"","","","","","html-button-response","157","589762","0.0-152.0-1.0","42166007888848DC85F1A0DFDF5645C8","019ce66c-09d2-7a1b-bbe2-c4e237e0b3e1","019ce643-47c6-74a0-b3d2-7bf5651ded46","","770","
                        <div style=""font-family: Arial; margin-bottom: 20px;""><h3>Which image is more valuable?</h3></div>
                        <div class=""stimulus-container"" style=""display: flex; width: 1100px; justify-content: center; gap: 50px;"">
                            <img src=""images/causal_sequence/the_performance_causal/the_performance_causal_5.png"" class=""exp-image"">
                            <img src=""images/causal_sequence/the_performance_causal/the_performance_causal_7.png"" class=""exp-image"">
                        </div>","1","part3_final_choice","","the_performance_causal","","6","7","1"
"","","","","","html-keyboard-response","158","599770","0.0-153.0-0.0","42166007888848DC85F1A0DFDF5645C8","019ce66c-09d2-7a1b-bbe2-c4e237e0b3e1","019ce643-47c6-74a0-b3d2-7bf5651ded46","","null","
                        <div style=""font-family: Arial; margin-bottom: 20px;""><h3>Which image is more valuable?</h3></div>
                        <div class=""stimulus-container"" style=""display: flex; width: 1100px; justify-content: center; gap: 50px;"">
                            <img src=""images/causal_sequence/dog_causal/dog_causal_3.png"" class=""exp-image"">
                            <img src=""images/causal_sequence/dog_causal/dog_causal_5.png"" class=""exp-image"">
                        </div>","null","","","","","","",""
"","","","","","html-button-response","159","600628","0.0-153.0-1.0","42166007888848DC85F1A0DFDF5645C8","019ce66c-09d2-7a1b-bbe2-c4e237e0b3e1","019ce643-47c6-74a0-b3d2-7bf5651ded46","","856","
                        <div style=""font-family: Arial; margin-bottom: 20px;""><h3>Which image is more valuable?</h3></div>
                        <div class=""stimulus-container"" style=""display: flex; width: 1100px; justify-content: center; gap: 50px;"">
                            <img src=""images/causal_sequence/dog_causal/dog_causal_3.png"" class=""exp-image"">
                            <img src=""images/causal_sequence/dog_causal/dog_causal_5.png"" class=""exp-image"">
                        </div>","1","part3_final_choice","","dog_causal","","4","5","1"
"","","","","","survey-text","160","669834","0.0-154.0","42166007888848DC85F1A0DFDF5645C8","019ce66c-09d2-7a1b-bbe2-c4e237e0b3e1","019ce643-47c6-74a0-b3d2-7bf5651ded46","","69185","","{""gender"":""MALE"",""age"":""24"",""decision_strategy"":""Intuition"",""consistency_check"":""my reasoning changed because some acts were priceless while some had more worths monetrialy""}","demographics_and_strategy","","","","","",""
"","","","","","instructions","161","677267","0.0-155.0","42166007888848DC85F1A0DFDF5645C8","019ce66c-09d2-7a1b-bbe2-c4e237e0b3e1","019ce643-47c6-74a0-b3d2-7bf5651ded46","[{""page_index"":0,""viewing_time"":7432}]","7432","","","","","","","","",""
