"success","timeout","failed_images","failed_audio","failed_video","trial_type","trial_index","time_elapsed","internal_node_id","subject_id","study_id","session_id","view_history","rt","stimulus","response","task","image_index","folder","sequence_type","presentation_order","valuable_image_index","reward_type","distance_from_x","valuable_folder","neutral_folder","chosen_valuable","v_index","n_index"
"true","false","[]","[]","[]","preload","0","6076","0.0-0.0","0C42DD7B78F1441386028E2EB9991CA3","019d607a-25a9-7833-8590-b7371815d909","019d606a-43fe-787b-844e-eb4d01ea1402","","","","","","","","","","","","","","","","",""
"","","","","","instructions","1","25262","0.0-1.0","0C42DD7B78F1441386028E2EB9991CA3","019d607a-25a9-7833-8590-b7371815d909","019d606a-43fe-787b-844e-eb4d01ea1402","[{""page_index"":0,""viewing_time"":19185}]","19186","","","","","","","","","","","","","","",""
"","","","","","instructions","2","33888","0.0-2.0","0C42DD7B78F1441386028E2EB9991CA3","019d607a-25a9-7833-8590-b7371815d909","019d606a-43fe-787b-844e-eb4d01ea1402","[{""page_index"":0,""viewing_time"":8625}]","8626","","","","","","","","","","","","","","",""
"true","","","","","fullscreen","3","36220","0.0-3.0","0C42DD7B78F1441386028E2EB9991CA3","019d607a-25a9-7833-8590-b7371815d909","019d606a-43fe-787b-844e-eb4d01ea1402","","1328","","","","","","","","","","","","","","",""
"","","","","","instructions","4","41867","0.0-4.0","0C42DD7B78F1441386028E2EB9991CA3","019d607a-25a9-7833-8590-b7371815d909","019d606a-43fe-787b-844e-eb4d01ea1402","[{""page_index"":0,""viewing_time"":5646}]","5646","","","","","","","","","","","","","","",""
"","","","","","instructions","5","141033","0.0-5.0","0C42DD7B78F1441386028E2EB9991CA3","019d607a-25a9-7833-8590-b7371815d909","019d606a-43fe-787b-844e-eb4d01ea1402","[{""page_index"":0,""viewing_time"":99166}]","99166","","","","","","","","","","","","","","",""
"","","","","","html-keyboard-response","6","145037","0.0-6.0","0C42DD7B78F1441386028E2EB9991CA3","019d607a-25a9-7833-8590-b7371815d909","019d606a-43fe-787b-844e-eb4d01ea1402","","null","
                <div class=""stimulus-container"">
                    <img src=""images/instructions/movie_1.png"" class=""exp-image"">
                    <div class=""question-area""></div> 
                </div>","null","","","","","","","","","","","","",""
"","","","","","html-button-response","7","148040","0.0-7.0","0C42DD7B78F1441386028E2EB9991CA3","019d607a-25a9-7833-8590-b7371815d909","019d606a-43fe-787b-844e-eb4d01ea1402","","null","
                <div class=""stimulus-container"">
                    <img src=""images/instructions/movie_1.png"" class=""exp-image"">
                    <div class=""question-area"">
                        <p style=""font-size: 20px; font-weight: bold; margin: 0;"">Was there a person in this image?</p>
                    </div>
                </div>","null","example_question","1","","","","","","","","","","",""
"","","","","","html-keyboard-response","8","152042","0.0-8.0","0C42DD7B78F1441386028E2EB9991CA3","019d607a-25a9-7833-8590-b7371815d909","019d606a-43fe-787b-844e-eb4d01ea1402","","null","
                <div class=""stimulus-container"">
                    <img src=""images/instructions/movie_2.png"" class=""exp-image"">
                    <div class=""question-area""></div> 
                </div>","null","","","","","","","","","","","","",""
"","","","","","html-button-response","9","153423","0.0-9.0","0C42DD7B78F1441386028E2EB9991CA3","019d607a-25a9-7833-8590-b7371815d909","019d606a-43fe-787b-844e-eb4d01ea1402","","1379","
                <div class=""stimulus-container"">
                    <img src=""images/instructions/movie_2.png"" class=""exp-image"">
                    <div class=""question-area"">
                        <p style=""font-size: 20px; font-weight: bold; margin: 0;"">Was there a person in this image?</p>
                    </div>
                </div>","1","example_question","2","","","","","","","","","","",""
"","","","","","html-keyboard-response","10","157426","0.0-10.0","0C42DD7B78F1441386028E2EB9991CA3","019d607a-25a9-7833-8590-b7371815d909","019d606a-43fe-787b-844e-eb4d01ea1402","","null","
                <div class=""stimulus-container"">
                    <img src=""images/instructions/movie_3.png"" class=""exp-image"">
                    <div class=""question-area""></div> 
                </div>","null","","","","","","","","","","","","",""
"","","","","","html-button-response","11","158263","0.0-11.0","0C42DD7B78F1441386028E2EB9991CA3","019d607a-25a9-7833-8590-b7371815d909","019d606a-43fe-787b-844e-eb4d01ea1402","","836","
                <div class=""stimulus-container"">
                    <img src=""images/instructions/movie_3.png"" class=""exp-image"">
                    <div class=""question-area"">
                        <p style=""font-size: 20px; font-weight: bold; margin: 0;"">Was there a person in this image?</p>
                    </div>
                </div>","0","example_question","3","","","","","","","","","","",""
"","","","","","html-keyboard-response","12","162266","0.0-12.0","0C42DD7B78F1441386028E2EB9991CA3","019d607a-25a9-7833-8590-b7371815d909","019d606a-43fe-787b-844e-eb4d01ea1402","","null","
                <div class=""stimulus-container"">
                    <img src=""images/instructions/movie_4.png"" class=""exp-image"">
                    <div class=""question-area""></div> 
                </div>","null","","","","","","","","","","","","",""
"","","","","","html-button-response","13","163405","0.0-13.0","0C42DD7B78F1441386028E2EB9991CA3","019d607a-25a9-7833-8590-b7371815d909","019d606a-43fe-787b-844e-eb4d01ea1402","","1138","
                <div class=""stimulus-container"">
                    <img src=""images/instructions/movie_4.png"" class=""exp-image"">
                    <div class=""question-area"">
                        <p style=""font-size: 20px; font-weight: bold; margin: 0;"">Was there a person in this image?</p>
                    </div>
                </div>","0","example_question","4","","","","","","","","","","",""
"","","","","","instructions","14","165671","0.0-14.0","0C42DD7B78F1441386028E2EB9991CA3","019d607a-25a9-7833-8590-b7371815d909","019d606a-43fe-787b-844e-eb4d01ea1402","[{""page_index"":0,""viewing_time"":2265}]","2266","","","","","","","","","","","","","","",""
"","","","","","instructions","15","168930","0.0-15.0","0C42DD7B78F1441386028E2EB9991CA3","019d607a-25a9-7833-8590-b7371815d909","019d606a-43fe-787b-844e-eb4d01ea1402","[{""page_index"":0,""viewing_time"":3257}]","3258","","","","","","","","","","","","","","",""
"","","","","","html-keyboard-response","16","173932","0.0-16.0","0C42DD7B78F1441386028E2EB9991CA3","019d607a-25a9-7833-8590-b7371815d909","019d606a-43fe-787b-844e-eb4d01ea1402","","null","<div style=""background-color: white; width: 100vw; height: 100vh;""></div>","null","","","","","","","","","","","","",""
"","","","","","html-keyboard-response","17","178936","0.0-17.0","0C42DD7B78F1441386028E2EB9991CA3","019d607a-25a9-7833-8590-b7371815d909","019d606a-43fe-787b-844e-eb4d01ea1402","","null","
                <div class=""stimulus-container"">
                    <img src=""images/semantic_sequence/self_care_activities_semantic/self_care_activities_semantic_1.png"" class=""exp-image"">
                    <div class=""question-area""></div> 
                </div>","null","","","","","","","","","","","","",""
"","","","","","html-button-response","18","179788","0.0-18.0","0C42DD7B78F1441386028E2EB9991CA3","019d607a-25a9-7833-8590-b7371815d909","019d606a-43fe-787b-844e-eb4d01ea1402","","851","
                <div class=""stimulus-container"">
                    <img src=""images/semantic_sequence/self_care_activities_semantic/self_care_activities_semantic_1.png"" class=""exp-image"">
                    <div class=""question-area"">
                        <p style=""font-size: 20px; font-weight: bold; margin: 0;"">Is there a person in this image?</p>
                    </div>
                </div>","0","main_experiment_trial","1","self_care_activities_semantic","semantic_sequence","chronological","","","","","","","",""
"","","","","","html-keyboard-response","19","184791","0.0-19.0","0C42DD7B78F1441386028E2EB9991CA3","019d607a-25a9-7833-8590-b7371815d909","019d606a-43fe-787b-844e-eb4d01ea1402","","null","
                <div class=""stimulus-container"">
                    <img src=""images/semantic_sequence/self_care_activities_semantic/self_care_activities_semantic_2.png"" class=""exp-image"">
                    <div class=""question-area""></div> 
                </div>","null","","","","","","","","","","","","",""
"","","","","","html-button-response","20","185938","0.0-20.0","0C42DD7B78F1441386028E2EB9991CA3","019d607a-25a9-7833-8590-b7371815d909","019d606a-43fe-787b-844e-eb4d01ea1402","","1146","
                <div class=""stimulus-container"">
                    <img src=""images/semantic_sequence/self_care_activities_semantic/self_care_activities_semantic_2.png"" class=""exp-image"">
                    <div class=""question-area"">
                        <p style=""font-size: 20px; font-weight: bold; margin: 0;"">Is there a person in this image?</p>
                    </div>
                </div>","0","main_experiment_trial","2","self_care_activities_semantic","semantic_sequence","chronological","","","","","","","",""
"","","","","","html-keyboard-response","21","190941","0.0-21.0","0C42DD7B78F1441386028E2EB9991CA3","019d607a-25a9-7833-8590-b7371815d909","019d606a-43fe-787b-844e-eb4d01ea1402","","null","
                <div class=""stimulus-container"">
                    <img src=""images/semantic_sequence/self_care_activities_semantic/self_care_activities_semantic_3.png"" class=""exp-image"">
                    <div class=""question-area""></div> 
                </div>","null","","","","","","","","","","","","",""
"","","","","","html-button-response","22","192751","0.0-22.0","0C42DD7B78F1441386028E2EB9991CA3","019d607a-25a9-7833-8590-b7371815d909","019d606a-43fe-787b-844e-eb4d01ea1402","","1808","
                <div class=""stimulus-container"">
                    <img src=""images/semantic_sequence/self_care_activities_semantic/self_care_activities_semantic_3.png"" class=""exp-image"">
                    <div class=""question-area"">
                        <p style=""font-size: 20px; font-weight: bold; margin: 0;"">Is there a person in this image?</p>
                    </div>
                </div>","0","main_experiment_trial","3","self_care_activities_semantic","semantic_sequence","chronological","","","","","","","",""
"","","","","","html-keyboard-response","23","197754","0.0-23.0","0C42DD7B78F1441386028E2EB9991CA3","019d607a-25a9-7833-8590-b7371815d909","019d606a-43fe-787b-844e-eb4d01ea1402","","null","
                <div class=""stimulus-container"">
                    <img src=""images/semantic_sequence/self_care_activities_semantic/self_care_activities_semantic_4.png"" class=""exp-image"">
                    <div class=""question-area""></div> 
                </div>","null","","","","","","","","","","","","",""
"","","","","","html-button-response","24","200142","0.0-24.0","0C42DD7B78F1441386028E2EB9991CA3","019d607a-25a9-7833-8590-b7371815d909","019d606a-43fe-787b-844e-eb4d01ea1402","","2387","
                <div class=""stimulus-container"">
                    <img src=""images/semantic_sequence/self_care_activities_semantic/self_care_activities_semantic_4.png"" class=""exp-image"">
                    <div class=""question-area"">
                        <p style=""font-size: 20px; font-weight: bold; margin: 0;"">Is there a person in this image?</p>
                    </div>
                </div>","1","main_experiment_trial","4","self_care_activities_semantic","semantic_sequence","chronological","","","","","","","",""
"","","","","","html-keyboard-response","25","205145","0.0-25.0","0C42DD7B78F1441386028E2EB9991CA3","019d607a-25a9-7833-8590-b7371815d909","019d606a-43fe-787b-844e-eb4d01ea1402","","null","
                <div class=""stimulus-container"">
                    <img src=""images/semantic_sequence/self_care_activities_semantic/self_care_activities_semantic_5.png"" class=""exp-image"">
                    <div class=""question-area""></div> 
                </div>","null","","","","","","","","","","","","",""
"","","","","","html-button-response","26","206592","0.0-26.0","0C42DD7B78F1441386028E2EB9991CA3","019d607a-25a9-7833-8590-b7371815d909","019d606a-43fe-787b-844e-eb4d01ea1402","","1447","
                <div class=""stimulus-container"">
                    <img src=""images/semantic_sequence/self_care_activities_semantic/self_care_activities_semantic_5.png"" class=""exp-image"">
                    <div class=""question-area"">
                        <p style=""font-size: 20px; font-weight: bold; margin: 0;"">Is there a person in this image?</p>
                    </div>
                </div>","0","main_experiment_trial","5","self_care_activities_semantic","semantic_sequence","chronological","","","","","","","",""
"","","","","","html-keyboard-response","27","211595","0.0-27.0","0C42DD7B78F1441386028E2EB9991CA3","019d607a-25a9-7833-8590-b7371815d909","019d606a-43fe-787b-844e-eb4d01ea1402","","null","
                <div class=""stimulus-container"">
                    <img src=""images/semantic_sequence/self_care_activities_semantic/self_care_activities_semantic_6.png"" class=""exp-image"">
                    <div class=""question-area""></div> 
                </div>","null","","","","","","","","","","","","",""
"","","","","","html-button-response","28","212417","0.0-28.0","0C42DD7B78F1441386028E2EB9991CA3","019d607a-25a9-7833-8590-b7371815d909","019d606a-43fe-787b-844e-eb4d01ea1402","","821","
                <div class=""stimulus-container"">
                    <img src=""images/semantic_sequence/self_care_activities_semantic/self_care_activities_semantic_6.png"" class=""exp-image"">
                    <div class=""question-area"">
                        <p style=""font-size: 20px; font-weight: bold; margin: 0;"">Is there a person in this image?</p>
                    </div>
                </div>","1","main_experiment_trial","6","self_care_activities_semantic","semantic_sequence","chronological","","","","","","","",""
"","","","","","html-keyboard-response","29","217419","0.0-29.0","0C42DD7B78F1441386028E2EB9991CA3","019d607a-25a9-7833-8590-b7371815d909","019d606a-43fe-787b-844e-eb4d01ea1402","","null","
                <div class=""stimulus-container"">
                    <img src=""images/semantic_sequence/self_care_activities_semantic/self_care_activities_semantic_7.png"" class=""exp-image"">
                    <div class=""question-area""></div> 
                </div>","null","","","","","","","","","","","","",""
"","","","","","html-button-response","30","218297","0.0-30.0","0C42DD7B78F1441386028E2EB9991CA3","019d607a-25a9-7833-8590-b7371815d909","019d606a-43fe-787b-844e-eb4d01ea1402","","876","
                <div class=""stimulus-container"">
                    <img src=""images/semantic_sequence/self_care_activities_semantic/self_care_activities_semantic_7.png"" class=""exp-image"">
                    <div class=""question-area"">
                        <p style=""font-size: 20px; font-weight: bold; margin: 0;"">Is there a person in this image?</p>
                    </div>
                </div>","0","main_experiment_trial","7","self_care_activities_semantic","semantic_sequence","chronological","","","","","","","",""
"","","","","","html-keyboard-response","31","223300","0.0-31.0","0C42DD7B78F1441386028E2EB9991CA3","019d607a-25a9-7833-8590-b7371815d909","019d606a-43fe-787b-844e-eb4d01ea1402","","null","
                <div class=""stimulus-container"">
                    <img src=""images/semantic_sequence/self_care_activities_semantic/self_care_activities_semantic_8.png"" class=""exp-image"">
                    <div class=""question-area""></div> 
                </div>","null","","","","","","","","","","","","",""
"","","","","","html-button-response","32","224388","0.0-32.0","0C42DD7B78F1441386028E2EB9991CA3","019d607a-25a9-7833-8590-b7371815d909","019d606a-43fe-787b-844e-eb4d01ea1402","","1087","
                <div class=""stimulus-container"">
                    <img src=""images/semantic_sequence/self_care_activities_semantic/self_care_activities_semantic_8.png"" class=""exp-image"">
                    <div class=""question-area"">
                        <p style=""font-size: 20px; font-weight: bold; margin: 0;"">Is there a person in this image?</p>
                    </div>
                </div>","0","main_experiment_trial","8","self_care_activities_semantic","semantic_sequence","chronological","","","","","","","",""
"","","","","","html-keyboard-response","33","229391","0.0-33.0","0C42DD7B78F1441386028E2EB9991CA3","019d607a-25a9-7833-8590-b7371815d909","019d606a-43fe-787b-844e-eb4d01ea1402","","null","
                <div class=""stimulus-container"">
                    <img src=""images/semantic_sequence/self_care_activities_semantic/self_care_activities_semantic_9.png"" class=""exp-image"">
                    <div class=""question-area""></div> 
                </div>","null","","","","","","","","","","","","",""
"","","","","","html-button-response","34","229971","0.0-34.0","0C42DD7B78F1441386028E2EB9991CA3","019d607a-25a9-7833-8590-b7371815d909","019d606a-43fe-787b-844e-eb4d01ea1402","","579","
                <div class=""stimulus-container"">
                    <img src=""images/semantic_sequence/self_care_activities_semantic/self_care_activities_semantic_9.png"" class=""exp-image"">
                    <div class=""question-area"">
                        <p style=""font-size: 20px; font-weight: bold; margin: 0;"">Is there a person in this image?</p>
                    </div>
                </div>","0","main_experiment_trial","9","self_care_activities_semantic","semantic_sequence","chronological","","","","","","","",""
"","","","","","html-keyboard-response","35","234973","0.0-35.0","0C42DD7B78F1441386028E2EB9991CA3","019d607a-25a9-7833-8590-b7371815d909","019d606a-43fe-787b-844e-eb4d01ea1402","","null","
                <div class=""stimulus-container"">
                    <img src=""images/semantic_sequence/self_care_activities_semantic/self_care_activities_semantic_ten.png"" class=""exp-image"">
                    <div class=""question-area""></div> 
                </div>","null","","","","","","","","","","","","",""
"","","","","","html-button-response","36","235540","0.0-36.0","0C42DD7B78F1441386028E2EB9991CA3","019d607a-25a9-7833-8590-b7371815d909","019d606a-43fe-787b-844e-eb4d01ea1402","","566","
                <div class=""stimulus-container"">
                    <img src=""images/semantic_sequence/self_care_activities_semantic/self_care_activities_semantic_ten.png"" class=""exp-image"">
                    <div class=""question-area"">
                        <p style=""font-size: 20px; font-weight: bold; margin: 0;"">Is there a person in this image?</p>
                    </div>
                </div>","0","main_experiment_trial","ten","self_care_activities_semantic","semantic_sequence","chronological","","","","","","","",""
"","","","","","html-keyboard-response","37","240542","0.0-37.0","0C42DD7B78F1441386028E2EB9991CA3","019d607a-25a9-7833-8590-b7371815d909","019d606a-43fe-787b-844e-eb4d01ea1402","","null","<div style=""background-color: white; width: 100vw; height: 100vh;""></div>","null","","","","","","","","","","","","",""
"","","","","","html-keyboard-response","38","245545","0.0-38.0","0C42DD7B78F1441386028E2EB9991CA3","019d607a-25a9-7833-8590-b7371815d909","019d606a-43fe-787b-844e-eb4d01ea1402","","null","
                <div class=""stimulus-container"">
                    <img src=""images/schematic_sequence/restaurant_scheme/restaurant_scheme_1.png"" class=""exp-image"">
                    <div class=""question-area""></div> 
                </div>","null","","","","","","","","","","","","",""
"","","","","","html-button-response","39","246439","0.0-39.0","0C42DD7B78F1441386028E2EB9991CA3","019d607a-25a9-7833-8590-b7371815d909","019d606a-43fe-787b-844e-eb4d01ea1402","","892","
                <div class=""stimulus-container"">
                    <img src=""images/schematic_sequence/restaurant_scheme/restaurant_scheme_1.png"" class=""exp-image"">
                    <div class=""question-area"">
                        <p style=""font-size: 20px; font-weight: bold; margin: 0;"">Is there a person in this image?</p>
                    </div>
                </div>","0","main_experiment_trial","1","restaurant_scheme","schematic_sequence","chronological","","","","","","","",""
"","","","","","html-keyboard-response","40","251441","0.0-40.0","0C42DD7B78F1441386028E2EB9991CA3","019d607a-25a9-7833-8590-b7371815d909","019d606a-43fe-787b-844e-eb4d01ea1402","","null","
                <div class=""stimulus-container"">
                    <img src=""images/schematic_sequence/restaurant_scheme/restaurant_scheme_2.png"" class=""exp-image"">
                    <div class=""question-area""></div> 
                </div>","null","","","","","","","","","","","","",""
"","","","","","html-button-response","41","252258","0.0-41.0","0C42DD7B78F1441386028E2EB9991CA3","019d607a-25a9-7833-8590-b7371815d909","019d606a-43fe-787b-844e-eb4d01ea1402","","816","
                <div class=""stimulus-container"">
                    <img src=""images/schematic_sequence/restaurant_scheme/restaurant_scheme_2.png"" class=""exp-image"">
                    <div class=""question-area"">
                        <p style=""font-size: 20px; font-weight: bold; margin: 0;"">Is there a person in this image?</p>
                    </div>
                </div>","1","main_experiment_trial","2","restaurant_scheme","schematic_sequence","chronological","","","","","","","",""
"","","","","","html-keyboard-response","42","257260","0.0-42.0","0C42DD7B78F1441386028E2EB9991CA3","019d607a-25a9-7833-8590-b7371815d909","019d606a-43fe-787b-844e-eb4d01ea1402","","null","
                <div class=""stimulus-container"">
                    <img src=""images/schematic_sequence/restaurant_scheme/restaurant_scheme_3.png"" class=""exp-image"">
                    <div class=""question-area""></div> 
                </div>","null","","","","","","","","","","","","",""
"","","","","","html-button-response","43","258888","0.0-43.0","0C42DD7B78F1441386028E2EB9991CA3","019d607a-25a9-7833-8590-b7371815d909","019d606a-43fe-787b-844e-eb4d01ea1402","","1626","
                <div class=""stimulus-container"">
                    <img src=""images/schematic_sequence/restaurant_scheme/restaurant_scheme_3.png"" class=""exp-image"">
                    <div class=""question-area"">
                        <p style=""font-size: 20px; font-weight: bold; margin: 0;"">Is there a person in this image?</p>
                    </div>
                </div>","1","main_experiment_trial","3","restaurant_scheme","schematic_sequence","chronological","","","","","","","",""
"","","","","","html-keyboard-response","44","263890","0.0-44.0","0C42DD7B78F1441386028E2EB9991CA3","019d607a-25a9-7833-8590-b7371815d909","019d606a-43fe-787b-844e-eb4d01ea1402","","null","
                <div class=""stimulus-container"">
                    <img src=""images/schematic_sequence/restaurant_scheme/restaurant_scheme_4.png"" class=""exp-image"">
                    <div class=""question-area""></div> 
                </div>","null","","","","","","","","","","","","",""
"","","","","","html-button-response","45","264412","0.0-45.0","0C42DD7B78F1441386028E2EB9991CA3","019d607a-25a9-7833-8590-b7371815d909","019d606a-43fe-787b-844e-eb4d01ea1402","","521","
                <div class=""stimulus-container"">
                    <img src=""images/schematic_sequence/restaurant_scheme/restaurant_scheme_4.png"" class=""exp-image"">
                    <div class=""question-area"">
                        <p style=""font-size: 20px; font-weight: bold; margin: 0;"">Is there a person in this image?</p>
                    </div>
                </div>","0","main_experiment_trial","4","restaurant_scheme","schematic_sequence","chronological","","","","","","","",""
"","","","","","html-keyboard-response","46","269415","0.0-46.0","0C42DD7B78F1441386028E2EB9991CA3","019d607a-25a9-7833-8590-b7371815d909","019d606a-43fe-787b-844e-eb4d01ea1402","","null","
                <div class=""stimulus-container"">
                    <img src=""images/schematic_sequence/restaurant_scheme/restaurant_scheme_5.png"" class=""exp-image"">
                    <div class=""question-area""></div> 
                </div>","null","","","","","","","","","","","","",""
"","","","","","html-button-response","47","269834","0.0-47.0","0C42DD7B78F1441386028E2EB9991CA3","019d607a-25a9-7833-8590-b7371815d909","019d606a-43fe-787b-844e-eb4d01ea1402","","418","
                <div class=""stimulus-container"">
                    <img src=""images/schematic_sequence/restaurant_scheme/restaurant_scheme_5.png"" class=""exp-image"">
                    <div class=""question-area"">
                        <p style=""font-size: 20px; font-weight: bold; margin: 0;"">Is there a person in this image?</p>
                    </div>
                </div>","0","main_experiment_trial","5","restaurant_scheme","schematic_sequence","chronological","","","","","","","",""
"","","","","","html-keyboard-response","48","274837","0.0-48.0","0C42DD7B78F1441386028E2EB9991CA3","019d607a-25a9-7833-8590-b7371815d909","019d606a-43fe-787b-844e-eb4d01ea1402","","null","
                <div class=""stimulus-container"">
                    <img src=""images/schematic_sequence/restaurant_scheme/restaurant_scheme_6.png"" class=""exp-image"">
                    <div class=""question-area""></div> 
                </div>","null","","","","","","","","","","","","",""
"","","","","","html-button-response","49","275668","0.0-49.0","0C42DD7B78F1441386028E2EB9991CA3","019d607a-25a9-7833-8590-b7371815d909","019d606a-43fe-787b-844e-eb4d01ea1402","","830","
                <div class=""stimulus-container"">
                    <img src=""images/schematic_sequence/restaurant_scheme/restaurant_scheme_6.png"" class=""exp-image"">
                    <div class=""question-area"">
                        <p style=""font-size: 20px; font-weight: bold; margin: 0;"">Is there a person in this image?</p>
                    </div>
                </div>","1","main_experiment_trial","6","restaurant_scheme","schematic_sequence","chronological","","","","","","","",""
"","","","","","html-keyboard-response","50","280671","0.0-50.0","0C42DD7B78F1441386028E2EB9991CA3","019d607a-25a9-7833-8590-b7371815d909","019d606a-43fe-787b-844e-eb4d01ea1402","","null","
                <div class=""stimulus-container"">
                    <img src=""images/schematic_sequence/restaurant_scheme/restaurant_scheme_7.png"" class=""exp-image"">
                    <div class=""question-area""></div> 
                </div>","null","","","","","","","","","","","","",""
"","","","","","html-button-response","51","281785","0.0-51.0","0C42DD7B78F1441386028E2EB9991CA3","019d607a-25a9-7833-8590-b7371815d909","019d606a-43fe-787b-844e-eb4d01ea1402","","1112","
                <div class=""stimulus-container"">
                    <img src=""images/schematic_sequence/restaurant_scheme/restaurant_scheme_7.png"" class=""exp-image"">
                    <div class=""question-area"">
                        <p style=""font-size: 20px; font-weight: bold; margin: 0;"">Is there a person in this image?</p>
                    </div>
                </div>","1","main_experiment_trial","7","restaurant_scheme","schematic_sequence","chronological","","","","","","","",""
"","","","","","html-keyboard-response","52","286787","0.0-52.0","0C42DD7B78F1441386028E2EB9991CA3","019d607a-25a9-7833-8590-b7371815d909","019d606a-43fe-787b-844e-eb4d01ea1402","","null","
                <div class=""stimulus-container"">
                    <img src=""images/schematic_sequence/restaurant_scheme/restaurant_scheme_8.png"" class=""exp-image"">
                    <div class=""question-area""></div> 
                </div>","null","","","","","","","","","","","","",""
"","","","","","html-button-response","53","287476","0.0-53.0","0C42DD7B78F1441386028E2EB9991CA3","019d607a-25a9-7833-8590-b7371815d909","019d606a-43fe-787b-844e-eb4d01ea1402","","687","
                <div class=""stimulus-container"">
                    <img src=""images/schematic_sequence/restaurant_scheme/restaurant_scheme_8.png"" class=""exp-image"">
                    <div class=""question-area"">
                        <p style=""font-size: 20px; font-weight: bold; margin: 0;"">Is there a person in this image?</p>
                    </div>
                </div>","1","main_experiment_trial","8","restaurant_scheme","schematic_sequence","chronological","","","","","","","",""
"","","","","","html-keyboard-response","54","292479","0.0-54.0","0C42DD7B78F1441386028E2EB9991CA3","019d607a-25a9-7833-8590-b7371815d909","019d606a-43fe-787b-844e-eb4d01ea1402","","null","
                <div class=""stimulus-container"">
                    <img src=""images/schematic_sequence/restaurant_scheme/restaurant_scheme_9.png"" class=""exp-image"">
                    <div class=""question-area""></div> 
                </div>","null","","","","","","","","","","","","",""
"","","","","","html-button-response","55","293309","0.0-55.0","0C42DD7B78F1441386028E2EB9991CA3","019d607a-25a9-7833-8590-b7371815d909","019d606a-43fe-787b-844e-eb4d01ea1402","","828","
                <div class=""stimulus-container"">
                    <img src=""images/schematic_sequence/restaurant_scheme/restaurant_scheme_9.png"" class=""exp-image"">
                    <div class=""question-area"">
                        <p style=""font-size: 20px; font-weight: bold; margin: 0;"">Is there a person in this image?</p>
                    </div>
                </div>","0","main_experiment_trial","9","restaurant_scheme","schematic_sequence","chronological","","","","","","","",""
"","","","","","html-keyboard-response","56","298312","0.0-56.0","0C42DD7B78F1441386028E2EB9991CA3","019d607a-25a9-7833-8590-b7371815d909","019d606a-43fe-787b-844e-eb4d01ea1402","","null","
                <div class=""stimulus-container"">
                    <img src=""images/schematic_sequence/restaurant_scheme/restaurant_scheme_ten.png"" class=""exp-image"">
                    <div class=""question-area""></div> 
                </div>","null","","","","","","","","","","","","",""
"","","","","","html-button-response","57","298959","0.0-57.0","0C42DD7B78F1441386028E2EB9991CA3","019d607a-25a9-7833-8590-b7371815d909","019d606a-43fe-787b-844e-eb4d01ea1402","","646","
                <div class=""stimulus-container"">
                    <img src=""images/schematic_sequence/restaurant_scheme/restaurant_scheme_ten.png"" class=""exp-image"">
                    <div class=""question-area"">
                        <p style=""font-size: 20px; font-weight: bold; margin: 0;"">Is there a person in this image?</p>
                    </div>
                </div>","0","main_experiment_trial","ten","restaurant_scheme","schematic_sequence","chronological","","","","","","","",""
"","","","","","html-keyboard-response","58","303961","0.0-58.0","0C42DD7B78F1441386028E2EB9991CA3","019d607a-25a9-7833-8590-b7371815d909","019d606a-43fe-787b-844e-eb4d01ea1402","","null","<div style=""background-color: white; width: 100vw; height: 100vh;""></div>","null","","","","","","","","","","","","",""
"","","","","","html-keyboard-response","59","308965","0.0-59.0","0C42DD7B78F1441386028E2EB9991CA3","019d607a-25a9-7833-8590-b7371815d909","019d606a-43fe-787b-844e-eb4d01ea1402","","null","
                <div class=""stimulus-container"">
                    <img src=""images/semantic_sequence/kitchen_operations_semantic/kitchen_operations_semantic_1.png"" class=""exp-image"">
                    <div class=""question-area""></div> 
                </div>","null","","","","","","","","","","","","",""
"","","","","","html-button-response","60","309455","0.0-60.0","0C42DD7B78F1441386028E2EB9991CA3","019d607a-25a9-7833-8590-b7371815d909","019d606a-43fe-787b-844e-eb4d01ea1402","","489","
                <div class=""stimulus-container"">
                    <img src=""images/semantic_sequence/kitchen_operations_semantic/kitchen_operations_semantic_1.png"" class=""exp-image"">
                    <div class=""question-area"">
                        <p style=""font-size: 20px; font-weight: bold; margin: 0;"">Is there a person in this image?</p>
                    </div>
                </div>","0","main_experiment_trial","1","kitchen_operations_semantic","semantic_sequence","chronological","","","","","","","",""
"","","","","","html-keyboard-response","61","314458","0.0-61.0","0C42DD7B78F1441386028E2EB9991CA3","019d607a-25a9-7833-8590-b7371815d909","019d606a-43fe-787b-844e-eb4d01ea1402","","null","
                <div class=""stimulus-container"">
                    <img src=""images/semantic_sequence/kitchen_operations_semantic/kitchen_operations_semantic_2.png"" class=""exp-image"">
                    <div class=""question-area""></div> 
                </div>","null","","","","","","","","","","","","",""
"","","","","","html-button-response","62","314905","0.0-62.0","0C42DD7B78F1441386028E2EB9991CA3","019d607a-25a9-7833-8590-b7371815d909","019d606a-43fe-787b-844e-eb4d01ea1402","","445","
                <div class=""stimulus-container"">
                    <img src=""images/semantic_sequence/kitchen_operations_semantic/kitchen_operations_semantic_2.png"" class=""exp-image"">
                    <div class=""question-area"">
                        <p style=""font-size: 20px; font-weight: bold; margin: 0;"">Is there a person in this image?</p>
                    </div>
                </div>","0","main_experiment_trial","2","kitchen_operations_semantic","semantic_sequence","chronological","","","","","","","",""
"","","","","","html-keyboard-response","63","319907","0.0-63.0","0C42DD7B78F1441386028E2EB9991CA3","019d607a-25a9-7833-8590-b7371815d909","019d606a-43fe-787b-844e-eb4d01ea1402","","null","
                <div class=""stimulus-container"">
                    <img src=""images/semantic_sequence/kitchen_operations_semantic/kitchen_operations_semantic_3.png"" class=""exp-image"">
                    <div class=""question-area""></div> 
                </div>","null","","","","","","","","","","","","",""
"","","","","","html-button-response","64","320555","0.0-64.0","0C42DD7B78F1441386028E2EB9991CA3","019d607a-25a9-7833-8590-b7371815d909","019d606a-43fe-787b-844e-eb4d01ea1402","","646","
                <div class=""stimulus-container"">
                    <img src=""images/semantic_sequence/kitchen_operations_semantic/kitchen_operations_semantic_3.png"" class=""exp-image"">
                    <div class=""question-area"">
                        <p style=""font-size: 20px; font-weight: bold; margin: 0;"">Is there a person in this image?</p>
                    </div>
                </div>","0","main_experiment_trial","3","kitchen_operations_semantic","semantic_sequence","chronological","","","","","","","",""
"","","","","","html-keyboard-response","65","325558","0.0-65.0","0C42DD7B78F1441386028E2EB9991CA3","019d607a-25a9-7833-8590-b7371815d909","019d606a-43fe-787b-844e-eb4d01ea1402","","null","
                <div class=""stimulus-container"">
                    <img src=""images/semantic_sequence/kitchen_operations_semantic/kitchen_operations_semantic_4.png"" class=""exp-image"">
                    <div class=""question-area""></div> 
                </div>","null","","","","","","","","","","","","",""
"","","","","","html-button-response","66","325957","0.0-66.0","0C42DD7B78F1441386028E2EB9991CA3","019d607a-25a9-7833-8590-b7371815d909","019d606a-43fe-787b-844e-eb4d01ea1402","","397","
                <div class=""stimulus-container"">
                    <img src=""images/semantic_sequence/kitchen_operations_semantic/kitchen_operations_semantic_4.png"" class=""exp-image"">
                    <div class=""question-area"">
                        <p style=""font-size: 20px; font-weight: bold; margin: 0;"">Is there a person in this image?</p>
                    </div>
                </div>","0","main_experiment_trial","4","kitchen_operations_semantic","semantic_sequence","chronological","","","","","","","",""
"","","","","","html-keyboard-response","67","330960","0.0-67.0","0C42DD7B78F1441386028E2EB9991CA3","019d607a-25a9-7833-8590-b7371815d909","019d606a-43fe-787b-844e-eb4d01ea1402","","null","
                <div class=""stimulus-container"">
                    <img src=""images/semantic_sequence/kitchen_operations_semantic/kitchen_operations_semantic_5.png"" class=""exp-image"">
                    <div class=""question-area""></div> 
                </div>","null","","","","","","","","","","","","",""
"","","","","","html-button-response","68","331780","0.0-68.0","0C42DD7B78F1441386028E2EB9991CA3","019d607a-25a9-7833-8590-b7371815d909","019d606a-43fe-787b-844e-eb4d01ea1402","","819","
                <div class=""stimulus-container"">
                    <img src=""images/semantic_sequence/kitchen_operations_semantic/kitchen_operations_semantic_5.png"" class=""exp-image"">
                    <div class=""question-area"">
                        <p style=""font-size: 20px; font-weight: bold; margin: 0;"">Is there a person in this image?</p>
                    </div>
                </div>","0","main_experiment_trial","5","kitchen_operations_semantic","semantic_sequence","chronological","","","","","","","",""
"","","","","","html-keyboard-response","69","336783","0.0-69.0","0C42DD7B78F1441386028E2EB9991CA3","019d607a-25a9-7833-8590-b7371815d909","019d606a-43fe-787b-844e-eb4d01ea1402","","null","
                <div class=""stimulus-container"">
                    <img src=""images/semantic_sequence/kitchen_operations_semantic/kitchen_operations_semantic_6.png"" class=""exp-image"">
                    <div class=""question-area""></div> 
                </div>","null","","","","","","","","","","","","",""
"","","","","","html-button-response","70","337656","0.0-70.0","0C42DD7B78F1441386028E2EB9991CA3","019d607a-25a9-7833-8590-b7371815d909","019d606a-43fe-787b-844e-eb4d01ea1402","","871","
                <div class=""stimulus-container"">
                    <img src=""images/semantic_sequence/kitchen_operations_semantic/kitchen_operations_semantic_6.png"" class=""exp-image"">
                    <div class=""question-area"">
                        <p style=""font-size: 20px; font-weight: bold; margin: 0;"">Is there a person in this image?</p>
                    </div>
                </div>","0","main_experiment_trial","6","kitchen_operations_semantic","semantic_sequence","chronological","","","","","","","",""
"","","","","","html-keyboard-response","71","342659","0.0-71.0","0C42DD7B78F1441386028E2EB9991CA3","019d607a-25a9-7833-8590-b7371815d909","019d606a-43fe-787b-844e-eb4d01ea1402","","null","
                <div class=""stimulus-container"">
                    <img src=""images/semantic_sequence/kitchen_operations_semantic/kitchen_operations_semantic_7.png"" class=""exp-image"">
                    <div class=""question-area""></div> 
                </div>","null","","","","","","","","","","","","",""
"","","","","","html-button-response","72","343605","0.0-72.0","0C42DD7B78F1441386028E2EB9991CA3","019d607a-25a9-7833-8590-b7371815d909","019d606a-43fe-787b-844e-eb4d01ea1402","","944","
                <div class=""stimulus-container"">
                    <img src=""images/semantic_sequence/kitchen_operations_semantic/kitchen_operations_semantic_7.png"" class=""exp-image"">
                    <div class=""question-area"">
                        <p style=""font-size: 20px; font-weight: bold; margin: 0;"">Is there a person in this image?</p>
                    </div>
                </div>","0","main_experiment_trial","7","kitchen_operations_semantic","semantic_sequence","chronological","","","","","","","",""
"","","","","","html-keyboard-response","73","348608","0.0-73.0","0C42DD7B78F1441386028E2EB9991CA3","019d607a-25a9-7833-8590-b7371815d909","019d606a-43fe-787b-844e-eb4d01ea1402","","null","
                <div class=""stimulus-container"">
                    <img src=""images/semantic_sequence/kitchen_operations_semantic/kitchen_operations_semantic_8.png"" class=""exp-image"">
                    <div class=""question-area""></div> 
                </div>","null","","","","","","","","","","","","",""
"","","","","","html-button-response","74","349155","0.0-74.0","0C42DD7B78F1441386028E2EB9991CA3","019d607a-25a9-7833-8590-b7371815d909","019d606a-43fe-787b-844e-eb4d01ea1402","","546","
                <div class=""stimulus-container"">
                    <img src=""images/semantic_sequence/kitchen_operations_semantic/kitchen_operations_semantic_8.png"" class=""exp-image"">
                    <div class=""question-area"">
                        <p style=""font-size: 20px; font-weight: bold; margin: 0;"">Is there a person in this image?</p>
                    </div>
                </div>","0","main_experiment_trial","8","kitchen_operations_semantic","semantic_sequence","chronological","","","","","","","",""
"","","","","","html-keyboard-response","75","354157","0.0-75.0","0C42DD7B78F1441386028E2EB9991CA3","019d607a-25a9-7833-8590-b7371815d909","019d606a-43fe-787b-844e-eb4d01ea1402","","null","
                <div class=""stimulus-container"">
                    <img src=""images/semantic_sequence/kitchen_operations_semantic/kitchen_operations_semantic_9.png"" class=""exp-image"">
                    <div class=""question-area""></div> 
                </div>","null","","","","","","","","","","","","",""
"","","","","","html-button-response","76","354813","0.0-76.0","0C42DD7B78F1441386028E2EB9991CA3","019d607a-25a9-7833-8590-b7371815d909","019d606a-43fe-787b-844e-eb4d01ea1402","","655","
                <div class=""stimulus-container"">
                    <img src=""images/semantic_sequence/kitchen_operations_semantic/kitchen_operations_semantic_9.png"" class=""exp-image"">
                    <div class=""question-area"">
                        <p style=""font-size: 20px; font-weight: bold; margin: 0;"">Is there a person in this image?</p>
                    </div>
                </div>","0","main_experiment_trial","9","kitchen_operations_semantic","semantic_sequence","chronological","","","","","","","",""
"","","","","","html-keyboard-response","77","359816","0.0-77.0","0C42DD7B78F1441386028E2EB9991CA3","019d607a-25a9-7833-8590-b7371815d909","019d606a-43fe-787b-844e-eb4d01ea1402","","null","
                <div class=""stimulus-container"">
                    <img src=""images/semantic_sequence/kitchen_operations_semantic/kitchen_operations_semantic_ten.png"" class=""exp-image"">
                    <div class=""question-area""></div> 
                </div>","null","","","","","","","","","","","","",""
"","","","","","html-button-response","78","360259","0.0-78.0","0C42DD7B78F1441386028E2EB9991CA3","019d607a-25a9-7833-8590-b7371815d909","019d606a-43fe-787b-844e-eb4d01ea1402","","442","
                <div class=""stimulus-container"">
                    <img src=""images/semantic_sequence/kitchen_operations_semantic/kitchen_operations_semantic_ten.png"" class=""exp-image"">
                    <div class=""question-area"">
                        <p style=""font-size: 20px; font-weight: bold; margin: 0;"">Is there a person in this image?</p>
                    </div>
                </div>","0","main_experiment_trial","ten","kitchen_operations_semantic","semantic_sequence","chronological","","","","","","","",""
"","","","","","html-keyboard-response","79","365262","0.0-79.0","0C42DD7B78F1441386028E2EB9991CA3","019d607a-25a9-7833-8590-b7371815d909","019d606a-43fe-787b-844e-eb4d01ea1402","","null","<div style=""background-color: white; width: 100vw; height: 100vh;""></div>","null","","","","","","","","","","","","",""
"","","","","","html-keyboard-response","80","370265","0.0-80.0","0C42DD7B78F1441386028E2EB9991CA3","019d607a-25a9-7833-8590-b7371815d909","019d606a-43fe-787b-844e-eb4d01ea1402","","null","
                <div class=""stimulus-container"">
                    <img src=""images/semantic_sequence/maintaining_a_car_semantic/maintaining_a_car_semantic_1.png"" class=""exp-image"">
                    <div class=""question-area""></div> 
                </div>","null","","","","","","","","","","","","",""
"","","","","","html-button-response","81","371526","0.0-81.0","0C42DD7B78F1441386028E2EB9991CA3","019d607a-25a9-7833-8590-b7371815d909","019d606a-43fe-787b-844e-eb4d01ea1402","","1259","
                <div class=""stimulus-container"">
                    <img src=""images/semantic_sequence/maintaining_a_car_semantic/maintaining_a_car_semantic_1.png"" class=""exp-image"">
                    <div class=""question-area"">
                        <p style=""font-size: 20px; font-weight: bold; margin: 0;"">Is there a person in this image?</p>
                    </div>
                </div>","0","main_experiment_trial","1","maintaining_a_car_semantic","semantic_sequence","chronological","","","","","","","",""
"","","","","","html-keyboard-response","82","376528","0.0-82.0","0C42DD7B78F1441386028E2EB9991CA3","019d607a-25a9-7833-8590-b7371815d909","019d606a-43fe-787b-844e-eb4d01ea1402","","null","
                <div class=""stimulus-container"">
                    <img src=""images/semantic_sequence/maintaining_a_car_semantic/maintaining_a_car_semantic_2.png"" class=""exp-image"">
                    <div class=""question-area""></div> 
                </div>","null","","","","","","","","","","","","",""
"","","","","","html-button-response","83","377067","0.0-83.0","0C42DD7B78F1441386028E2EB9991CA3","019d607a-25a9-7833-8590-b7371815d909","019d606a-43fe-787b-844e-eb4d01ea1402","","538","
                <div class=""stimulus-container"">
                    <img src=""images/semantic_sequence/maintaining_a_car_semantic/maintaining_a_car_semantic_2.png"" class=""exp-image"">
                    <div class=""question-area"">
                        <p style=""font-size: 20px; font-weight: bold; margin: 0;"">Is there a person in this image?</p>
                    </div>
                </div>","0","main_experiment_trial","2","maintaining_a_car_semantic","semantic_sequence","chronological","","","","","","","",""
"","","","","","html-keyboard-response","84","382070","0.0-84.0","0C42DD7B78F1441386028E2EB9991CA3","019d607a-25a9-7833-8590-b7371815d909","019d606a-43fe-787b-844e-eb4d01ea1402","","null","
                <div class=""stimulus-container"">
                    <img src=""images/semantic_sequence/maintaining_a_car_semantic/maintaining_a_car_semantic_3.png"" class=""exp-image"">
                    <div class=""question-area""></div> 
                </div>","null","","","","","","","","","","","","",""
"","","","","","html-button-response","85","382768","0.0-85.0","0C42DD7B78F1441386028E2EB9991CA3","019d607a-25a9-7833-8590-b7371815d909","019d606a-43fe-787b-844e-eb4d01ea1402","","697","
                <div class=""stimulus-container"">
                    <img src=""images/semantic_sequence/maintaining_a_car_semantic/maintaining_a_car_semantic_3.png"" class=""exp-image"">
                    <div class=""question-area"">
                        <p style=""font-size: 20px; font-weight: bold; margin: 0;"">Is there a person in this image?</p>
                    </div>
                </div>","0","main_experiment_trial","3","maintaining_a_car_semantic","semantic_sequence","chronological","","","","","","","",""
"","","","","","html-keyboard-response","86","387771","0.0-86.0","0C42DD7B78F1441386028E2EB9991CA3","019d607a-25a9-7833-8590-b7371815d909","019d606a-43fe-787b-844e-eb4d01ea1402","","null","
                <div class=""stimulus-container"">
                    <img src=""images/semantic_sequence/maintaining_a_car_semantic/maintaining_a_car_semantic_4.png"" class=""exp-image"">
                    <div class=""question-area""></div> 
                </div>","null","","","","","","","","","","","","",""
"","","","","","html-button-response","87","388635","0.0-87.0","0C42DD7B78F1441386028E2EB9991CA3","019d607a-25a9-7833-8590-b7371815d909","019d606a-43fe-787b-844e-eb4d01ea1402","","863","
                <div class=""stimulus-container"">
                    <img src=""images/semantic_sequence/maintaining_a_car_semantic/maintaining_a_car_semantic_4.png"" class=""exp-image"">
                    <div class=""question-area"">
                        <p style=""font-size: 20px; font-weight: bold; margin: 0;"">Is there a person in this image?</p>
                    </div>
                </div>","0","main_experiment_trial","4","maintaining_a_car_semantic","semantic_sequence","chronological","","","","","","","",""
"","","","","","html-keyboard-response","88","393638","0.0-88.0","0C42DD7B78F1441386028E2EB9991CA3","019d607a-25a9-7833-8590-b7371815d909","019d606a-43fe-787b-844e-eb4d01ea1402","","null","
                <div class=""stimulus-container"">
                    <img src=""images/semantic_sequence/maintaining_a_car_semantic/maintaining_a_car_semantic_5.png"" class=""exp-image"">
                    <div class=""question-area""></div> 
                </div>","null","","","","","","","","","","","","",""
"","","","","","html-button-response","89","394384","0.0-89.0","0C42DD7B78F1441386028E2EB9991CA3","019d607a-25a9-7833-8590-b7371815d909","019d606a-43fe-787b-844e-eb4d01ea1402","","745","
                <div class=""stimulus-container"">
                    <img src=""images/semantic_sequence/maintaining_a_car_semantic/maintaining_a_car_semantic_5.png"" class=""exp-image"">
                    <div class=""question-area"">
                        <p style=""font-size: 20px; font-weight: bold; margin: 0;"">Is there a person in this image?</p>
                    </div>
                </div>","0","main_experiment_trial","5","maintaining_a_car_semantic","semantic_sequence","chronological","","","","","","","",""
"","","","","","html-keyboard-response","90","399387","0.0-90.0","0C42DD7B78F1441386028E2EB9991CA3","019d607a-25a9-7833-8590-b7371815d909","019d606a-43fe-787b-844e-eb4d01ea1402","","null","
                <div class=""stimulus-container"">
                    <img src=""images/semantic_sequence/maintaining_a_car_semantic/maintaining_a_car_semantic_6.png"" class=""exp-image"">
                    <div class=""question-area""></div> 
                </div>","null","","","","","","","","","","","","",""
"","","","","","html-button-response","91","400395","0.0-91.0","0C42DD7B78F1441386028E2EB9991CA3","019d607a-25a9-7833-8590-b7371815d909","019d606a-43fe-787b-844e-eb4d01ea1402","","1006","
                <div class=""stimulus-container"">
                    <img src=""images/semantic_sequence/maintaining_a_car_semantic/maintaining_a_car_semantic_6.png"" class=""exp-image"">
                    <div class=""question-area"">
                        <p style=""font-size: 20px; font-weight: bold; margin: 0;"">Is there a person in this image?</p>
                    </div>
                </div>","0","main_experiment_trial","6","maintaining_a_car_semantic","semantic_sequence","chronological","","","","","","","",""
"","","","","","html-keyboard-response","92","405398","0.0-92.0","0C42DD7B78F1441386028E2EB9991CA3","019d607a-25a9-7833-8590-b7371815d909","019d606a-43fe-787b-844e-eb4d01ea1402","","null","
                <div class=""stimulus-container"">
                    <img src=""images/semantic_sequence/maintaining_a_car_semantic/maintaining_a_car_semantic_7.png"" class=""exp-image"">
                    <div class=""question-area""></div> 
                </div>","null","","","","","","","","","","","","",""
"","","","","","html-button-response","93","406035","0.0-93.0","0C42DD7B78F1441386028E2EB9991CA3","019d607a-25a9-7833-8590-b7371815d909","019d606a-43fe-787b-844e-eb4d01ea1402","","635","
                <div class=""stimulus-container"">
                    <img src=""images/semantic_sequence/maintaining_a_car_semantic/maintaining_a_car_semantic_7.png"" class=""exp-image"">
                    <div class=""question-area"">
                        <p style=""font-size: 20px; font-weight: bold; margin: 0;"">Is there a person in this image?</p>
                    </div>
                </div>","0","main_experiment_trial","7","maintaining_a_car_semantic","semantic_sequence","chronological","","","","","","","",""
"","","","","","html-keyboard-response","94","411037","0.0-94.0","0C42DD7B78F1441386028E2EB9991CA3","019d607a-25a9-7833-8590-b7371815d909","019d606a-43fe-787b-844e-eb4d01ea1402","","null","
                <div class=""stimulus-container"">
                    <img src=""images/semantic_sequence/maintaining_a_car_semantic/maintaining_a_car_semantic_8.png"" class=""exp-image"">
                    <div class=""question-area""></div> 
                </div>","null","","","","","","","","","","","","",""
"","","","","","html-button-response","95","411812","0.0-95.0","0C42DD7B78F1441386028E2EB9991CA3","019d607a-25a9-7833-8590-b7371815d909","019d606a-43fe-787b-844e-eb4d01ea1402","","773","
                <div class=""stimulus-container"">
                    <img src=""images/semantic_sequence/maintaining_a_car_semantic/maintaining_a_car_semantic_8.png"" class=""exp-image"">
                    <div class=""question-area"">
                        <p style=""font-size: 20px; font-weight: bold; margin: 0;"">Is there a person in this image?</p>
                    </div>
                </div>","0","main_experiment_trial","8","maintaining_a_car_semantic","semantic_sequence","chronological","","","","","","","",""
"","","","","","html-keyboard-response","96","416814","0.0-96.0","0C42DD7B78F1441386028E2EB9991CA3","019d607a-25a9-7833-8590-b7371815d909","019d606a-43fe-787b-844e-eb4d01ea1402","","null","
                <div class=""stimulus-container"">
                    <img src=""images/semantic_sequence/maintaining_a_car_semantic/maintaining_a_car_semantic_9.png"" class=""exp-image"">
                    <div class=""question-area""></div> 
                </div>","null","","","","","","","","","","","","",""
"","","","","","html-button-response","97","418092","0.0-97.0","0C42DD7B78F1441386028E2EB9991CA3","019d607a-25a9-7833-8590-b7371815d909","019d606a-43fe-787b-844e-eb4d01ea1402","","1276","
                <div class=""stimulus-container"">
                    <img src=""images/semantic_sequence/maintaining_a_car_semantic/maintaining_a_car_semantic_9.png"" class=""exp-image"">
                    <div class=""question-area"">
                        <p style=""font-size: 20px; font-weight: bold; margin: 0;"">Is there a person in this image?</p>
                    </div>
                </div>","0","main_experiment_trial","9","maintaining_a_car_semantic","semantic_sequence","chronological","","","","","","","",""
"","","","","","html-keyboard-response","98","423095","0.0-98.0","0C42DD7B78F1441386028E2EB9991CA3","019d607a-25a9-7833-8590-b7371815d909","019d606a-43fe-787b-844e-eb4d01ea1402","","null","
                <div class=""stimulus-container"">
                    <img src=""images/semantic_sequence/maintaining_a_car_semantic/maintaining_a_car_semantic_ten.png"" class=""exp-image"">
                    <div class=""question-area""></div> 
                </div>","null","","","","","","","","","","","","",""
"","","","","","html-button-response","99","424093","0.0-99.0","0C42DD7B78F1441386028E2EB9991CA3","019d607a-25a9-7833-8590-b7371815d909","019d606a-43fe-787b-844e-eb4d01ea1402","","997","
                <div class=""stimulus-container"">
                    <img src=""images/semantic_sequence/maintaining_a_car_semantic/maintaining_a_car_semantic_ten.png"" class=""exp-image"">
                    <div class=""question-area"">
                        <p style=""font-size: 20px; font-weight: bold; margin: 0;"">Is there a person in this image?</p>
                    </div>
                </div>","0","main_experiment_trial","ten","maintaining_a_car_semantic","semantic_sequence","chronological","","","","","","","",""
"","","","","","html-keyboard-response","100","429096","0.0-100.0","0C42DD7B78F1441386028E2EB9991CA3","019d607a-25a9-7833-8590-b7371815d909","019d606a-43fe-787b-844e-eb4d01ea1402","","null","<div style=""background-color: white; width: 100vw; height: 100vh;""></div>","null","","","","","","","","","","","","",""
"","","","","","html-keyboard-response","101","434098","0.0-101.0","0C42DD7B78F1441386028E2EB9991CA3","019d607a-25a9-7833-8590-b7371815d909","019d606a-43fe-787b-844e-eb4d01ea1402","","null","
                <div class=""stimulus-container"">
                    <img src=""images/semantic_sequence/housework_semantic/housework_semantic_1.png"" class=""exp-image"">
                    <div class=""question-area""></div> 
                </div>","null","","","","","","","","","","","","",""
"","","","","","html-button-response","102","434655","0.0-102.0","0C42DD7B78F1441386028E2EB9991CA3","019d607a-25a9-7833-8590-b7371815d909","019d606a-43fe-787b-844e-eb4d01ea1402","","555","
                <div class=""stimulus-container"">
                    <img src=""images/semantic_sequence/housework_semantic/housework_semantic_1.png"" class=""exp-image"">
                    <div class=""question-area"">
                        <p style=""font-size: 20px; font-weight: bold; margin: 0;"">Is there a person in this image?</p>
                    </div>
                </div>","0","main_experiment_trial","1","housework_semantic","semantic_sequence","chronological","","","","","","","",""
"","","","","","html-keyboard-response","103","439657","0.0-103.0","0C42DD7B78F1441386028E2EB9991CA3","019d607a-25a9-7833-8590-b7371815d909","019d606a-43fe-787b-844e-eb4d01ea1402","","null","
                <div class=""stimulus-container"">
                    <img src=""images/semantic_sequence/housework_semantic/housework_semantic_2.png"" class=""exp-image"">
                    <div class=""question-area""></div> 
                </div>","null","","","","","","","","","","","","",""
"","","","","","html-button-response","104","440297","0.0-104.0","0C42DD7B78F1441386028E2EB9991CA3","019d607a-25a9-7833-8590-b7371815d909","019d606a-43fe-787b-844e-eb4d01ea1402","","639","
                <div class=""stimulus-container"">
                    <img src=""images/semantic_sequence/housework_semantic/housework_semantic_2.png"" class=""exp-image"">
                    <div class=""question-area"">
                        <p style=""font-size: 20px; font-weight: bold; margin: 0;"">Is there a person in this image?</p>
                    </div>
                </div>","0","main_experiment_trial","2","housework_semantic","semantic_sequence","chronological","","","","","","","",""
"","","","","","html-keyboard-response","105","445300","0.0-105.0","0C42DD7B78F1441386028E2EB9991CA3","019d607a-25a9-7833-8590-b7371815d909","019d606a-43fe-787b-844e-eb4d01ea1402","","null","
                <div class=""stimulus-container"">
                    <img src=""images/semantic_sequence/housework_semantic/housework_semantic_3.png"" class=""exp-image"">
                    <div class=""question-area""></div> 
                </div>","null","","","","","","","","","","","","",""
"","","","","","html-button-response","106","445988","0.0-106.0","0C42DD7B78F1441386028E2EB9991CA3","019d607a-25a9-7833-8590-b7371815d909","019d606a-43fe-787b-844e-eb4d01ea1402","","687","
                <div class=""stimulus-container"">
                    <img src=""images/semantic_sequence/housework_semantic/housework_semantic_3.png"" class=""exp-image"">
                    <div class=""question-area"">
                        <p style=""font-size: 20px; font-weight: bold; margin: 0;"">Is there a person in this image?</p>
                    </div>
                </div>","0","main_experiment_trial","3","housework_semantic","semantic_sequence","chronological","","","","","","","",""
"","","","","","html-keyboard-response","107","450992","0.0-107.0","0C42DD7B78F1441386028E2EB9991CA3","019d607a-25a9-7833-8590-b7371815d909","019d606a-43fe-787b-844e-eb4d01ea1402","","null","
                <div class=""stimulus-container"">
                    <img src=""images/semantic_sequence/housework_semantic/housework_semantic_4.png"" class=""exp-image"">
                    <div class=""question-area""></div> 
                </div>","null","","","","","","","","","","","","",""
"","","","","","html-button-response","108","451663","0.0-108.0","0C42DD7B78F1441386028E2EB9991CA3","019d607a-25a9-7833-8590-b7371815d909","019d606a-43fe-787b-844e-eb4d01ea1402","","670","
                <div class=""stimulus-container"">
                    <img src=""images/semantic_sequence/housework_semantic/housework_semantic_4.png"" class=""exp-image"">
                    <div class=""question-area"">
                        <p style=""font-size: 20px; font-weight: bold; margin: 0;"">Is there a person in this image?</p>
                    </div>
                </div>","0","main_experiment_trial","4","housework_semantic","semantic_sequence","chronological","","","","","","","",""
"","","","","","html-keyboard-response","109","456666","0.0-109.0","0C42DD7B78F1441386028E2EB9991CA3","019d607a-25a9-7833-8590-b7371815d909","019d606a-43fe-787b-844e-eb4d01ea1402","","null","
                <div class=""stimulus-container"">
                    <img src=""images/semantic_sequence/housework_semantic/housework_semantic_5.png"" class=""exp-image"">
                    <div class=""question-area""></div> 
                </div>","null","","","","","","","","","","","","",""
"","","","","","html-button-response","110","458850","0.0-110.0","0C42DD7B78F1441386028E2EB9991CA3","019d607a-25a9-7833-8590-b7371815d909","019d606a-43fe-787b-844e-eb4d01ea1402","","2183","
                <div class=""stimulus-container"">
                    <img src=""images/semantic_sequence/housework_semantic/housework_semantic_5.png"" class=""exp-image"">
                    <div class=""question-area"">
                        <p style=""font-size: 20px; font-weight: bold; margin: 0;"">Is there a person in this image?</p>
                    </div>
                </div>","0","main_experiment_trial","5","housework_semantic","semantic_sequence","chronological","","","","","","","",""
"","","","","","html-keyboard-response","111","463853","0.0-111.0","0C42DD7B78F1441386028E2EB9991CA3","019d607a-25a9-7833-8590-b7371815d909","019d606a-43fe-787b-844e-eb4d01ea1402","","null","
                <div class=""stimulus-container"">
                    <img src=""images/semantic_sequence/housework_semantic/housework_semantic_6.png"" class=""exp-image"">
                    <div class=""question-area""></div> 
                </div>","null","","","","","","","","","","","","",""
"","","","","","html-button-response","112","464743","0.0-112.0","0C42DD7B78F1441386028E2EB9991CA3","019d607a-25a9-7833-8590-b7371815d909","019d606a-43fe-787b-844e-eb4d01ea1402","","888","
                <div class=""stimulus-container"">
                    <img src=""images/semantic_sequence/housework_semantic/housework_semantic_6.png"" class=""exp-image"">
                    <div class=""question-area"">
                        <p style=""font-size: 20px; font-weight: bold; margin: 0;"">Is there a person in this image?</p>
                    </div>
                </div>","0","main_experiment_trial","6","housework_semantic","semantic_sequence","chronological","","","","","","","",""
"","","","","","html-keyboard-response","113","469744","0.0-113.0","0C42DD7B78F1441386028E2EB9991CA3","019d607a-25a9-7833-8590-b7371815d909","019d606a-43fe-787b-844e-eb4d01ea1402","","null","
                <div class=""stimulus-container"">
                    <img src=""images/semantic_sequence/housework_semantic/housework_semantic_7.png"" class=""exp-image"">
                    <div class=""question-area""></div> 
                </div>","null","","","","","","","","","","","","",""
"","","","","","html-button-response","114","470326","0.0-114.0","0C42DD7B78F1441386028E2EB9991CA3","019d607a-25a9-7833-8590-b7371815d909","019d606a-43fe-787b-844e-eb4d01ea1402","","580","
                <div class=""stimulus-container"">
                    <img src=""images/semantic_sequence/housework_semantic/housework_semantic_7.png"" class=""exp-image"">
                    <div class=""question-area"">
                        <p style=""font-size: 20px; font-weight: bold; margin: 0;"">Is there a person in this image?</p>
                    </div>
                </div>","0","main_experiment_trial","7","housework_semantic","semantic_sequence","chronological","","","","","","","",""
"","","","","","html-keyboard-response","115","475329","0.0-115.0","0C42DD7B78F1441386028E2EB9991CA3","019d607a-25a9-7833-8590-b7371815d909","019d606a-43fe-787b-844e-eb4d01ea1402","","null","
                <div class=""stimulus-container"">
                    <img src=""images/semantic_sequence/housework_semantic/housework_semantic_8.png"" class=""exp-image"">
                    <div class=""question-area""></div> 
                </div>","null","","","","","","","","","","","","",""
"","","","","","html-button-response","116","476005","0.0-116.0","0C42DD7B78F1441386028E2EB9991CA3","019d607a-25a9-7833-8590-b7371815d909","019d606a-43fe-787b-844e-eb4d01ea1402","","674","
                <div class=""stimulus-container"">
                    <img src=""images/semantic_sequence/housework_semantic/housework_semantic_8.png"" class=""exp-image"">
                    <div class=""question-area"">
                        <p style=""font-size: 20px; font-weight: bold; margin: 0;"">Is there a person in this image?</p>
                    </div>
                </div>","0","main_experiment_trial","8","housework_semantic","semantic_sequence","chronological","","","","","","","",""
"","","","","","html-keyboard-response","117","481008","0.0-117.0","0C42DD7B78F1441386028E2EB9991CA3","019d607a-25a9-7833-8590-b7371815d909","019d606a-43fe-787b-844e-eb4d01ea1402","","null","
                <div class=""stimulus-container"">
                    <img src=""images/semantic_sequence/housework_semantic/housework_semantic_9.png"" class=""exp-image"">
                    <div class=""question-area""></div> 
                </div>","null","","","","","","","","","","","","",""
"","","","","","html-button-response","118","481989","0.0-118.0","0C42DD7B78F1441386028E2EB9991CA3","019d607a-25a9-7833-8590-b7371815d909","019d606a-43fe-787b-844e-eb4d01ea1402","","980","
                <div class=""stimulus-container"">
                    <img src=""images/semantic_sequence/housework_semantic/housework_semantic_9.png"" class=""exp-image"">
                    <div class=""question-area"">
                        <p style=""font-size: 20px; font-weight: bold; margin: 0;"">Is there a person in this image?</p>
                    </div>
                </div>","0","main_experiment_trial","9","housework_semantic","semantic_sequence","chronological","","","","","","","",""
"","","","","","html-keyboard-response","119","486992","0.0-119.0","0C42DD7B78F1441386028E2EB9991CA3","019d607a-25a9-7833-8590-b7371815d909","019d606a-43fe-787b-844e-eb4d01ea1402","","null","
                <div class=""stimulus-container"">
                    <img src=""images/semantic_sequence/housework_semantic/housework_semantic_ten.png"" class=""exp-image"">
                    <div class=""question-area""></div> 
                </div>","null","","","","","","","","","","","","",""
"","","","","","html-button-response","120","487989","0.0-120.0","0C42DD7B78F1441386028E2EB9991CA3","019d607a-25a9-7833-8590-b7371815d909","019d606a-43fe-787b-844e-eb4d01ea1402","","995","
                <div class=""stimulus-container"">
                    <img src=""images/semantic_sequence/housework_semantic/housework_semantic_ten.png"" class=""exp-image"">
                    <div class=""question-area"">
                        <p style=""font-size: 20px; font-weight: bold; margin: 0;"">Is there a person in this image?</p>
                    </div>
                </div>","0","main_experiment_trial","ten","housework_semantic","semantic_sequence","chronological","","","","","","","",""
"","","","","","html-keyboard-response","121","492992","0.0-121.0","0C42DD7B78F1441386028E2EB9991CA3","019d607a-25a9-7833-8590-b7371815d909","019d606a-43fe-787b-844e-eb4d01ea1402","","null","<div style=""background-color: white; width: 100vw; height: 100vh;""></div>","null","","","","","","","","","","","","",""
"","","","","","html-keyboard-response","122","497994","0.0-122.0","0C42DD7B78F1441386028E2EB9991CA3","019d607a-25a9-7833-8590-b7371815d909","019d606a-43fe-787b-844e-eb4d01ea1402","","null","
                <div class=""stimulus-container"">
                    <img src=""images/semantic_sequence/visiting_cities_semantic/visiting_cities_semantic_1.png"" class=""exp-image"">
                    <div class=""question-area""></div> 
                </div>","null","","","","","","","","","","","","",""
"","","","","","html-button-response","123","500346","0.0-123.0","0C42DD7B78F1441386028E2EB9991CA3","019d607a-25a9-7833-8590-b7371815d909","019d606a-43fe-787b-844e-eb4d01ea1402","","2351","
                <div class=""stimulus-container"">
                    <img src=""images/semantic_sequence/visiting_cities_semantic/visiting_cities_semantic_1.png"" class=""exp-image"">
                    <div class=""question-area"">
                        <p style=""font-size: 20px; font-weight: bold; margin: 0;"">Is there a person in this image?</p>
                    </div>
                </div>","0","main_experiment_trial","1","visiting_cities_semantic","semantic_sequence","chronological","","","","","","","",""
"","","","","","html-keyboard-response","124","505349","0.0-124.0","0C42DD7B78F1441386028E2EB9991CA3","019d607a-25a9-7833-8590-b7371815d909","019d606a-43fe-787b-844e-eb4d01ea1402","","null","
                <div class=""stimulus-container"">
                    <img src=""images/semantic_sequence/visiting_cities_semantic/visiting_cities_semantic_2.png"" class=""exp-image"">
                    <div class=""question-area""></div> 
                </div>","null","","","","","","","","","","","","",""
"","","","","","html-button-response","125","506889","0.0-125.0","0C42DD7B78F1441386028E2EB9991CA3","019d607a-25a9-7833-8590-b7371815d909","019d606a-43fe-787b-844e-eb4d01ea1402","","1538","
                <div class=""stimulus-container"">
                    <img src=""images/semantic_sequence/visiting_cities_semantic/visiting_cities_semantic_2.png"" class=""exp-image"">
                    <div class=""question-area"">
                        <p style=""font-size: 20px; font-weight: bold; margin: 0;"">Is there a person in this image?</p>
                    </div>
                </div>","1","main_experiment_trial","2","visiting_cities_semantic","semantic_sequence","chronological","","","","","","","",""
"","","","","","html-keyboard-response","126","511892","0.0-126.0","0C42DD7B78F1441386028E2EB9991CA3","019d607a-25a9-7833-8590-b7371815d909","019d606a-43fe-787b-844e-eb4d01ea1402","","null","
                <div class=""stimulus-container"">
                    <img src=""images/semantic_sequence/visiting_cities_semantic/visiting_cities_semantic_3.png"" class=""exp-image"">
                    <div class=""question-area""></div> 
                </div>","null","","","","","","","","","","","","",""
"","","","","","html-button-response","127","513806","0.0-127.0","0C42DD7B78F1441386028E2EB9991CA3","019d607a-25a9-7833-8590-b7371815d909","019d606a-43fe-787b-844e-eb4d01ea1402","","1913","
                <div class=""stimulus-container"">
                    <img src=""images/semantic_sequence/visiting_cities_semantic/visiting_cities_semantic_3.png"" class=""exp-image"">
                    <div class=""question-area"">
                        <p style=""font-size: 20px; font-weight: bold; margin: 0;"">Is there a person in this image?</p>
                    </div>
                </div>","1","main_experiment_trial","3","visiting_cities_semantic","semantic_sequence","chronological","","","","","","","",""
"","","","","","html-keyboard-response","128","518809","0.0-128.0","0C42DD7B78F1441386028E2EB9991CA3","019d607a-25a9-7833-8590-b7371815d909","019d606a-43fe-787b-844e-eb4d01ea1402","","null","
                <div class=""stimulus-container"">
                    <img src=""images/semantic_sequence/visiting_cities_semantic/visiting_cities_semantic_4.png"" class=""exp-image"">
                    <div class=""question-area""></div> 
                </div>","null","","","","","","","","","","","","",""
"","","","","","html-button-response","129","519962","0.0-129.0","0C42DD7B78F1441386028E2EB9991CA3","019d607a-25a9-7833-8590-b7371815d909","019d606a-43fe-787b-844e-eb4d01ea1402","","1151","
                <div class=""stimulus-container"">
                    <img src=""images/semantic_sequence/visiting_cities_semantic/visiting_cities_semantic_4.png"" class=""exp-image"">
                    <div class=""question-area"">
                        <p style=""font-size: 20px; font-weight: bold; margin: 0;"">Is there a person in this image?</p>
                    </div>
                </div>","1","main_experiment_trial","4","visiting_cities_semantic","semantic_sequence","chronological","","","","","","","",""
"","","","","","html-keyboard-response","130","524964","0.0-130.0","0C42DD7B78F1441386028E2EB9991CA3","019d607a-25a9-7833-8590-b7371815d909","019d606a-43fe-787b-844e-eb4d01ea1402","","null","
                <div class=""stimulus-container"">
                    <img src=""images/semantic_sequence/visiting_cities_semantic/visiting_cities_semantic_5.png"" class=""exp-image"">
                    <div class=""question-area""></div> 
                </div>","null","","","","","","","","","","","","",""
"","","","","","html-button-response","131","527210","0.0-131.0","0C42DD7B78F1441386028E2EB9991CA3","019d607a-25a9-7833-8590-b7371815d909","019d606a-43fe-787b-844e-eb4d01ea1402","","2245","
                <div class=""stimulus-container"">
                    <img src=""images/semantic_sequence/visiting_cities_semantic/visiting_cities_semantic_5.png"" class=""exp-image"">
                    <div class=""question-area"">
                        <p style=""font-size: 20px; font-weight: bold; margin: 0;"">Is there a person in this image?</p>
                    </div>
                </div>","1","main_experiment_trial","5","visiting_cities_semantic","semantic_sequence","chronological","","","","","","","",""
"","","","","","html-keyboard-response","132","532212","0.0-132.0","0C42DD7B78F1441386028E2EB9991CA3","019d607a-25a9-7833-8590-b7371815d909","019d606a-43fe-787b-844e-eb4d01ea1402","","null","
                <div class=""stimulus-container"">
                    <img src=""images/semantic_sequence/visiting_cities_semantic/visiting_cities_semantic_6.png"" class=""exp-image"">
                    <div class=""question-area""></div> 
                </div>","null","","","","","","","","","","","","",""
"","","","","","html-button-response","133","532951","0.0-133.0","0C42DD7B78F1441386028E2EB9991CA3","019d607a-25a9-7833-8590-b7371815d909","019d606a-43fe-787b-844e-eb4d01ea1402","","737","
                <div class=""stimulus-container"">
                    <img src=""images/semantic_sequence/visiting_cities_semantic/visiting_cities_semantic_6.png"" class=""exp-image"">
                    <div class=""question-area"">
                        <p style=""font-size: 20px; font-weight: bold; margin: 0;"">Is there a person in this image?</p>
                    </div>
                </div>","1","main_experiment_trial","6","visiting_cities_semantic","semantic_sequence","chronological","","","","","","","",""
"","","","","","html-keyboard-response","134","537954","0.0-134.0","0C42DD7B78F1441386028E2EB9991CA3","019d607a-25a9-7833-8590-b7371815d909","019d606a-43fe-787b-844e-eb4d01ea1402","","null","
                <div class=""stimulus-container"">
                    <img src=""images/semantic_sequence/visiting_cities_semantic/visiting_cities_semantic_7.png"" class=""exp-image"">
                    <div class=""question-area""></div> 
                </div>","null","","","","","","","","","","","","",""
"","","","","","html-button-response","135","539092","0.0-135.0","0C42DD7B78F1441386028E2EB9991CA3","019d607a-25a9-7833-8590-b7371815d909","019d606a-43fe-787b-844e-eb4d01ea1402","","1137","
                <div class=""stimulus-container"">
                    <img src=""images/semantic_sequence/visiting_cities_semantic/visiting_cities_semantic_7.png"" class=""exp-image"">
                    <div class=""question-area"">
                        <p style=""font-size: 20px; font-weight: bold; margin: 0;"">Is there a person in this image?</p>
                    </div>
                </div>","1","main_experiment_trial","7","visiting_cities_semantic","semantic_sequence","chronological","","","","","","","",""
"","","","","","html-keyboard-response","136","544094","0.0-136.0","0C42DD7B78F1441386028E2EB9991CA3","019d607a-25a9-7833-8590-b7371815d909","019d606a-43fe-787b-844e-eb4d01ea1402","","null","
                <div class=""stimulus-container"">
                    <img src=""images/semantic_sequence/visiting_cities_semantic/visiting_cities_semantic_8.png"" class=""exp-image"">
                    <div class=""question-area""></div> 
                </div>","null","","","","","","","","","","","","",""
"","","","","","html-button-response","137","545145","0.0-137.0","0C42DD7B78F1441386028E2EB9991CA3","019d607a-25a9-7833-8590-b7371815d909","019d606a-43fe-787b-844e-eb4d01ea1402","","1049","
                <div class=""stimulus-container"">
                    <img src=""images/semantic_sequence/visiting_cities_semantic/visiting_cities_semantic_8.png"" class=""exp-image"">
                    <div class=""question-area"">
                        <p style=""font-size: 20px; font-weight: bold; margin: 0;"">Is there a person in this image?</p>
                    </div>
                </div>","1","main_experiment_trial","8","visiting_cities_semantic","semantic_sequence","chronological","","","","","","","",""
"","","","","","html-keyboard-response","138","550148","0.0-138.0","0C42DD7B78F1441386028E2EB9991CA3","019d607a-25a9-7833-8590-b7371815d909","019d606a-43fe-787b-844e-eb4d01ea1402","","null","
                <div class=""stimulus-container"">
                    <img src=""images/semantic_sequence/visiting_cities_semantic/visiting_cities_semantic_9.png"" class=""exp-image"">
                    <div class=""question-area""></div> 
                </div>","null","","","","","","","","","","","","",""
"","","","","","html-button-response","139","550668","0.0-139.0","0C42DD7B78F1441386028E2EB9991CA3","019d607a-25a9-7833-8590-b7371815d909","019d606a-43fe-787b-844e-eb4d01ea1402","","518","
                <div class=""stimulus-container"">
                    <img src=""images/semantic_sequence/visiting_cities_semantic/visiting_cities_semantic_9.png"" class=""exp-image"">
                    <div class=""question-area"">
                        <p style=""font-size: 20px; font-weight: bold; margin: 0;"">Is there a person in this image?</p>
                    </div>
                </div>","1","main_experiment_trial","9","visiting_cities_semantic","semantic_sequence","chronological","","","","","","","",""
"","","","","","html-keyboard-response","140","555670","0.0-140.0","0C42DD7B78F1441386028E2EB9991CA3","019d607a-25a9-7833-8590-b7371815d909","019d606a-43fe-787b-844e-eb4d01ea1402","","null","
                <div class=""stimulus-container"">
                    <img src=""images/semantic_sequence/visiting_cities_semantic/visiting_cities_semantic_ten.png"" class=""exp-image"">
                    <div class=""question-area""></div> 
                </div>","null","","","","","","","","","","","","",""
"","","","","","html-button-response","141","557126","0.0-141.0","0C42DD7B78F1441386028E2EB9991CA3","019d607a-25a9-7833-8590-b7371815d909","019d606a-43fe-787b-844e-eb4d01ea1402","","1454","
                <div class=""stimulus-container"">
                    <img src=""images/semantic_sequence/visiting_cities_semantic/visiting_cities_semantic_ten.png"" class=""exp-image"">
                    <div class=""question-area"">
                        <p style=""font-size: 20px; font-weight: bold; margin: 0;"">Is there a person in this image?</p>
                    </div>
                </div>","1","main_experiment_trial","ten","visiting_cities_semantic","semantic_sequence","chronological","","","","","","","",""
"","","","","","html-keyboard-response","142","562128","0.0-142.0","0C42DD7B78F1441386028E2EB9991CA3","019d607a-25a9-7833-8590-b7371815d909","019d606a-43fe-787b-844e-eb4d01ea1402","","null","<div style=""background-color: white; width: 100vw; height: 100vh;""></div>","null","","","","","","","","","","","","",""
"","","","","","html-keyboard-response","143","567131","0.0-143.0","0C42DD7B78F1441386028E2EB9991CA3","019d607a-25a9-7833-8590-b7371815d909","019d606a-43fe-787b-844e-eb4d01ea1402","","null","
                <div class=""stimulus-container"">
                    <img src=""images/causal_sequence/the_performance_causal/the_performance_causal_1.png"" class=""exp-image"">
                    <div class=""question-area""></div> 
                </div>","null","","","","","","","","","","","","",""
"","","","","","html-button-response","144","568742","0.0-144.0","0C42DD7B78F1441386028E2EB9991CA3","019d607a-25a9-7833-8590-b7371815d909","019d606a-43fe-787b-844e-eb4d01ea1402","","1610","
                <div class=""stimulus-container"">
                    <img src=""images/causal_sequence/the_performance_causal/the_performance_causal_1.png"" class=""exp-image"">
                    <div class=""question-area"">
                        <p style=""font-size: 20px; font-weight: bold; margin: 0;"">Is there a person in this image?</p>
                    </div>
                </div>","0","main_experiment_trial","1","the_performance_causal","causal_sequence","chronological","","","","","","","",""
"","","","","","html-keyboard-response","145","573744","0.0-145.0","0C42DD7B78F1441386028E2EB9991CA3","019d607a-25a9-7833-8590-b7371815d909","019d606a-43fe-787b-844e-eb4d01ea1402","","null","
                <div class=""stimulus-container"">
                    <img src=""images/causal_sequence/the_performance_causal/the_performance_causal_2.png"" class=""exp-image"">
                    <div class=""question-area""></div> 
                </div>","null","","","","","","","","","","","","",""
"","","","","","html-button-response","146","575109","0.0-146.0","0C42DD7B78F1441386028E2EB9991CA3","019d607a-25a9-7833-8590-b7371815d909","019d606a-43fe-787b-844e-eb4d01ea1402","","1363","
                <div class=""stimulus-container"">
                    <img src=""images/causal_sequence/the_performance_causal/the_performance_causal_2.png"" class=""exp-image"">
                    <div class=""question-area"">
                        <p style=""font-size: 20px; font-weight: bold; margin: 0;"">Is there a person in this image?</p>
                    </div>
                </div>","0","main_experiment_trial","2","the_performance_causal","causal_sequence","chronological","","","","","","","",""
"","","","","","html-keyboard-response","147","580112","0.0-147.0","0C42DD7B78F1441386028E2EB9991CA3","019d607a-25a9-7833-8590-b7371815d909","019d606a-43fe-787b-844e-eb4d01ea1402","","null","
                <div class=""stimulus-container"">
                    <img src=""images/causal_sequence/the_performance_causal/the_performance_causal_3.png"" class=""exp-image"">
                    <div class=""question-area""></div> 
                </div>","null","","","","","","","","","","","","",""
"","","","","","html-button-response","148","581134","0.0-148.0","0C42DD7B78F1441386028E2EB9991CA3","019d607a-25a9-7833-8590-b7371815d909","019d606a-43fe-787b-844e-eb4d01ea1402","","1021","
                <div class=""stimulus-container"">
                    <img src=""images/causal_sequence/the_performance_causal/the_performance_causal_3.png"" class=""exp-image"">
                    <div class=""question-area"">
                        <p style=""font-size: 20px; font-weight: bold; margin: 0;"">Is there a person in this image?</p>
                    </div>
                </div>","0","main_experiment_trial","3","the_performance_causal","causal_sequence","chronological","","","","","","","",""
"","","","","","html-keyboard-response","149","586137","0.0-149.0","0C42DD7B78F1441386028E2EB9991CA3","019d607a-25a9-7833-8590-b7371815d909","019d606a-43fe-787b-844e-eb4d01ea1402","","null","
                <div class=""stimulus-container"">
                    <img src=""images/causal_sequence/the_performance_causal/the_performance_causal_4.png"" class=""exp-image"">
                    <div class=""question-area""></div> 
                </div>","null","","","","","","","","","","","","",""
"","","","","","html-button-response","150","587394","0.0-150.0","0C42DD7B78F1441386028E2EB9991CA3","019d607a-25a9-7833-8590-b7371815d909","019d606a-43fe-787b-844e-eb4d01ea1402","","1255","
                <div class=""stimulus-container"">
                    <img src=""images/causal_sequence/the_performance_causal/the_performance_causal_4.png"" class=""exp-image"">
                    <div class=""question-area"">
                        <p style=""font-size: 20px; font-weight: bold; margin: 0;"">Is there a person in this image?</p>
                    </div>
                </div>","0","main_experiment_trial","4","the_performance_causal","causal_sequence","chronological","","","","","","","",""
"","","","","","html-keyboard-response","151","592397","0.0-151.0","0C42DD7B78F1441386028E2EB9991CA3","019d607a-25a9-7833-8590-b7371815d909","019d606a-43fe-787b-844e-eb4d01ea1402","","null","
                <div class=""stimulus-container"">
                    <img src=""images/causal_sequence/the_performance_causal/the_performance_causal_5.png"" class=""exp-image"">
                    <div class=""question-area""></div> 
                </div>","null","","","","","","","","","","","","",""
"","","","","","html-button-response","152","593479","0.0-152.0","0C42DD7B78F1441386028E2EB9991CA3","019d607a-25a9-7833-8590-b7371815d909","019d606a-43fe-787b-844e-eb4d01ea1402","","1080","
                <div class=""stimulus-container"">
                    <img src=""images/causal_sequence/the_performance_causal/the_performance_causal_5.png"" class=""exp-image"">
                    <div class=""question-area"">
                        <p style=""font-size: 20px; font-weight: bold; margin: 0;"">Is there a person in this image?</p>
                    </div>
                </div>","0","main_experiment_trial","5","the_performance_causal","causal_sequence","chronological","","","","","","","",""
"","","","","","html-keyboard-response","153","598481","0.0-153.0","0C42DD7B78F1441386028E2EB9991CA3","019d607a-25a9-7833-8590-b7371815d909","019d606a-43fe-787b-844e-eb4d01ea1402","","null","
                <div class=""stimulus-container"">
                    <img src=""images/causal_sequence/the_performance_causal/the_performance_causal_6.png"" class=""exp-image"">
                    <div class=""question-area""></div> 
                </div>","null","","","","","","","","","","","","",""
"","","","","","html-button-response","154","601467","0.0-154.0","0C42DD7B78F1441386028E2EB9991CA3","019d607a-25a9-7833-8590-b7371815d909","019d606a-43fe-787b-844e-eb4d01ea1402","","2985","
                <div class=""stimulus-container"">
                    <img src=""images/causal_sequence/the_performance_causal/the_performance_causal_6.png"" class=""exp-image"">
                    <div class=""question-area"">
                        <p style=""font-size: 20px; font-weight: bold; margin: 0;"">Is there a person in this image?</p>
                    </div>
                </div>","0","main_experiment_trial","6","the_performance_causal","causal_sequence","chronological","","","","","","","",""
"","","","","","html-keyboard-response","155","606470","0.0-155.0","0C42DD7B78F1441386028E2EB9991CA3","019d607a-25a9-7833-8590-b7371815d909","019d606a-43fe-787b-844e-eb4d01ea1402","","null","
                <div class=""stimulus-container"">
                    <img src=""images/causal_sequence/the_performance_causal/the_performance_causal_7.png"" class=""exp-image"">
                    <div class=""question-area""></div> 
                </div>","null","","","","","","","","","","","","",""
"","","","","","html-button-response","156","607975","0.0-156.0","0C42DD7B78F1441386028E2EB9991CA3","019d607a-25a9-7833-8590-b7371815d909","019d606a-43fe-787b-844e-eb4d01ea1402","","1505","
                <div class=""stimulus-container"">
                    <img src=""images/causal_sequence/the_performance_causal/the_performance_causal_7.png"" class=""exp-image"">
                    <div class=""question-area"">
                        <p style=""font-size: 20px; font-weight: bold; margin: 0;"">Is there a person in this image?</p>
                    </div>
                </div>","0","main_experiment_trial","7","the_performance_causal","causal_sequence","chronological","","","","","","","",""
"","","","","","html-keyboard-response","157","612978","0.0-157.0","0C42DD7B78F1441386028E2EB9991CA3","019d607a-25a9-7833-8590-b7371815d909","019d606a-43fe-787b-844e-eb4d01ea1402","","null","
                <div class=""stimulus-container"">
                    <img src=""images/causal_sequence/the_performance_causal/the_performance_causal_8.png"" class=""exp-image"">
                    <div class=""question-area""></div> 
                </div>","null","","","","","","","","","","","","",""
"","","","","","html-button-response","158","614076","0.0-158.0","0C42DD7B78F1441386028E2EB9991CA3","019d607a-25a9-7833-8590-b7371815d909","019d606a-43fe-787b-844e-eb4d01ea1402","","1096","
                <div class=""stimulus-container"">
                    <img src=""images/causal_sequence/the_performance_causal/the_performance_causal_8.png"" class=""exp-image"">
                    <div class=""question-area"">
                        <p style=""font-size: 20px; font-weight: bold; margin: 0;"">Is there a person in this image?</p>
                    </div>
                </div>","0","main_experiment_trial","8","the_performance_causal","causal_sequence","chronological","","","","","","","",""
"","","","","","html-keyboard-response","159","619078","0.0-159.0","0C42DD7B78F1441386028E2EB9991CA3","019d607a-25a9-7833-8590-b7371815d909","019d606a-43fe-787b-844e-eb4d01ea1402","","null","
                <div class=""stimulus-container"">
                    <img src=""images/causal_sequence/the_performance_causal/the_performance_causal_9.png"" class=""exp-image"">
                    <div class=""question-area""></div> 
                </div>","null","","","","","","","","","","","","",""
"","","","","","html-button-response","160","622079","0.0-160.0","0C42DD7B78F1441386028E2EB9991CA3","019d607a-25a9-7833-8590-b7371815d909","019d606a-43fe-787b-844e-eb4d01ea1402","","null","
                <div class=""stimulus-container"">
                    <img src=""images/causal_sequence/the_performance_causal/the_performance_causal_9.png"" class=""exp-image"">
                    <div class=""question-area"">
                        <p style=""font-size: 20px; font-weight: bold; margin: 0;"">Is there a person in this image?</p>
                    </div>
                </div>","null","main_experiment_trial","9","the_performance_causal","causal_sequence","chronological","","","","","","","",""
"","","","","","html-keyboard-response","161","627082","0.0-161.0","0C42DD7B78F1441386028E2EB9991CA3","019d607a-25a9-7833-8590-b7371815d909","019d606a-43fe-787b-844e-eb4d01ea1402","","null","
                <div class=""stimulus-container"">
                    <img src=""images/causal_sequence/the_performance_causal/the_performance_causal_ten.png"" class=""exp-image"">
                    <div class=""question-area""></div> 
                </div>","null","","","","","","","","","","","","",""
"","","","","","html-button-response","162","627651","0.0-162.0","0C42DD7B78F1441386028E2EB9991CA3","019d607a-25a9-7833-8590-b7371815d909","019d606a-43fe-787b-844e-eb4d01ea1402","","568","
                <div class=""stimulus-container"">
                    <img src=""images/causal_sequence/the_performance_causal/the_performance_causal_ten.png"" class=""exp-image"">
                    <div class=""question-area"">
                        <p style=""font-size: 20px; font-weight: bold; margin: 0;"">Is there a person in this image?</p>
                    </div>
                </div>","0","main_experiment_trial","ten","the_performance_causal","causal_sequence","chronological","","","","","","","",""
"","","","","","html-keyboard-response","163","632654","0.0-163.0","0C42DD7B78F1441386028E2EB9991CA3","019d607a-25a9-7833-8590-b7371815d909","019d606a-43fe-787b-844e-eb4d01ea1402","","null","<div style=""background-color: white; width: 100vw; height: 100vh;""></div>","null","","","","","","","","","","","","",""
"","","","","","html-keyboard-response","164","637657","0.0-164.0","0C42DD7B78F1441386028E2EB9991CA3","019d607a-25a9-7833-8590-b7371815d909","019d606a-43fe-787b-844e-eb4d01ea1402","","null","
                <div class=""stimulus-container"">
                    <img src=""images/causal_sequence/package_causal/package_causal_1.png"" class=""exp-image"">
                    <div class=""question-area""></div> 
                </div>","null","","","","","","","","","","","","",""
"","","","","","html-button-response","165","638460","0.0-165.0","0C42DD7B78F1441386028E2EB9991CA3","019d607a-25a9-7833-8590-b7371815d909","019d606a-43fe-787b-844e-eb4d01ea1402","","801","
                <div class=""stimulus-container"">
                    <img src=""images/causal_sequence/package_causal/package_causal_1.png"" class=""exp-image"">
                    <div class=""question-area"">
                        <p style=""font-size: 20px; font-weight: bold; margin: 0;"">Is there a person in this image?</p>
                    </div>
                </div>","0","main_experiment_trial","1","package_causal","causal_sequence","chronological","","","","","","","",""
"","","","","","html-keyboard-response","166","643462","0.0-166.0","0C42DD7B78F1441386028E2EB9991CA3","019d607a-25a9-7833-8590-b7371815d909","019d606a-43fe-787b-844e-eb4d01ea1402","","null","
                <div class=""stimulus-container"">
                    <img src=""images/causal_sequence/package_causal/package_causal_2.png"" class=""exp-image"">
                    <div class=""question-area""></div> 
                </div>","null","","","","","","","","","","","","",""
"","","","","","html-button-response","167","644268","0.0-167.0","0C42DD7B78F1441386028E2EB9991CA3","019d607a-25a9-7833-8590-b7371815d909","019d606a-43fe-787b-844e-eb4d01ea1402","","805","
                <div class=""stimulus-container"">
                    <img src=""images/causal_sequence/package_causal/package_causal_2.png"" class=""exp-image"">
                    <div class=""question-area"">
                        <p style=""font-size: 20px; font-weight: bold; margin: 0;"">Is there a person in this image?</p>
                    </div>
                </div>","1","main_experiment_trial","2","package_causal","causal_sequence","chronological","","","","","","","",""
"","","","","","html-keyboard-response","168","649271","0.0-168.0","0C42DD7B78F1441386028E2EB9991CA3","019d607a-25a9-7833-8590-b7371815d909","019d606a-43fe-787b-844e-eb4d01ea1402","","null","
                <div class=""stimulus-container"">
                    <img src=""images/causal_sequence/package_causal/package_causal_3.png"" class=""exp-image"">
                    <div class=""question-area""></div> 
                </div>","null","","","","","","","","","","","","",""
"","","","","","html-button-response","169","650901","0.0-169.0","0C42DD7B78F1441386028E2EB9991CA3","019d607a-25a9-7833-8590-b7371815d909","019d606a-43fe-787b-844e-eb4d01ea1402","","1628","
                <div class=""stimulus-container"">
                    <img src=""images/causal_sequence/package_causal/package_causal_3.png"" class=""exp-image"">
                    <div class=""question-area"">
                        <p style=""font-size: 20px; font-weight: bold; margin: 0;"">Is there a person in this image?</p>
                    </div>
                </div>","0","main_experiment_trial","3","package_causal","causal_sequence","chronological","","","","","","","",""
"","","","","","html-keyboard-response","170","655904","0.0-170.0","0C42DD7B78F1441386028E2EB9991CA3","019d607a-25a9-7833-8590-b7371815d909","019d606a-43fe-787b-844e-eb4d01ea1402","","null","
                <div class=""stimulus-container"">
                    <img src=""images/causal_sequence/package_causal/package_causal_4.png"" class=""exp-image"">
                    <div class=""question-area""></div> 
                </div>","null","","","","","","","","","","","","",""
"","","","","","html-button-response","171","656892","0.0-171.0","0C42DD7B78F1441386028E2EB9991CA3","019d607a-25a9-7833-8590-b7371815d909","019d606a-43fe-787b-844e-eb4d01ea1402","","987","
                <div class=""stimulus-container"">
                    <img src=""images/causal_sequence/package_causal/package_causal_4.png"" class=""exp-image"">
                    <div class=""question-area"">
                        <p style=""font-size: 20px; font-weight: bold; margin: 0;"">Is there a person in this image?</p>
                    </div>
                </div>","1","main_experiment_trial","4","package_causal","causal_sequence","chronological","","","","","","","",""
"","","","","","html-keyboard-response","172","661894","0.0-172.0","0C42DD7B78F1441386028E2EB9991CA3","019d607a-25a9-7833-8590-b7371815d909","019d606a-43fe-787b-844e-eb4d01ea1402","","null","
                <div class=""stimulus-container"">
                    <img src=""images/causal_sequence/package_causal/package_causal_5.png"" class=""exp-image"">
                    <div class=""question-area""></div> 
                </div>","null","","","","","","","","","","","","",""
"","","","","","html-button-response","173","662518","0.0-173.0","0C42DD7B78F1441386028E2EB9991CA3","019d607a-25a9-7833-8590-b7371815d909","019d606a-43fe-787b-844e-eb4d01ea1402","","623","
                <div class=""stimulus-container"">
                    <img src=""images/causal_sequence/package_causal/package_causal_5.png"" class=""exp-image"">
