"success","timeout","failed_images","failed_audio","failed_video","trial_type","trial_index","time_elapsed","internal_node_id","subject_id","study_id","session_id","view_history","rt","stimulus","response","task","image_index","folder","sequence_type","valuable_image_index","reward_type","chosen_image_index","target_X","correct_choice"
"true","false","[]","[]","[]","preload","0","155377","0.0-0.0","D567704642C44F539598A366F54C12B1","019cf478-4894-7c68-b928-3e8f60efb37e","019cf064-09e4-79bc-8453-421c166e6722","","","","","","","","","","","","",""
"","","","","","instructions","1","189458","0.0-1.0","D567704642C44F539598A366F54C12B1","019cf478-4894-7c68-b928-3e8f60efb37e","019cf064-09e4-79bc-8453-421c166e6722","[{""page_index"":0,""viewing_time"":34077}]","34077","","","","","","","","","","",""
"","","","","","instructions","2","546431","0.0-2.0","D567704642C44F539598A366F54C12B1","019cf478-4894-7c68-b928-3e8f60efb37e","019cf064-09e4-79bc-8453-421c166e6722","[{""page_index"":0,""viewing_time"":356971}]","356972","","","","","","","","","","",""
"true","","","","","fullscreen","3","550241","0.0-3.0","D567704642C44F539598A366F54C12B1","019cf478-4894-7c68-b928-3e8f60efb37e","019cf064-09e4-79bc-8453-421c166e6722","","2799","","","","","","","","","","",""
"","","","","","instructions","4","575425","0.0-4.0","D567704642C44F539598A366F54C12B1","019cf478-4894-7c68-b928-3e8f60efb37e","019cf064-09e4-79bc-8453-421c166e6722","[{""page_index"":0,""viewing_time"":25181}]","25182","","","","","","","","","","",""
"","","","","","instructions","5","593631","0.0-5.0","D567704642C44F539598A366F54C12B1","019cf478-4894-7c68-b928-3e8f60efb37e","019cf064-09e4-79bc-8453-421c166e6722","[{""page_index"":0,""viewing_time"":18205}]","18206","","","","","","","","","","",""
"","","","","","html-keyboard-response","6","597635","0.0-6.0","D567704642C44F539598A366F54C12B1","019cf478-4894-7c68-b928-3e8f60efb37e","019cf064-09e4-79bc-8453-421c166e6722","","null","
                <div class=""stimulus-container"">
                    <img src=""images/instructions/movie_1.png"" class=""exp-image"">
                    <div class=""question-area""></div> 
                </div>","null","","","","","","","","",""
"","","","","","html-button-response","7","600645","0.0-7.0","D567704642C44F539598A366F54C12B1","019cf478-4894-7c68-b928-3e8f60efb37e","019cf064-09e4-79bc-8453-421c166e6722","","null","
                <div class=""stimulus-container"">
                    <img src=""images/instructions/movie_1.png"" class=""exp-image"">
                    <div class=""question-area"">
                        <p style=""font-size: 20px; font-weight: bold; margin: 0;"">Was there a person in this image?</p>
                    </div>
                </div>","null","example_question","1","","","","","","",""
"","","","","","html-keyboard-response","8","604648","0.0-8.0","D567704642C44F539598A366F54C12B1","019cf478-4894-7c68-b928-3e8f60efb37e","019cf064-09e4-79bc-8453-421c166e6722","","null","
                <div class=""stimulus-container"">
                    <img src=""images/instructions/movie_2.png"" class=""exp-image"">
                    <div class=""question-area""></div> 
                </div>","null","","","","","","","","",""
"","","","","","html-button-response","9","606443","0.0-9.0","D567704642C44F539598A366F54C12B1","019cf478-4894-7c68-b928-3e8f60efb37e","019cf064-09e4-79bc-8453-421c166e6722","","1792","
                <div class=""stimulus-container"">
                    <img src=""images/instructions/movie_2.png"" class=""exp-image"">
                    <div class=""question-area"">
                        <p style=""font-size: 20px; font-weight: bold; margin: 0;"">Was there a person in this image?</p>
                    </div>
                </div>","1","example_question","2","","","","","","",""
"","","","","","html-keyboard-response","10","610451","0.0-10.0","D567704642C44F539598A366F54C12B1","019cf478-4894-7c68-b928-3e8f60efb37e","019cf064-09e4-79bc-8453-421c166e6722","","null","
                <div class=""stimulus-container"">
                    <img src=""images/instructions/movie_3.png"" class=""exp-image"">
                    <div class=""question-area""></div> 
                </div>","null","","","","","","","","",""
"","","","","","html-button-response","11","611565","0.0-11.0","D567704642C44F539598A366F54C12B1","019cf478-4894-7c68-b928-3e8f60efb37e","019cf064-09e4-79bc-8453-421c166e6722","","1112","
                <div class=""stimulus-container"">
                    <img src=""images/instructions/movie_3.png"" class=""exp-image"">
                    <div class=""question-area"">
                        <p style=""font-size: 20px; font-weight: bold; margin: 0;"">Was there a person in this image?</p>
                    </div>
                </div>","0","example_question","3","","","","","","",""
"","","","","","html-keyboard-response","12","615568","0.0-12.0","D567704642C44F539598A366F54C12B1","019cf478-4894-7c68-b928-3e8f60efb37e","019cf064-09e4-79bc-8453-421c166e6722","","null","
                <div class=""stimulus-container"">
                    <img src=""images/instructions/movie_4.png"" class=""exp-image"">
                    <div class=""question-area""></div> 
                </div>","null","","","","","","","","",""
"","","","","","html-button-response","13","616492","0.0-13.0","D567704642C44F539598A366F54C12B1","019cf478-4894-7c68-b928-3e8f60efb37e","019cf064-09e4-79bc-8453-421c166e6722","","921","
                <div class=""stimulus-container"">
                    <img src=""images/instructions/movie_4.png"" class=""exp-image"">
                    <div class=""question-area"">
                        <p style=""font-size: 20px; font-weight: bold; margin: 0;"">Was there a person in this image?</p>
                    </div>
                </div>","0","example_question","4","","","","","","",""
"","","","","","instructions","14","619204","0.0-14.0","D567704642C44F539598A366F54C12B1","019cf478-4894-7c68-b928-3e8f60efb37e","019cf064-09e4-79bc-8453-421c166e6722","[{""page_index"":0,""viewing_time"":2711}]","2712","","","","","","","","","","",""
"","","","","","instructions","15","997629","0.0-15.0","D567704642C44F539598A366F54C12B1","019cf478-4894-7c68-b928-3e8f60efb37e","019cf064-09e4-79bc-8453-421c166e6722","[{""page_index"":0,""viewing_time"":378424}]","378424","","","","","","","","","","",""
"","","","","","html-keyboard-response","16","998638","0.0-16.0","D567704642C44F539598A366F54C12B1","019cf478-4894-7c68-b928-3e8f60efb37e","019cf064-09e4-79bc-8453-421c166e6722","","null","<div style=""background-color: white; width: 100vw; height: 100vh;""></div>","null","","","","","","","","",""
"","","","","","html-keyboard-response","17","1003640","0.0-17.0","D567704642C44F539598A366F54C12B1","019cf478-4894-7c68-b928-3e8f60efb37e","019cf064-09e4-79bc-8453-421c166e6722","","null","
                <div class=""stimulus-container"">
                    <img src=""images/schematic_sequence/hotel_scheme/hotel_scheme_1.png"" class=""exp-image"">
                    <div class=""question-area""></div> 
                </div>","null","","","","","","","","",""
"","","","","","html-button-response","18","1004960","0.0-18.0","D567704642C44F539598A366F54C12B1","019cf478-4894-7c68-b928-3e8f60efb37e","019cf064-09e4-79bc-8453-421c166e6722","","1319","
                <div class=""stimulus-container"">
                    <img src=""images/schematic_sequence/hotel_scheme/hotel_scheme_1.png"" class=""exp-image"">
                    <div class=""question-area"">
                        <p style=""font-size: 20px; font-weight: bold; margin: 0;"">Is there a person in this image?</p>
                    </div>
                </div>","1","main_experiment_trial","1","hotel_scheme","schematic_sequence","","","","",""
"","","","","","html-keyboard-response","19","1009980","0.0-19.0","D567704642C44F539598A366F54C12B1","019cf478-4894-7c68-b928-3e8f60efb37e","019cf064-09e4-79bc-8453-421c166e6722","","null","
                <div class=""stimulus-container"">
                    <img src=""images/schematic_sequence/hotel_scheme/hotel_scheme_2.png"" class=""exp-image"">
                    <div class=""question-area""></div> 
                </div>","null","","","","","","","","",""
"","","","","","html-button-response","20","1011193","0.0-20.0","D567704642C44F539598A366F54C12B1","019cf478-4894-7c68-b928-3e8f60efb37e","019cf064-09e4-79bc-8453-421c166e6722","","1212","
                <div class=""stimulus-container"">
                    <img src=""images/schematic_sequence/hotel_scheme/hotel_scheme_2.png"" class=""exp-image"">
                    <div class=""question-area"">
                        <p style=""font-size: 20px; font-weight: bold; margin: 0;"">Is there a person in this image?</p>
                    </div>
                </div>","0","main_experiment_trial","2","hotel_scheme","schematic_sequence","","","","",""
"","","","","","html-keyboard-response","21","1016197","0.0-21.0","D567704642C44F539598A366F54C12B1","019cf478-4894-7c68-b928-3e8f60efb37e","019cf064-09e4-79bc-8453-421c166e6722","","null","
                <div class=""stimulus-container"">
                    <img src=""images/schematic_sequence/hotel_scheme/hotel_scheme_3.png"" class=""exp-image"">
                    <div class=""question-area""></div> 
                </div>","null","","","","","","","","",""
"","","","","","html-button-response","22","1016934","0.0-22.0","D567704642C44F539598A366F54C12B1","019cf478-4894-7c68-b928-3e8f60efb37e","019cf064-09e4-79bc-8453-421c166e6722","","734","
                <div class=""stimulus-container"">
                    <img src=""images/schematic_sequence/hotel_scheme/hotel_scheme_3.png"" class=""exp-image"">
                    <div class=""question-area"">
                        <p style=""font-size: 20px; font-weight: bold; margin: 0;"">Is there a person in this image?</p>
                    </div>
                </div>","0","main_experiment_trial","3","hotel_scheme","schematic_sequence","","","","",""
"","","","","","html-keyboard-response","23","1021938","0.0-23.0","D567704642C44F539598A366F54C12B1","019cf478-4894-7c68-b928-3e8f60efb37e","019cf064-09e4-79bc-8453-421c166e6722","","null","
                <div class=""stimulus-container"">
                    <img src=""images/schematic_sequence/hotel_scheme/hotel_scheme_4.png"" class=""exp-image"">
                    <div class=""question-area""></div> 
                </div>","null","","","","","","","","",""
"","","","","","html-button-response","24","1023030","0.0-24.0","D567704642C44F539598A366F54C12B1","019cf478-4894-7c68-b928-3e8f60efb37e","019cf064-09e4-79bc-8453-421c166e6722","","1089","
                <div class=""stimulus-container"">
                    <img src=""images/schematic_sequence/hotel_scheme/hotel_scheme_4.png"" class=""exp-image"">
                    <div class=""question-area"">
                        <p style=""font-size: 20px; font-weight: bold; margin: 0;"">Is there a person in this image?</p>
                    </div>
                </div>","1","main_experiment_trial","4","hotel_scheme","schematic_sequence","","","","",""
"","","","","","html-keyboard-response","25","1028039","0.0-25.0","D567704642C44F539598A366F54C12B1","019cf478-4894-7c68-b928-3e8f60efb37e","019cf064-09e4-79bc-8453-421c166e6722","","null","
                <div class=""stimulus-container"">
                    <img src=""images/schematic_sequence/hotel_scheme/hotel_scheme_5.png"" class=""exp-image"">
                    <div class=""question-area""></div> 
                </div>","null","","","","","","","","",""
"","","","","","html-button-response","26","1028956","0.0-26.0","D567704642C44F539598A366F54C12B1","019cf478-4894-7c68-b928-3e8f60efb37e","019cf064-09e4-79bc-8453-421c166e6722","","915","
                <div class=""stimulus-container"">
                    <img src=""images/schematic_sequence/hotel_scheme/hotel_scheme_5.png"" class=""exp-image"">
                    <div class=""question-area"">
                        <p style=""font-size: 20px; font-weight: bold; margin: 0;"">Is there a person in this image?</p>
                    </div>
                </div>","0","main_experiment_trial","5","hotel_scheme","schematic_sequence","","","","",""
"","","","","","html-keyboard-response","27","1033961","0.0-27.0","D567704642C44F539598A366F54C12B1","019cf478-4894-7c68-b928-3e8f60efb37e","019cf064-09e4-79bc-8453-421c166e6722","","null","
                <div class=""stimulus-container"">
                    <img src=""images/schematic_sequence/hotel_scheme/hotel_scheme_6.png"" class=""exp-image"">
                    <div class=""question-area""></div> 
                </div>","null","","","","","","","","",""
"","","","","","html-button-response","28","1034587","0.0-28.0","D567704642C44F539598A366F54C12B1","019cf478-4894-7c68-b928-3e8f60efb37e","019cf064-09e4-79bc-8453-421c166e6722","","624","
                <div class=""stimulus-container"">
                    <img src=""images/schematic_sequence/hotel_scheme/hotel_scheme_6.png"" class=""exp-image"">
                    <div class=""question-area"">
                        <p style=""font-size: 20px; font-weight: bold; margin: 0;"">Is there a person in this image?</p>
                    </div>
                </div>","0","main_experiment_trial","6","hotel_scheme","schematic_sequence","","","","",""
"","","","","","html-keyboard-response","29","1039597","0.0-29.0","D567704642C44F539598A366F54C12B1","019cf478-4894-7c68-b928-3e8f60efb37e","019cf064-09e4-79bc-8453-421c166e6722","","null","
                <div class=""stimulus-container"">
                    <img src=""images/schematic_sequence/hotel_scheme/hotel_scheme_7.png"" class=""exp-image"">
                    <div class=""question-area""></div> 
                </div>","null","","","","","","","","",""
"","","","","","html-button-response","30","1040283","0.0-30.0","D567704642C44F539598A366F54C12B1","019cf478-4894-7c68-b928-3e8f60efb37e","019cf064-09e4-79bc-8453-421c166e6722","","685","
                <div class=""stimulus-container"">
                    <img src=""images/schematic_sequence/hotel_scheme/hotel_scheme_7.png"" class=""exp-image"">
                    <div class=""question-area"">
                        <p style=""font-size: 20px; font-weight: bold; margin: 0;"">Is there a person in this image?</p>
                    </div>
                </div>","0","main_experiment_trial","7","hotel_scheme","schematic_sequence","","","","",""
"","","","","","html-keyboard-response","31","1045288","0.0-31.0","D567704642C44F539598A366F54C12B1","019cf478-4894-7c68-b928-3e8f60efb37e","019cf064-09e4-79bc-8453-421c166e6722","","null","
                <div class=""stimulus-container"">
                    <img src=""images/schematic_sequence/hotel_scheme/hotel_scheme_8.png"" class=""exp-image"">
                    <div class=""question-area""></div> 
                </div>","null","","","","","","","","",""
"","","","","","html-button-response","32","1045954","0.0-32.0","D567704642C44F539598A366F54C12B1","019cf478-4894-7c68-b928-3e8f60efb37e","019cf064-09e4-79bc-8453-421c166e6722","","663","
                <div class=""stimulus-container"">
                    <img src=""images/schematic_sequence/hotel_scheme/hotel_scheme_8.png"" class=""exp-image"">
                    <div class=""question-area"">
                        <p style=""font-size: 20px; font-weight: bold; margin: 0;"">Is there a person in this image?</p>
                    </div>
                </div>","0","main_experiment_trial","8","hotel_scheme","schematic_sequence","","","","",""
"","","","","","html-keyboard-response","33","1050970","0.0-33.0","D567704642C44F539598A366F54C12B1","019cf478-4894-7c68-b928-3e8f60efb37e","019cf064-09e4-79bc-8453-421c166e6722","","null","
                <div class=""stimulus-container"">
                    <img src=""images/schematic_sequence/hotel_scheme/hotel_scheme_9.png"" class=""exp-image"">
                    <div class=""question-area""></div> 
                </div>","null","","","","","","","","",""
"","","","","","html-button-response","34","1051598","0.0-34.0","D567704642C44F539598A366F54C12B1","019cf478-4894-7c68-b928-3e8f60efb37e","019cf064-09e4-79bc-8453-421c166e6722","","624","
                <div class=""stimulus-container"">
                    <img src=""images/schematic_sequence/hotel_scheme/hotel_scheme_9.png"" class=""exp-image"">
                    <div class=""question-area"">
                        <p style=""font-size: 20px; font-weight: bold; margin: 0;"">Is there a person in this image?</p>
                    </div>
                </div>","0","main_experiment_trial","9","hotel_scheme","schematic_sequence","","","","",""
"","","","","","html-keyboard-response","35","1056605","0.0-35.0","D567704642C44F539598A366F54C12B1","019cf478-4894-7c68-b928-3e8f60efb37e","019cf064-09e4-79bc-8453-421c166e6722","","null","
                <div class=""stimulus-container"">
                    <img src=""images/schematic_sequence/hotel_scheme/hotel_scheme_ten.png"" class=""exp-image"">
                    <div class=""question-area""></div> 
                </div>","null","","","","","","","","",""
"","","","","","html-button-response","36","1057670","0.0-36.0","D567704642C44F539598A366F54C12B1","019cf478-4894-7c68-b928-3e8f60efb37e","019cf064-09e4-79bc-8453-421c166e6722","","1064","
                <div class=""stimulus-container"">
                    <img src=""images/schematic_sequence/hotel_scheme/hotel_scheme_ten.png"" class=""exp-image"">
                    <div class=""question-area"">
                        <p style=""font-size: 20px; font-weight: bold; margin: 0;"">Is there a person in this image?</p>
                    </div>
                </div>","0","main_experiment_trial","ten","hotel_scheme","schematic_sequence","","","","",""
"","","","","","html-keyboard-response","37","1058679","0.0-37.0","D567704642C44F539598A366F54C12B1","019cf478-4894-7c68-b928-3e8f60efb37e","019cf064-09e4-79bc-8453-421c166e6722","","null","<div style=""background-color: white; width: 100vw; height: 100vh;""></div>","null","","","","","","","","",""
"","","","","","html-keyboard-response","38","1063681","0.0-38.0","D567704642C44F539598A366F54C12B1","019cf478-4894-7c68-b928-3e8f60efb37e","019cf064-09e4-79bc-8453-421c166e6722","","null","
                <div class=""stimulus-container"">
                    <img src=""images/schematic_sequence/flight_scheme/flight_scheme_1.png"" class=""exp-image"">
                    <div class=""question-area""></div> 
                </div>","null","","","","","","","","",""
"","","","","","html-button-response","39","1064656","0.0-39.0","D567704642C44F539598A366F54C12B1","019cf478-4894-7c68-b928-3e8f60efb37e","019cf064-09e4-79bc-8453-421c166e6722","","972","
                <div class=""stimulus-container"">
                    <img src=""images/schematic_sequence/flight_scheme/flight_scheme_1.png"" class=""exp-image"">
                    <div class=""question-area"">
                        <p style=""font-size: 20px; font-weight: bold; margin: 0;"">Is there a person in this image?</p>
                    </div>
                </div>","0","main_experiment_trial","1","flight_scheme","schematic_sequence","","","","",""
"","","","","","html-keyboard-response","40","1069662","0.0-40.0","D567704642C44F539598A366F54C12B1","019cf478-4894-7c68-b928-3e8f60efb37e","019cf064-09e4-79bc-8453-421c166e6722","","null","
                <div class=""stimulus-container"">
                    <img src=""images/schematic_sequence/flight_scheme/flight_scheme_2.png"" class=""exp-image"">
                    <div class=""question-area""></div> 
                </div>","null","","","","","","","","",""
"","","","","","html-button-response","41","1070429","0.0-41.0","D567704642C44F539598A366F54C12B1","019cf478-4894-7c68-b928-3e8f60efb37e","019cf064-09e4-79bc-8453-421c166e6722","","765","
                <div class=""stimulus-container"">
                    <img src=""images/schematic_sequence/flight_scheme/flight_scheme_2.png"" class=""exp-image"">
                    <div class=""question-area"">
                        <p style=""font-size: 20px; font-weight: bold; margin: 0;"">Is there a person in this image?</p>
                    </div>
                </div>","1","main_experiment_trial","2","flight_scheme","schematic_sequence","","","","",""
"","","","","","html-keyboard-response","42","1075445","0.0-42.0","D567704642C44F539598A366F54C12B1","019cf478-4894-7c68-b928-3e8f60efb37e","019cf064-09e4-79bc-8453-421c166e6722","","null","
                <div class=""stimulus-container"">
                    <img src=""images/schematic_sequence/flight_scheme/flight_scheme_3.png"" class=""exp-image"">
                    <div class=""question-area""></div> 
                </div>","null","","","","","","","","",""
"","","","","","html-button-response","43","1076234","0.0-43.0","D567704642C44F539598A366F54C12B1","019cf478-4894-7c68-b928-3e8f60efb37e","019cf064-09e4-79bc-8453-421c166e6722","","787","
                <div class=""stimulus-container"">
                    <img src=""images/schematic_sequence/flight_scheme/flight_scheme_3.png"" class=""exp-image"">
                    <div class=""question-area"">
                        <p style=""font-size: 20px; font-weight: bold; margin: 0;"">Is there a person in this image?</p>
                    </div>
                </div>","0","main_experiment_trial","3","flight_scheme","schematic_sequence","","","","",""
"","","","","","html-keyboard-response","44","1081245","0.0-44.0","D567704642C44F539598A366F54C12B1","019cf478-4894-7c68-b928-3e8f60efb37e","019cf064-09e4-79bc-8453-421c166e6722","","null","
                <div class=""stimulus-container"">
                    <img src=""images/schematic_sequence/flight_scheme/flight_scheme_4.png"" class=""exp-image"">
                    <div class=""question-area""></div> 
                </div>","null","","","","","","","","",""
"","","","","","html-button-response","45","1082125","0.0-45.0","D567704642C44F539598A366F54C12B1","019cf478-4894-7c68-b928-3e8f60efb37e","019cf064-09e4-79bc-8453-421c166e6722","","877","
                <div class=""stimulus-container"">
                    <img src=""images/schematic_sequence/flight_scheme/flight_scheme_4.png"" class=""exp-image"">
                    <div class=""question-area"">
                        <p style=""font-size: 20px; font-weight: bold; margin: 0;"">Is there a person in this image?</p>
                    </div>
                </div>","0","main_experiment_trial","4","flight_scheme","schematic_sequence","","","","",""
"","","","","","html-keyboard-response","46","1087135","0.0-46.0","D567704642C44F539598A366F54C12B1","019cf478-4894-7c68-b928-3e8f60efb37e","019cf064-09e4-79bc-8453-421c166e6722","","null","
                <div class=""stimulus-container"">
                    <img src=""images/schematic_sequence/flight_scheme/flight_scheme_5.png"" class=""exp-image"">
                    <div class=""question-area""></div> 
                </div>","null","","","","","","","","",""
"","","","","","html-button-response","47","1087789","0.0-47.0","D567704642C44F539598A366F54C12B1","019cf478-4894-7c68-b928-3e8f60efb37e","019cf064-09e4-79bc-8453-421c166e6722","","652","
                <div class=""stimulus-container"">
                    <img src=""images/schematic_sequence/flight_scheme/flight_scheme_5.png"" class=""exp-image"">
                    <div class=""question-area"">
                        <p style=""font-size: 20px; font-weight: bold; margin: 0;"">Is there a person in this image?</p>
                    </div>
                </div>","0","main_experiment_trial","5","flight_scheme","schematic_sequence","","","","",""
"","","","","","html-keyboard-response","48","1092796","0.0-48.0","D567704642C44F539598A366F54C12B1","019cf478-4894-7c68-b928-3e8f60efb37e","019cf064-09e4-79bc-8453-421c166e6722","","null","
                <div class=""stimulus-container"">
                    <img src=""images/schematic_sequence/flight_scheme/flight_scheme_6.png"" class=""exp-image"">
                    <div class=""question-area""></div> 
                </div>","null","","","","","","","","",""
"","","","","","html-button-response","49","1093626","0.0-49.0","D567704642C44F539598A366F54C12B1","019cf478-4894-7c68-b928-3e8f60efb37e","019cf064-09e4-79bc-8453-421c166e6722","","827","
                <div class=""stimulus-container"">
                    <img src=""images/schematic_sequence/flight_scheme/flight_scheme_6.png"" class=""exp-image"">
                    <div class=""question-area"">
                        <p style=""font-size: 20px; font-weight: bold; margin: 0;"">Is there a person in this image?</p>
                    </div>
                </div>","1","main_experiment_trial","6","flight_scheme","schematic_sequence","","","","",""
"","","","","","html-keyboard-response","50","1098635","0.0-50.0","D567704642C44F539598A366F54C12B1","019cf478-4894-7c68-b928-3e8f60efb37e","019cf064-09e4-79bc-8453-421c166e6722","","null","
                <div class=""stimulus-container"">
                    <img src=""images/schematic_sequence/flight_scheme/flight_scheme_7.png"" class=""exp-image"">
                    <div class=""question-area""></div> 
                </div>","null","","","","","","","","",""
"","","","","","html-button-response","51","1099792","0.0-51.0","D567704642C44F539598A366F54C12B1","019cf478-4894-7c68-b928-3e8f60efb37e","019cf064-09e4-79bc-8453-421c166e6722","","1154","
                <div class=""stimulus-container"">
                    <img src=""images/schematic_sequence/flight_scheme/flight_scheme_7.png"" class=""exp-image"">
                    <div class=""question-area"">
                        <p style=""font-size: 20px; font-weight: bold; margin: 0;"">Is there a person in this image?</p>
                    </div>
                </div>","0","main_experiment_trial","7","flight_scheme","schematic_sequence","","","","",""
"","","","","","html-keyboard-response","52","1104798","0.0-52.0","D567704642C44F539598A366F54C12B1","019cf478-4894-7c68-b928-3e8f60efb37e","019cf064-09e4-79bc-8453-421c166e6722","","null","
                <div class=""stimulus-container"">
                    <img src=""images/schematic_sequence/flight_scheme/flight_scheme_8.png"" class=""exp-image"">
                    <div class=""question-area""></div> 
                </div>","null","","","","","","","","",""
"","","","","","html-button-response","53","1105530","0.0-53.0","D567704642C44F539598A366F54C12B1","019cf478-4894-7c68-b928-3e8f60efb37e","019cf064-09e4-79bc-8453-421c166e6722","","731","
                <div class=""stimulus-container"">
                    <img src=""images/schematic_sequence/flight_scheme/flight_scheme_8.png"" class=""exp-image"">
                    <div class=""question-area"">
                        <p style=""font-size: 20px; font-weight: bold; margin: 0;"">Is there a person in this image?</p>
                    </div>
                </div>","1","main_experiment_trial","8","flight_scheme","schematic_sequence","","","","",""
"","","","","","html-keyboard-response","54","1110537","0.0-54.0","D567704642C44F539598A366F54C12B1","019cf478-4894-7c68-b928-3e8f60efb37e","019cf064-09e4-79bc-8453-421c166e6722","","null","
                <div class=""stimulus-container"">
                    <img src=""images/schematic_sequence/flight_scheme/flight_scheme_9.png"" class=""exp-image"">
                    <div class=""question-area""></div> 
                </div>","null","","","","","","","","",""
"","","","","","html-button-response","55","1111383","0.0-55.0","D567704642C44F539598A366F54C12B1","019cf478-4894-7c68-b928-3e8f60efb37e","019cf064-09e4-79bc-8453-421c166e6722","","843","
                <div class=""stimulus-container"">
                    <img src=""images/schematic_sequence/flight_scheme/flight_scheme_9.png"" class=""exp-image"">
                    <div class=""question-area"">
                        <p style=""font-size: 20px; font-weight: bold; margin: 0;"">Is there a person in this image?</p>
                    </div>
                </div>","0","main_experiment_trial","9","flight_scheme","schematic_sequence","","","","",""
"","","","","","html-keyboard-response","56","1116387","0.0-56.0","D567704642C44F539598A366F54C12B1","019cf478-4894-7c68-b928-3e8f60efb37e","019cf064-09e4-79bc-8453-421c166e6722","","null","
                <div class=""stimulus-container"">
                    <img src=""images/schematic_sequence/flight_scheme/flight_scheme_ten.png"" class=""exp-image"">
                    <div class=""question-area""></div> 
                </div>","null","","","","","","","","",""
"","","","","","html-button-response","57","1117037","0.0-57.0","D567704642C44F539598A366F54C12B1","019cf478-4894-7c68-b928-3e8f60efb37e","019cf064-09e4-79bc-8453-421c166e6722","","647","
                <div class=""stimulus-container"">
                    <img src=""images/schematic_sequence/flight_scheme/flight_scheme_ten.png"" class=""exp-image"">
                    <div class=""question-area"">
                        <p style=""font-size: 20px; font-weight: bold; margin: 0;"">Is there a person in this image?</p>
                    </div>
                </div>","0","main_experiment_trial","ten","flight_scheme","schematic_sequence","","","","",""
"","","","","","html-keyboard-response","58","1118042","0.0-58.0","D567704642C44F539598A366F54C12B1","019cf478-4894-7c68-b928-3e8f60efb37e","019cf064-09e4-79bc-8453-421c166e6722","","null","<div style=""background-color: white; width: 100vw; height: 100vh;""></div>","null","","","","","","","","",""
"","","","","","html-keyboard-response","59","1123060","0.0-59.0","D567704642C44F539598A366F54C12B1","019cf478-4894-7c68-b928-3e8f60efb37e","019cf064-09e4-79bc-8453-421c166e6722","","null","
                <div class=""stimulus-container"">
                    <img src=""images/causal_sequence/dog_causal/dog_causal_1.png"" class=""exp-image"">
                    <div class=""question-area""></div> 
                </div>","null","","","","","","","","",""
"","","","","","html-button-response","60","1124027","0.0-60.0","D567704642C44F539598A366F54C12B1","019cf478-4894-7c68-b928-3e8f60efb37e","019cf064-09e4-79bc-8453-421c166e6722","","965","
                <div class=""stimulus-container"">
                    <img src=""images/causal_sequence/dog_causal/dog_causal_1.png"" class=""exp-image"">
                    <div class=""question-area"">
                        <p style=""font-size: 20px; font-weight: bold; margin: 0;"">Is there a person in this image?</p>
                    </div>
                </div>","0","main_experiment_trial","1","dog_causal","causal_sequence","","","","",""
"","","","","","html-keyboard-response","61","1129032","0.0-61.0","D567704642C44F539598A366F54C12B1","019cf478-4894-7c68-b928-3e8f60efb37e","019cf064-09e4-79bc-8453-421c166e6722","","null","
                <div class=""stimulus-container"">
                    <img src=""images/causal_sequence/dog_causal/dog_causal_2.png"" class=""exp-image"">
                    <div class=""question-area""></div> 
                </div>","null","","","","","","","","",""
"","","","","","html-button-response","62","1129783","0.0-62.0","D567704642C44F539598A366F54C12B1","019cf478-4894-7c68-b928-3e8f60efb37e","019cf064-09e4-79bc-8453-421c166e6722","","748","
                <div class=""stimulus-container"">
                    <img src=""images/causal_sequence/dog_causal/dog_causal_2.png"" class=""exp-image"">
                    <div class=""question-area"">
                        <p style=""font-size: 20px; font-weight: bold; margin: 0;"">Is there a person in this image?</p>
                    </div>
                </div>","0","main_experiment_trial","2","dog_causal","causal_sequence","","","","",""
"","","","","","html-keyboard-response","63","1134795","0.0-63.0","D567704642C44F539598A366F54C12B1","019cf478-4894-7c68-b928-3e8f60efb37e","019cf064-09e4-79bc-8453-421c166e6722","","null","
                <div class=""stimulus-container"">
                    <img src=""images/causal_sequence/dog_causal/dog_causal_3.png"" class=""exp-image"">
                    <div class=""question-area""></div> 
                </div>","null","","","","","","","","",""
"","","","","","html-button-response","64","1135880","0.0-64.0","D567704642C44F539598A366F54C12B1","019cf478-4894-7c68-b928-3e8f60efb37e","019cf064-09e4-79bc-8453-421c166e6722","","1084","
                <div class=""stimulus-container"">
                    <img src=""images/causal_sequence/dog_causal/dog_causal_3.png"" class=""exp-image"">
                    <div class=""question-area"">
                        <p style=""font-size: 20px; font-weight: bold; margin: 0;"">Is there a person in this image?</p>
                    </div>
                </div>","0","main_experiment_trial","3","dog_causal","causal_sequence","","","","",""
"","","","","","html-keyboard-response","65","1140888","0.0-65.0","D567704642C44F539598A366F54C12B1","019cf478-4894-7c68-b928-3e8f60efb37e","019cf064-09e4-79bc-8453-421c166e6722","","null","
                <div class=""stimulus-container"">
                    <img src=""images/causal_sequence/dog_causal/dog_causal_4.png"" class=""exp-image"">
                    <div class=""question-area""></div> 
                </div>","null","","","","","","","","",""
"","","","","","html-button-response","66","1141644","0.0-66.0","D567704642C44F539598A366F54C12B1","019cf478-4894-7c68-b928-3e8f60efb37e","019cf064-09e4-79bc-8453-421c166e6722","","754","
                <div class=""stimulus-container"">
                    <img src=""images/causal_sequence/dog_causal/dog_causal_4.png"" class=""exp-image"">
                    <div class=""question-area"">
                        <p style=""font-size: 20px; font-weight: bold; margin: 0;"">Is there a person in this image?</p>
                    </div>
                </div>","0","main_experiment_trial","4","dog_causal","causal_sequence","","","","",""
"","","","","","html-keyboard-response","67","1146651","0.0-67.0","D567704642C44F539598A366F54C12B1","019cf478-4894-7c68-b928-3e8f60efb37e","019cf064-09e4-79bc-8453-421c166e6722","","null","
                <div class=""stimulus-container"">
                    <img src=""images/causal_sequence/dog_causal/dog_causal_5.png"" class=""exp-image"">
                    <div class=""question-area""></div> 
                </div>","null","","","","","","","","",""
"","","","","","html-button-response","68","1147665","0.0-68.0","D567704642C44F539598A366F54C12B1","019cf478-4894-7c68-b928-3e8f60efb37e","019cf064-09e4-79bc-8453-421c166e6722","","1011","
                <div class=""stimulus-container"">
                    <img src=""images/causal_sequence/dog_causal/dog_causal_5.png"" class=""exp-image"">
                    <div class=""question-area"">
                        <p style=""font-size: 20px; font-weight: bold; margin: 0;"">Is there a person in this image?</p>
                    </div>
                </div>","0","main_experiment_trial","5","dog_causal","causal_sequence","","","","",""
"","","","","","html-keyboard-response","69","1152678","0.0-69.0","D567704642C44F539598A366F54C12B1","019cf478-4894-7c68-b928-3e8f60efb37e","019cf064-09e4-79bc-8453-421c166e6722","","null","
                <div class=""stimulus-container"">
                    <img src=""images/causal_sequence/dog_causal/dog_causal_6.png"" class=""exp-image"">
                    <div class=""question-area""></div> 
                </div>","null","","","","","","","","",""
"","","","","","html-button-response","70","1153534","0.0-70.0","D567704642C44F539598A366F54C12B1","019cf478-4894-7c68-b928-3e8f60efb37e","019cf064-09e4-79bc-8453-421c166e6722","","855","
                <div class=""stimulus-container"">
                    <img src=""images/causal_sequence/dog_causal/dog_causal_6.png"" class=""exp-image"">
                    <div class=""question-area"">
                        <p style=""font-size: 20px; font-weight: bold; margin: 0;"">Is there a person in this image?</p>
                    </div>
                </div>","0","main_experiment_trial","6","dog_causal","causal_sequence","","","","",""
"","","","","","html-keyboard-response","71","1158546","0.0-71.0","D567704642C44F539598A366F54C12B1","019cf478-4894-7c68-b928-3e8f60efb37e","019cf064-09e4-79bc-8453-421c166e6722","","null","
                <div class=""stimulus-container"">
                    <img src=""images/causal_sequence/dog_causal/dog_causal_7.png"" class=""exp-image"">
                    <div class=""question-area""></div> 
                </div>","null","","","","","","","","",""
"","","","","","html-button-response","72","1159715","0.0-72.0","D567704642C44F539598A366F54C12B1","019cf478-4894-7c68-b928-3e8f60efb37e","019cf064-09e4-79bc-8453-421c166e6722","","1167","
                <div class=""stimulus-container"">
                    <img src=""images/causal_sequence/dog_causal/dog_causal_7.png"" class=""exp-image"">
                    <div class=""question-area"">
                        <p style=""font-size: 20px; font-weight: bold; margin: 0;"">Is there a person in this image?</p>
                    </div>
                </div>","0","main_experiment_trial","7","dog_causal","causal_sequence","","","","",""
"","","","","","html-keyboard-response","73","1164725","0.0-73.0","D567704642C44F539598A366F54C12B1","019cf478-4894-7c68-b928-3e8f60efb37e","019cf064-09e4-79bc-8453-421c166e6722","","null","
                <div class=""stimulus-container"">
                    <img src=""images/causal_sequence/dog_causal/dog_causal_8.png"" class=""exp-image"">
                    <div class=""question-area""></div> 
                </div>","null","","","","","","","","",""
"","","","","","html-button-response","74","1165377","0.0-74.0","D567704642C44F539598A366F54C12B1","019cf478-4894-7c68-b928-3e8f60efb37e","019cf064-09e4-79bc-8453-421c166e6722","","650","
                <div class=""stimulus-container"">
                    <img src=""images/causal_sequence/dog_causal/dog_causal_8.png"" class=""exp-image"">
                    <div class=""question-area"">
                        <p style=""font-size: 20px; font-weight: bold; margin: 0;"">Is there a person in this image?</p>
                    </div>
                </div>","0","main_experiment_trial","8","dog_causal","causal_sequence","","","","",""
"","","","","","html-keyboard-response","75","1170388","0.0-75.0","D567704642C44F539598A366F54C12B1","019cf478-4894-7c68-b928-3e8f60efb37e","019cf064-09e4-79bc-8453-421c166e6722","","null","
                <div class=""stimulus-container"">
                    <img src=""images/causal_sequence/dog_causal/dog_causal_9.png"" class=""exp-image"">
                    <div class=""question-area""></div> 
                </div>","null","","","","","","","","",""
"","","","","","html-button-response","76","1170625","0.0-76.0","D567704642C44F539598A366F54C12B1","019cf478-4894-7c68-b928-3e8f60efb37e","019cf064-09e4-79bc-8453-421c166e6722","","235","
                <div class=""stimulus-container"">
                    <img src=""images/causal_sequence/dog_causal/dog_causal_9.png"" class=""exp-image"">
                    <div class=""question-area"">
                        <p style=""font-size: 20px; font-weight: bold; margin: 0;"">Is there a person in this image?</p>
                    </div>
                </div>","0","main_experiment_trial","9","dog_causal","causal_sequence","","","","",""
"","","","","","html-keyboard-response","77","1175638","0.0-77.0","D567704642C44F539598A366F54C12B1","019cf478-4894-7c68-b928-3e8f60efb37e","019cf064-09e4-79bc-8453-421c166e6722","","null","
                <div class=""stimulus-container"">
                    <img src=""images/causal_sequence/dog_causal/dog_causal_ten.png"" class=""exp-image"">
                    <div class=""question-area""></div> 
                </div>","null","","","","","","","","",""
"","","","","","html-button-response","78","1176434","0.0-78.0","D567704642C44F539598A366F54C12B1","019cf478-4894-7c68-b928-3e8f60efb37e","019cf064-09e4-79bc-8453-421c166e6722","","793","
                <div class=""stimulus-container"">
                    <img src=""images/causal_sequence/dog_causal/dog_causal_ten.png"" class=""exp-image"">
                    <div class=""question-area"">
                        <p style=""font-size: 20px; font-weight: bold; margin: 0;"">Is there a person in this image?</p>
                    </div>
                </div>","0","main_experiment_trial","ten","dog_causal","causal_sequence","","","","",""
"","","","","","html-keyboard-response","79","1177441","0.0-79.0","D567704642C44F539598A366F54C12B1","019cf478-4894-7c68-b928-3e8f60efb37e","019cf064-09e4-79bc-8453-421c166e6722","","null","<div style=""background-color: white; width: 100vw; height: 100vh;""></div>","null","","","","","","","","",""
"","","","","","html-keyboard-response","80","1182453","0.0-80.0","D567704642C44F539598A366F54C12B1","019cf478-4894-7c68-b928-3e8f60efb37e","019cf064-09e4-79bc-8453-421c166e6722","","null","
                <div class=""stimulus-container"">
                    <img src=""images/schematic_sequence/restaurant_scheme/restaurant_scheme_1.png"" class=""exp-image"">
                    <div class=""question-area""></div> 
                </div>","null","","","","","","","","",""
"","","","","","html-button-response","81","1183222","0.0-81.0","D567704642C44F539598A366F54C12B1","019cf478-4894-7c68-b928-3e8f60efb37e","019cf064-09e4-79bc-8453-421c166e6722","","767","
                <div class=""stimulus-container"">
                    <img src=""images/schematic_sequence/restaurant_scheme/restaurant_scheme_1.png"" class=""exp-image"">
                    <div class=""question-area"">
                        <p style=""font-size: 20px; font-weight: bold; margin: 0;"">Is there a person in this image?</p>
                    </div>
                </div>","0","main_experiment_trial","1","restaurant_scheme","schematic_sequence","","","","",""
"","","","","","html-keyboard-response","82","1188235","0.0-82.0","D567704642C44F539598A366F54C12B1","019cf478-4894-7c68-b928-3e8f60efb37e","019cf064-09e4-79bc-8453-421c166e6722","","null","
                <div class=""stimulus-container"">
                    <img src=""images/schematic_sequence/restaurant_scheme/restaurant_scheme_2.png"" class=""exp-image"">
                    <div class=""question-area""></div> 
                </div>","null","","","","","","","","",""
"","","","","","html-button-response","83","1188942","0.0-83.0","D567704642C44F539598A366F54C12B1","019cf478-4894-7c68-b928-3e8f60efb37e","019cf064-09e4-79bc-8453-421c166e6722","","705","
                <div class=""stimulus-container"">
                    <img src=""images/schematic_sequence/restaurant_scheme/restaurant_scheme_2.png"" class=""exp-image"">
                    <div class=""question-area"">
                        <p style=""font-size: 20px; font-weight: bold; margin: 0;"">Is there a person in this image?</p>
                    </div>
                </div>","1","main_experiment_trial","2","restaurant_scheme","schematic_sequence","","","","",""
"","","","","","html-keyboard-response","84","1193950","0.0-84.0","D567704642C44F539598A366F54C12B1","019cf478-4894-7c68-b928-3e8f60efb37e","019cf064-09e4-79bc-8453-421c166e6722","","null","
                <div class=""stimulus-container"">
                    <img src=""images/schematic_sequence/restaurant_scheme/restaurant_scheme_3.png"" class=""exp-image"">
                    <div class=""question-area""></div> 
                </div>","null","","","","","","","","",""
"","","","","","html-button-response","85","1195029","0.0-85.0","D567704642C44F539598A366F54C12B1","019cf478-4894-7c68-b928-3e8f60efb37e","019cf064-09e4-79bc-8453-421c166e6722","","1077","
                <div class=""stimulus-container"">
                    <img src=""images/schematic_sequence/restaurant_scheme/restaurant_scheme_3.png"" class=""exp-image"">
                    <div class=""question-area"">
                        <p style=""font-size: 20px; font-weight: bold; margin: 0;"">Is there a person in this image?</p>
                    </div>
                </div>","1","main_experiment_trial","3","restaurant_scheme","schematic_sequence","","","","",""
"","","","","","html-keyboard-response","86","1200044","0.0-86.0","D567704642C44F539598A366F54C12B1","019cf478-4894-7c68-b928-3e8f60efb37e","019cf064-09e4-79bc-8453-421c166e6722","","null","
                <div class=""stimulus-container"">
                    <img src=""images/schematic_sequence/restaurant_scheme/restaurant_scheme_4.png"" class=""exp-image"">
                    <div class=""question-area""></div> 
                </div>","null","","","","","","","","",""
"","","","","","html-button-response","87","1200788","0.0-87.0","D567704642C44F539598A366F54C12B1","019cf478-4894-7c68-b928-3e8f60efb37e","019cf064-09e4-79bc-8453-421c166e6722","","741","
                <div class=""stimulus-container"">
                    <img src=""images/schematic_sequence/restaurant_scheme/restaurant_scheme_4.png"" class=""exp-image"">
                    <div class=""question-area"">
                        <p style=""font-size: 20px; font-weight: bold; margin: 0;"">Is there a person in this image?</p>
                    </div>
                </div>","0","main_experiment_trial","4","restaurant_scheme","schematic_sequence","","","","",""
"","","","","","html-keyboard-response","88","1205792","0.0-88.0","D567704642C44F539598A366F54C12B1","019cf478-4894-7c68-b928-3e8f60efb37e","019cf064-09e4-79bc-8453-421c166e6722","","null","
                <div class=""stimulus-container"">
                    <img src=""images/schematic_sequence/restaurant_scheme/restaurant_scheme_5.png"" class=""exp-image"">
                    <div class=""question-area""></div> 
                </div>","null","","","","","","","","",""
"","","","","","html-button-response","89","1206555","0.0-89.0","D567704642C44F539598A366F54C12B1","019cf478-4894-7c68-b928-3e8f60efb37e","019cf064-09e4-79bc-8453-421c166e6722","","761","
                <div class=""stimulus-container"">
                    <img src=""images/schematic_sequence/restaurant_scheme/restaurant_scheme_5.png"" class=""exp-image"">
                    <div class=""question-area"">
                        <p style=""font-size: 20px; font-weight: bold; margin: 0;"">Is there a person in this image?</p>
                    </div>
                </div>","0","main_experiment_trial","5","restaurant_scheme","schematic_sequence","","","","",""
"","","","","","html-keyboard-response","90","1211564","0.0-90.0","D567704642C44F539598A366F54C12B1","019cf478-4894-7c68-b928-3e8f60efb37e","019cf064-09e4-79bc-8453-421c166e6722","","null","
                <div class=""stimulus-container"">
                    <img src=""images/schematic_sequence/restaurant_scheme/restaurant_scheme_6.png"" class=""exp-image"">
                    <div class=""question-area""></div> 
                </div>","null","","","","","","","","",""
"","","","","","html-button-response","91","1212535","0.0-91.0","D567704642C44F539598A366F54C12B1","019cf478-4894-7c68-b928-3e8f60efb37e","019cf064-09e4-79bc-8453-421c166e6722","","968","
                <div class=""stimulus-container"">
                    <img src=""images/schematic_sequence/restaurant_scheme/restaurant_scheme_6.png"" class=""exp-image"">
                    <div class=""question-area"">
                        <p style=""font-size: 20px; font-weight: bold; margin: 0;"">Is there a person in this image?</p>
                    </div>
                </div>","1","main_experiment_trial","6","restaurant_scheme","schematic_sequence","","","","",""
"","","","","","html-keyboard-response","92","1217541","0.0-92.0","D567704642C44F539598A366F54C12B1","019cf478-4894-7c68-b928-3e8f60efb37e","019cf064-09e4-79bc-8453-421c166e6722","","null","
                <div class=""stimulus-container"">
                    <img src=""images/schematic_sequence/restaurant_scheme/restaurant_scheme_7.png"" class=""exp-image"">
                    <div class=""question-area""></div> 
                </div>","null","","","","","","","","",""
"","","","","","html-button-response","93","1218736","0.0-93.0","D567704642C44F539598A366F54C12B1","019cf478-4894-7c68-b928-3e8f60efb37e","019cf064-09e4-79bc-8453-421c166e6722","","1192","
                <div class=""stimulus-container"">
                    <img src=""images/schematic_sequence/restaurant_scheme/restaurant_scheme_7.png"" class=""exp-image"">
                    <div class=""question-area"">
                        <p style=""font-size: 20px; font-weight: bold; margin: 0;"">Is there a person in this image?</p>
                    </div>
                </div>","1","main_experiment_trial","7","restaurant_scheme","schematic_sequence","","","","",""
"","","","","","html-keyboard-response","94","1223741","0.0-94.0","D567704642C44F539598A366F54C12B1","019cf478-4894-7c68-b928-3e8f60efb37e","019cf064-09e4-79bc-8453-421c166e6722","","null","
                <div class=""stimulus-container"">
                    <img src=""images/schematic_sequence/restaurant_scheme/restaurant_scheme_8.png"" class=""exp-image"">
                    <div class=""question-area""></div> 
                </div>","null","","","","","","","","",""
"","","","","","html-button-response","95","1224884","0.0-95.0","D567704642C44F539598A366F54C12B1","019cf478-4894-7c68-b928-3e8f60efb37e","019cf064-09e4-79bc-8453-421c166e6722","","1140","
                <div class=""stimulus-container"">
                    <img src=""images/schematic_sequence/restaurant_scheme/restaurant_scheme_8.png"" class=""exp-image"">
                    <div class=""question-area"">
                        <p style=""font-size: 20px; font-weight: bold; margin: 0;"">Is there a person in this image?</p>
                    </div>
                </div>","0","main_experiment_trial","8","restaurant_scheme","schematic_sequence","","","","",""
"","","","","","html-keyboard-response","96","1229900","0.0-96.0","D567704642C44F539598A366F54C12B1","019cf478-4894-7c68-b928-3e8f60efb37e","019cf064-09e4-79bc-8453-421c166e6722","","null","
                <div class=""stimulus-container"">
                    <img src=""images/schematic_sequence/restaurant_scheme/restaurant_scheme_9.png"" class=""exp-image"">
                    <div class=""question-area""></div> 
                </div>","null","","","","","","","","",""
"","","","","","html-button-response","97","1230603","0.0-97.0","D567704642C44F539598A366F54C12B1","019cf478-4894-7c68-b928-3e8f60efb37e","019cf064-09e4-79bc-8453-421c166e6722","","701","
                <div class=""stimulus-container"">
                    <img src=""images/schematic_sequence/restaurant_scheme/restaurant_scheme_9.png"" class=""exp-image"">
                    <div class=""question-area"">
                        <p style=""font-size: 20px; font-weight: bold; margin: 0;"">Is there a person in this image?</p>
                    </div>
                </div>","0","main_experiment_trial","9","restaurant_scheme","schematic_sequence","","","","",""
"","","","","","html-keyboard-response","98","1235614","0.0-98.0","D567704642C44F539598A366F54C12B1","019cf478-4894-7c68-b928-3e8f60efb37e","019cf064-09e4-79bc-8453-421c166e6722","","null","
                <div class=""stimulus-container"">
                    <img src=""images/schematic_sequence/restaurant_scheme/restaurant_scheme_ten.png"" class=""exp-image"">
                    <div class=""question-area""></div> 
                </div>","null","","","","","","","","",""
"","","","","","html-button-response","99","1237210","0.0-99.0","D567704642C44F539598A366F54C12B1","019cf478-4894-7c68-b928-3e8f60efb37e","019cf064-09e4-79bc-8453-421c166e6722","","1593","
                <div class=""stimulus-container"">
                    <img src=""images/schematic_sequence/restaurant_scheme/restaurant_scheme_ten.png"" class=""exp-image"">
                    <div class=""question-area"">
                        <p style=""font-size: 20px; font-weight: bold; margin: 0;"">Is there a person in this image?</p>
                    </div>
                </div>","0","main_experiment_trial","ten","restaurant_scheme","schematic_sequence","","","","",""
"","","","","","html-keyboard-response","100","1238212","0.0-100.0","D567704642C44F539598A366F54C12B1","019cf478-4894-7c68-b928-3e8f60efb37e","019cf064-09e4-79bc-8453-421c166e6722","","null","<div style=""background-color: white; width: 100vw; height: 100vh;""></div>","null","","","","","","","","",""
"","","","","","html-keyboard-response","101","1243228","0.0-101.0","D567704642C44F539598A366F54C12B1","019cf478-4894-7c68-b928-3e8f60efb37e","019cf064-09e4-79bc-8453-421c166e6722","","null","
                <div class=""stimulus-container"">
                    <img src=""images/schematic_sequence/supermarket_scheme/supermarket_scheme_1.png"" class=""exp-image"">
                    <div class=""question-area""></div> 
                </div>","null","","","","","","","","",""
"","","","","","html-button-response","102","1244956","0.0-102.0","D567704642C44F539598A366F54C12B1","019cf478-4894-7c68-b928-3e8f60efb37e","019cf064-09e4-79bc-8453-421c166e6722","","1726","
                <div class=""stimulus-container"">
                    <img src=""images/schematic_sequence/supermarket_scheme/supermarket_scheme_1.png"" class=""exp-image"">
                    <div class=""question-area"">
                        <p style=""font-size: 20px; font-weight: bold; margin: 0;"">Is there a person in this image?</p>
                    </div>
                </div>","1","main_experiment_trial","1","supermarket_scheme","schematic_sequence","","","","",""
"","","","","","html-keyboard-response","103","1249971","0.0-103.0","D567704642C44F539598A366F54C12B1","019cf478-4894-7c68-b928-3e8f60efb37e","019cf064-09e4-79bc-8453-421c166e6722","","null","
                <div class=""stimulus-container"">
                    <img src=""images/schematic_sequence/supermarket_scheme/supermarket_scheme_2.png"" class=""exp-image"">
                    <div class=""question-area""></div> 
                </div>","null","","","","","","","","",""
"","","","","","html-button-response","104","1251171","0.0-104.0","D567704642C44F539598A366F54C12B1","019cf478-4894-7c68-b928-3e8f60efb37e","019cf064-09e4-79bc-8453-421c166e6722","","1197","
                <div class=""stimulus-container"">
                    <img src=""images/schematic_sequence/supermarket_scheme/supermarket_scheme_2.png"" class=""exp-image"">
                    <div class=""question-area"">
                        <p style=""font-size: 20px; font-weight: bold; margin: 0;"">Is there a person in this image?</p>
                    </div>
                </div>","1","main_experiment_trial","2","supermarket_scheme","schematic_sequence","","","","",""
"","","","","","html-keyboard-response","105","1256174","0.0-105.0","D567704642C44F539598A366F54C12B1","019cf478-4894-7c68-b928-3e8f60efb37e","019cf064-09e4-79bc-8453-421c166e6722","","null","
                <div class=""stimulus-container"">
                    <img src=""images/schematic_sequence/supermarket_scheme/supermarket_scheme_3.png"" class=""exp-image"">
                    <div class=""question-area""></div> 
                </div>","null","","","","","","","","",""
"","","","","","html-button-response","106","1257035","0.0-106.0","D567704642C44F539598A366F54C12B1","019cf478-4894-7c68-b928-3e8f60efb37e","019cf064-09e4-79bc-8453-421c166e6722","","859","
                <div class=""stimulus-container"">
                    <img src=""images/schematic_sequence/supermarket_scheme/supermarket_scheme_3.png"" class=""exp-image"">
                    <div class=""question-area"">
                        <p style=""font-size: 20px; font-weight: bold; margin: 0;"">Is there a person in this image?</p>
                    </div>
                </div>","1","main_experiment_trial","3","supermarket_scheme","schematic_sequence","","","","",""
"","","","","","html-keyboard-response","107","1262038","0.0-107.0","D567704642C44F539598A366F54C12B1","019cf478-4894-7c68-b928-3e8f60efb37e","019cf064-09e4-79bc-8453-421c166e6722","","null","
                <div class=""stimulus-container"">
                    <img src=""images/schematic_sequence/supermarket_scheme/supermarket_scheme_4.png"" class=""exp-image"">
                    <div class=""question-area""></div> 
                </div>","null","","","","","","","","",""
"","","","","","html-button-response","108","1262922","0.0-108.0","D567704642C44F539598A366F54C12B1","019cf478-4894-7c68-b928-3e8f60efb37e","019cf064-09e4-79bc-8453-421c166e6722","","881","
                <div class=""stimulus-container"">
                    <img src=""images/schematic_sequence/supermarket_scheme/supermarket_scheme_4.png"" class=""exp-image"">
                    <div class=""question-area"">
                        <p style=""font-size: 20px; font-weight: bold; margin: 0;"">Is there a person in this image?</p>
                    </div>
                </div>","0","main_experiment_trial","4","supermarket_scheme","schematic_sequence","","","","",""
"","","","","","html-keyboard-response","109","1267930","0.0-109.0","D567704642C44F539598A366F54C12B1","019cf478-4894-7c68-b928-3e8f60efb37e","019cf064-09e4-79bc-8453-421c166e6722","","null","
                <div class=""stimulus-container"">
                    <img src=""images/schematic_sequence/supermarket_scheme/supermarket_scheme_5.png"" class=""exp-image"">
                    <div class=""question-area""></div> 
                </div>","null","","","","","","","","",""
"","","","","","html-button-response","110","1269098","0.0-110.0","D567704642C44F539598A366F54C12B1","019cf478-4894-7c68-b928-3e8f60efb37e","019cf064-09e4-79bc-8453-421c166e6722","","1167","
                <div class=""stimulus-container"">
                    <img src=""images/schematic_sequence/supermarket_scheme/supermarket_scheme_5.png"" class=""exp-image"">
                    <div class=""question-area"">
                        <p style=""font-size: 20px; font-weight: bold; margin: 0;"">Is there a person in this image?</p>
                    </div>
                </div>","1","main_experiment_trial","5","supermarket_scheme","schematic_sequence","","","","",""
"","","","","","html-keyboard-response","111","1274111","0.0-111.0","D567704642C44F539598A366F54C12B1","019cf478-4894-7c68-b928-3e8f60efb37e","019cf064-09e4-79bc-8453-421c166e6722","","null","
                <div class=""stimulus-container"">
                    <img src=""images/schematic_sequence/supermarket_scheme/supermarket_scheme_6.png"" class=""exp-image"">
                    <div class=""question-area""></div> 
                </div>","null","","","","","","","","",""
"","","","","","html-button-response","112","1274983","0.0-112.0","D567704642C44F539598A366F54C12B1","019cf478-4894-7c68-b928-3e8f60efb37e","019cf064-09e4-79bc-8453-421c166e6722","","871","
                <div class=""stimulus-container"">
                    <img src=""images/schematic_sequence/supermarket_scheme/supermarket_scheme_6.png"" class=""exp-image"">
                    <div class=""question-area"">
                        <p style=""font-size: 20px; font-weight: bold; margin: 0;"">Is there a person in this image?</p>
                    </div>
                </div>","0","main_experiment_trial","6","supermarket_scheme","schematic_sequence","","","","",""
"","","","","","html-keyboard-response","113","1279998","0.0-113.0","D567704642C44F539598A366F54C12B1","019cf478-4894-7c68-b928-3e8f60efb37e","019cf064-09e4-79bc-8453-421c166e6722","","null","
                <div class=""stimulus-container"">
                    <img src=""images/schematic_sequence/supermarket_scheme/supermarket_scheme_7.png"" class=""exp-image"">
                    <div class=""question-area""></div> 
                </div>","null","","","","","","","","",""
"","","","","","html-button-response","114","1280839","0.0-114.0","D567704642C44F539598A366F54C12B1","019cf478-4894-7c68-b928-3e8f60efb37e","019cf064-09e4-79bc-8453-421c166e6722","","840","
                <div class=""stimulus-container"">
                    <img src=""images/schematic_sequence/supermarket_scheme/supermarket_scheme_7.png"" class=""exp-image"">
                    <div class=""question-area"">
                        <p style=""font-size: 20px; font-weight: bold; margin: 0;"">Is there a person in this image?</p>
                    </div>
                </div>","0","main_experiment_trial","7","supermarket_scheme","schematic_sequence","","","","",""
"","","","","","html-keyboard-response","115","1285847","0.0-115.0","D567704642C44F539598A366F54C12B1","019cf478-4894-7c68-b928-3e8f60efb37e","019cf064-09e4-79bc-8453-421c166e6722","","null","
                <div class=""stimulus-container"">
                    <img src=""images/schematic_sequence/supermarket_scheme/supermarket_scheme_8.png"" class=""exp-image"">
                    <div class=""question-area""></div> 
                </div>","null","","","","","","","","",""
"","","","","","html-button-response","116","1286502","0.0-116.0","D567704642C44F539598A366F54C12B1","019cf478-4894-7c68-b928-3e8f60efb37e","019cf064-09e4-79bc-8453-421c166e6722","","653","
                <div class=""stimulus-container"">
                    <img src=""images/schematic_sequence/supermarket_scheme/supermarket_scheme_8.png"" class=""exp-image"">
                    <div class=""question-area"">
                        <p style=""font-size: 20px; font-weight: bold; margin: 0;"">Is there a person in this image?</p>
                    </div>
                </div>","0","main_experiment_trial","8","supermarket_scheme","schematic_sequence","","","","",""
"","","","","","html-keyboard-response","117","1291503","0.0-117.0","D567704642C44F539598A366F54C12B1","019cf478-4894-7c68-b928-3e8f60efb37e","019cf064-09e4-79bc-8453-421c166e6722","","null","
                <div class=""stimulus-container"">
                    <img src=""images/schematic_sequence/supermarket_scheme/supermarket_scheme_9.png"" class=""exp-image"">
                    <div class=""question-area""></div> 
                </div>","null","","","","","","","","",""
"","","","","","html-button-response","118","1292495","0.0-118.0","D567704642C44F539598A366F54C12B1","019cf478-4894-7c68-b928-3e8f60efb37e","019cf064-09e4-79bc-8453-421c166e6722","","989","
                <div class=""stimulus-container"">
                    <img src=""images/schematic_sequence/supermarket_scheme/supermarket_scheme_9.png"" class=""exp-image"">
                    <div class=""question-area"">
                        <p style=""font-size: 20px; font-weight: bold; margin: 0;"">Is there a person in this image?</p>
                    </div>
                </div>","0","main_experiment_trial","9","supermarket_scheme","schematic_sequence","","","","",""
"","","","","","html-keyboard-response","119","1297499","0.0-119.0","D567704642C44F539598A366F54C12B1","019cf478-4894-7c68-b928-3e8f60efb37e","019cf064-09e4-79bc-8453-421c166e6722","","null","
                <div class=""stimulus-container"">
                    <img src=""images/schematic_sequence/supermarket_scheme/supermarket_scheme_ten.png"" class=""exp-image"">
                    <div class=""question-area""></div> 
                </div>","null","","","","","","","","",""
"","","","","","html-button-response","120","1298629","0.0-120.0","D567704642C44F539598A366F54C12B1","019cf478-4894-7c68-b928-3e8f60efb37e","019cf064-09e4-79bc-8453-421c166e6722","","1128","
                <div class=""stimulus-container"">
                    <img src=""images/schematic_sequence/supermarket_scheme/supermarket_scheme_ten.png"" class=""exp-image"">
                    <div class=""question-area"">
                        <p style=""font-size: 20px; font-weight: bold; margin: 0;"">Is there a person in this image?</p>
                    </div>
                </div>","1","main_experiment_trial","ten","supermarket_scheme","schematic_sequence","","","","",""
"","","","","","html-keyboard-response","121","1299644","0.0-121.0","D567704642C44F539598A366F54C12B1","019cf478-4894-7c68-b928-3e8f60efb37e","019cf064-09e4-79bc-8453-421c166e6722","","null","<div style=""background-color: white; width: 100vw; height: 100vh;""></div>","null","","","","","","","","",""
"","","","","","html-keyboard-response","122","1304659","0.0-122.0","D567704642C44F539598A366F54C12B1","019cf478-4894-7c68-b928-3e8f60efb37e","019cf064-09e4-79bc-8453-421c166e6722","","null","
                <div class=""stimulus-container"">
                    <img src=""images/schematic_sequence/interview_scheme/interview_scheme_1.png"" class=""exp-image"">
                    <div class=""question-area""></div> 
                </div>","null","","","","","","","","",""
"","","","","","html-button-response","123","1305378","0.0-123.0","D567704642C44F539598A366F54C12B1","019cf478-4894-7c68-b928-3e8f60efb37e","019cf064-09e4-79bc-8453-421c166e6722","","717","
                <div class=""stimulus-container"">
                    <img src=""images/schematic_sequence/interview_scheme/interview_scheme_1.png"" class=""exp-image"">
                    <div class=""question-area"">
                        <p style=""font-size: 20px; font-weight: bold; margin: 0;"">Is there a person in this image?</p>
                    </div>
                </div>","1","main_experiment_trial","1","interview_scheme","schematic_sequence","","","","",""
"","","","","","html-keyboard-response","124","1310381","0.0-124.0","D567704642C44F539598A366F54C12B1","019cf478-4894-7c68-b928-3e8f60efb37e","019cf064-09e4-79bc-8453-421c166e6722","","null","
                <div class=""stimulus-container"">
                    <img src=""images/schematic_sequence/interview_scheme/interview_scheme_2.png"" class=""exp-image"">
                    <div class=""question-area""></div> 
                </div>","null","","","","","","","","",""
"","","","","","html-button-response","125","1311598","0.0-125.0","D567704642C44F539598A366F54C12B1","019cf478-4894-7c68-b928-3e8f60efb37e","019cf064-09e4-79bc-8453-421c166e6722","","1215","
                <div class=""stimulus-container"">
                    <img src=""images/schematic_sequence/interview_scheme/interview_scheme_2.png"" class=""exp-image"">
                    <div class=""question-area"">
                        <p style=""font-size: 20px; font-weight: bold; margin: 0;"">Is there a person in this image?</p>
                    </div>
                </div>","0","main_experiment_trial","2","interview_scheme","schematic_sequence","","","","",""
"","","","","","html-keyboard-response","126","1316602","0.0-126.0","D567704642C44F539598A366F54C12B1","019cf478-4894-7c68-b928-3e8f60efb37e","019cf064-09e4-79bc-8453-421c166e6722","","null","
                <div class=""stimulus-container"">
                    <img src=""images/schematic_sequence/interview_scheme/interview_scheme_3.png"" class=""exp-image"">
                    <div class=""question-area""></div> 
                </div>","null","","","","","","","","",""
"","","","","","html-button-response","127","1318359","0.0-127.0","D567704642C44F539598A366F54C12B1","019cf478-4894-7c68-b928-3e8f60efb37e","019cf064-09e4-79bc-8453-421c166e6722","","1755","
                <div class=""stimulus-container"">
                    <img src=""images/schematic_sequence/interview_scheme/interview_scheme_3.png"" class=""exp-image"">
                    <div class=""question-area"">
                        <p style=""font-size: 20px; font-weight: bold; margin: 0;"">Is there a person in this image?</p>
                    </div>
                </div>","1","main_experiment_trial","3","interview_scheme","schematic_sequence","","","","",""
"","","","","","html-keyboard-response","128","1323373","0.0-128.0","D567704642C44F539598A366F54C12B1","019cf478-4894-7c68-b928-3e8f60efb37e","019cf064-09e4-79bc-8453-421c166e6722","","null","
                <div class=""stimulus-container"">
                    <img src=""images/schematic_sequence/interview_scheme/interview_scheme_4.png"" class=""exp-image"">
                    <div class=""question-area""></div> 
                </div>","null","","","","","","","","",""
"","","","","","html-button-response","129","1324113","0.0-129.0","D567704642C44F539598A366F54C12B1","019cf478-4894-7c68-b928-3e8f60efb37e","019cf064-09e4-79bc-8453-421c166e6722","","736","
                <div class=""stimulus-container"">
                    <img src=""images/schematic_sequence/interview_scheme/interview_scheme_4.png"" class=""exp-image"">
                    <div class=""question-area"">
                        <p style=""font-size: 20px; font-weight: bold; margin: 0;"">Is there a person in this image?</p>
                    </div>
                </div>","1","main_experiment_trial","4","interview_scheme","schematic_sequence","","","","",""
"","","","","","html-keyboard-response","130","1329117","0.0-130.0","D567704642C44F539598A366F54C12B1","019cf478-4894-7c68-b928-3e8f60efb37e","019cf064-09e4-79bc-8453-421c166e6722","","null","
                <div class=""stimulus-container"">
                    <img src=""images/schematic_sequence/interview_scheme/interview_scheme_5.png"" class=""exp-image"">
                    <div class=""question-area""></div> 
                </div>","null","","","","","","","","",""
"","","","","","html-button-response","131","1329858","0.0-131.0","D567704642C44F539598A366F54C12B1","019cf478-4894-7c68-b928-3e8f60efb37e","019cf064-09e4-79bc-8453-421c166e6722","","739","
                <div class=""stimulus-container"">
                    <img src=""images/schematic_sequence/interview_scheme/interview_scheme_5.png"" class=""exp-image"">
                    <div class=""question-area"">
                        <p style=""font-size: 20px; font-weight: bold; margin: 0;"">Is there a person in this image?</p>
                    </div>
                </div>","0","main_experiment_trial","5","interview_scheme","schematic_sequence","","","","",""
"","","","","","html-keyboard-response","132","1334865","0.0-132.0","D567704642C44F539598A366F54C12B1","019cf478-4894-7c68-b928-3e8f60efb37e","019cf064-09e4-79bc-8453-421c166e6722","","null","
                <div class=""stimulus-container"">
                    <img src=""images/schematic_sequence/interview_scheme/interview_scheme_6.png"" class=""exp-image"">
                    <div class=""question-area""></div> 
                </div>","null","","","","","","","","",""
"","","","","","html-button-response","133","1335644","0.0-133.0","D567704642C44F539598A366F54C12B1","019cf478-4894-7c68-b928-3e8f60efb37e","019cf064-09e4-79bc-8453-421c166e6722","","778","
                <div class=""stimulus-container"">
                    <img src=""images/schematic_sequence/interview_scheme/interview_scheme_6.png"" class=""exp-image"">
                    <div class=""question-area"">
                        <p style=""font-size: 20px; font-weight: bold; margin: 0;"">Is there a person in this image?</p>
                    </div>
                </div>","0","main_experiment_trial","6","interview_scheme","schematic_sequence","","","","",""
"","","","","","html-keyboard-response","134","1340650","0.0-134.0","D567704642C44F539598A366F54C12B1","019cf478-4894-7c68-b928-3e8f60efb37e","019cf064-09e4-79bc-8453-421c166e6722","","null","
                <div class=""stimulus-container"">
                    <img src=""images/schematic_sequence/interview_scheme/interview_scheme_7.png"" class=""exp-image"">
                    <div class=""question-area""></div> 
                </div>","null","","","","","","","","",""
"","","","","","html-button-response","135","1341541","0.0-135.0","D567704642C44F539598A366F54C12B1","019cf478-4894-7c68-b928-3e8f60efb37e","019cf064-09e4-79bc-8453-421c166e6722","","890","
                <div class=""stimulus-container"">
                    <img src=""images/schematic_sequence/interview_scheme/interview_scheme_7.png"" class=""exp-image"">
                    <div class=""question-area"">
                        <p style=""font-size: 20px; font-weight: bold; margin: 0;"">Is there a person in this image?</p>
                    </div>
                </div>","0","main_experiment_trial","7","interview_scheme","schematic_sequence","","","","",""
"","","","","","html-keyboard-response","136","1346553","0.0-136.0","D567704642C44F539598A366F54C12B1","019cf478-4894-7c68-b928-3e8f60efb37e","019cf064-09e4-79bc-8453-421c166e6722","","null","
                <div class=""stimulus-container"">
                    <img src=""images/schematic_sequence/interview_scheme/interview_scheme_8.png"" class=""exp-image"">
                    <div class=""question-area""></div> 
                </div>","null","","","","","","","","",""
"","","","","","html-button-response","137","1347244","0.0-137.0","D567704642C44F539598A366F54C12B1","019cf478-4894-7c68-b928-3e8f60efb37e","019cf064-09e4-79bc-8453-421c166e6722","","689","
                <div class=""stimulus-container"">
                    <img src=""images/schematic_sequence/interview_scheme/interview_scheme_8.png"" class=""exp-image"">
                    <div class=""question-area"">
                        <p style=""font-size: 20px; font-weight: bold; margin: 0;"">Is there a person in this image?</p>
                    </div>
                </div>","0","main_experiment_trial","8","interview_scheme","schematic_sequence","","","","",""
"","","","","","html-keyboard-response","138","1352256","0.0-138.0","D567704642C44F539598A366F54C12B1","019cf478-4894-7c68-b928-3e8f60efb37e","019cf064-09e4-79bc-8453-421c166e6722","","null","
                <div class=""stimulus-container"">
                    <img src=""images/schematic_sequence/interview_scheme/interview_scheme_9.png"" class=""exp-image"">
                    <div class=""question-area""></div> 
                </div>","null","","","","","","","","",""
"","","","","","html-button-response","139","1353311","0.0-139.0","D567704642C44F539598A366F54C12B1","019cf478-4894-7c68-b928-3e8f60efb37e","019cf064-09e4-79bc-8453-421c166e6722","","1054","
                <div class=""stimulus-container"">
                    <img src=""images/schematic_sequence/interview_scheme/interview_scheme_9.png"" class=""exp-image"">
                    <div class=""question-area"">
                        <p style=""font-size: 20px; font-weight: bold; margin: 0;"">Is there a person in this image?</p>
                    </div>
                </div>","0","main_experiment_trial","9","interview_scheme","schematic_sequence","","","","",""
"","","","","","html-keyboard-response","140","1358328","0.0-140.0","D567704642C44F539598A366F54C12B1","019cf478-4894-7c68-b928-3e8f60efb37e","019cf064-09e4-79bc-8453-421c166e6722","","null","
                <div class=""stimulus-container"">
                    <img src=""images/schematic_sequence/interview_scheme/interview_scheme_ten.png"" class=""exp-image"">
                    <div class=""question-area""></div> 
                </div>","null","","","","","","","","",""
"","","","","","html-button-response","141","1359361","0.0-141.0","D567704642C44F539598A366F54C12B1","019cf478-4894-7c68-b928-3e8f60efb37e","019cf064-09e4-79bc-8453-421c166e6722","","1030","
                <div class=""stimulus-container"">
                    <img src=""images/schematic_sequence/interview_scheme/interview_scheme_ten.png"" class=""exp-image"">
                    <div class=""question-area"">
                        <p style=""font-size: 20px; font-weight: bold; margin: 0;"">Is there a person in this image?</p>
                    </div>
                </div>","0","main_experiment_trial","ten","interview_scheme","schematic_sequence","","","","",""
"","","","","","html-keyboard-response","142","1360367","0.0-142.0","D567704642C44F539598A366F54C12B1","019cf478-4894-7c68-b928-3e8f60efb37e","019cf064-09e4-79bc-8453-421c166e6722","","null","<div style=""background-color: white; width: 100vw; height: 100vh;""></div>","null","","","","","","","","",""
"","","","","","html-keyboard-response","143","1365374","0.0-143.0","D567704642C44F539598A366F54C12B1","019cf478-4894-7c68-b928-3e8f60efb37e","019cf064-09e4-79bc-8453-421c166e6722","","null","
                <div class=""stimulus-container"">
                    <img src=""images/causal_sequence/coin_causal/coin_causal_1.png"" class=""exp-image"">
                    <div class=""question-area""></div> 
                </div>","null","","","","","","","","",""
"","","","","","html-button-response","144","1366144","0.0-144.0","D567704642C44F539598A366F54C12B1","019cf478-4894-7c68-b928-3e8f60efb37e","019cf064-09e4-79bc-8453-421c166e6722","","768","
                <div class=""stimulus-container"">
                    <img src=""images/causal_sequence/coin_causal/coin_causal_1.png"" class=""exp-image"">
                    <div class=""question-area"">
                        <p style=""font-size: 20px; font-weight: bold; margin: 0;"">Is there a person in this image?</p>
                    </div>
                </div>","0","main_experiment_trial","1","coin_causal","causal_sequence","","","","",""
"","","","","","html-keyboard-response","145","1371150","0.0-145.0","D567704642C44F539598A366F54C12B1","019cf478-4894-7c68-b928-3e8f60efb37e","019cf064-09e4-79bc-8453-421c166e6722","","null","
                <div class=""stimulus-container"">
                    <img src=""images/causal_sequence/coin_causal/coin_causal_2.png"" class=""exp-image"">
                    <div class=""question-area""></div> 
                </div>","null","","","","","","","","",""
"","","","","","html-button-response","146","1371856","0.0-146.0","D567704642C44F539598A366F54C12B1","019cf478-4894-7c68-b928-3e8f60efb37e","019cf064-09e4-79bc-8453-421c166e6722","","703","
                <div class=""stimulus-container"">
                    <img src=""images/causal_sequence/coin_causal/coin_causal_2.png"" class=""exp-image"">
                    <div class=""question-area"">
                        <p style=""font-size: 20px; font-weight: bold; margin: 0;"">Is there a person in this image?</p>
                    </div>
                </div>","0","main_experiment_trial","2","coin_causal","causal_sequence","","","","",""
"","","","","","html-keyboard-response","147","1376871","0.0-147.0","D567704642C44F539598A366F54C12B1","019cf478-4894-7c68-b928-3e8f60efb37e","019cf064-09e4-79bc-8453-421c166e6722","","null","
                <div class=""stimulus-container"">
                    <img src=""images/causal_sequence/coin_causal/coin_causal_3.png"" class=""exp-image"">
                    <div class=""question-area""></div> 
                </div>","null","","","","","","","","",""
"","","","","","html-button-response","148","1377634","0.0-148.0","D567704642C44F539598A366F54C12B1","019cf478-4894-7c68-b928-3e8f60efb37e","019cf064-09e4-79bc-8453-421c166e6722","","761","
                <div class=""stimulus-container"">
                    <img src=""images/causal_sequence/coin_causal/coin_causal_3.png"" class=""exp-image"">
                    <div class=""question-area"">
                        <p style=""font-size: 20px; font-weight: bold; margin: 0;"">Is there a person in this image?</p>
                    </div>
                </div>","0","main_experiment_trial","3","coin_causal","causal_sequence","","","","",""
"","","","","","html-keyboard-response","149","1382646","0.0-149.0","D567704642C44F539598A366F54C12B1","019cf478-4894-7c68-b928-3e8f60efb37e","019cf064-09e4-79bc-8453-421c166e6722","","null","
                <div class=""stimulus-container"">
                    <img src=""images/causal_sequence/coin_causal/coin_causal_4.png"" class=""exp-image"">
                    <div class=""question-area""></div> 
                </div>","null","","","","","","","","",""
"","","","","","html-button-response","150","1383429","0.0-150.0","D567704642C44F539598A366F54C12B1","019cf478-4894-7c68-b928-3e8f60efb37e","019cf064-09e4-79bc-8453-421c166e6722","","781","
                <div class=""stimulus-container"">
                    <img src=""images/causal_sequence/coin_causal/coin_causal_4.png"" class=""exp-image"">
                    <div class=""question-area"">
                        <p style=""font-size: 20px; font-weight: bold; margin: 0;"">Is there a person in this image?</p>
                    </div>
                </div>","0","main_experiment_trial","4","coin_causal","causal_sequence","","","","",""
"","","","","","html-keyboard-response","151","1388431","0.0-151.0","D567704642C44F539598A366F54C12B1","019cf478-4894-7c68-b928-3e8f60efb37e","019cf064-09e4-79bc-8453-421c166e6722","","null","
                <div class=""stimulus-container"">
                    <img src=""images/causal_sequence/coin_causal/coin_causal_5.png"" class=""exp-image"">
                    <div class=""question-area""></div> 
                </div>","null","","","","","","","","",""
"","","","","","html-button-response","152","1389369","0.0-152.0","D567704642C44F539598A366F54C12B1","019cf478-4894-7c68-b928-3e8f60efb37e","019cf064-09e4-79bc-8453-421c166e6722","","936","
                <div class=""stimulus-container"">
                    <img src=""images/causal_sequence/coin_causal/coin_causal_5.png"" class=""exp-image"">
                    <div class=""question-area"">
                        <p style=""font-size: 20px; font-weight: bold; margin: 0;"">Is there a person in this image?</p>
                    </div>
                </div>","0","main_experiment_trial","5","coin_causal","causal_sequence","","","","",""
"","","","","","html-keyboard-response","153","1394380","0.0-153.0","D567704642C44F539598A366F54C12B1","019cf478-4894-7c68-b928-3e8f60efb37e","019cf064-09e4-79bc-8453-421c166e6722","","null","
                <div class=""stimulus-container"">
                    <img src=""images/causal_sequence/coin_causal/coin_causal_6.png"" class=""exp-image"">
                    <div class=""question-area""></div> 
                </div>","null","","","","","","","","",""
"","","","","","html-button-response","154","1395325","0.0-154.0","D567704642C44F539598A366F54C12B1","019cf478-4894-7c68-b928-3e8f60efb37e","019cf064-09e4-79bc-8453-421c166e6722","","943","
                <div class=""stimulus-container"">
                    <img src=""images/causal_sequence/coin_causal/coin_causal_6.png"" class=""exp-image"">
                    <div class=""question-area"">
                        <p style=""font-size: 20px; font-weight: bold; margin: 0;"">Is there a person in this image?</p>
                    </div>
                </div>","0","main_experiment_trial","6","coin_causal","causal_sequence","","","","",""
"","","","","","html-keyboard-response","155","1400333","0.0-155.0","D567704642C44F539598A366F54C12B1","019cf478-4894-7c68-b928-3e8f60efb37e","019cf064-09e4-79bc-8453-421c166e6722","","null","
                <div class=""stimulus-container"">
                    <img src=""images/causal_sequence/coin_causal/coin_causal_7.png"" class=""exp-image"">
                    <div class=""question-area""></div> 
                </div>","null","","","","","","","","",""
"","","","","","html-button-response","156","1401742","0.0-156.0","D567704642C44F539598A366F54C12B1","019cf478-4894-7c68-b928-3e8f60efb37e","019cf064-09e4-79bc-8453-421c166e6722","","1407","
                <div class=""stimulus-container"">
                    <img src=""images/causal_sequence/coin_causal/coin_causal_7.png"" class=""exp-image"">
                    <div class=""question-area"">
                        <p style=""font-size: 20px; font-weight: bold; margin: 0;"">Is there a person in this image?</p>
                    </div>
                </div>","1","main_experiment_trial","7","coin_causal","causal_sequence","","","","",""
"","","","","","html-keyboard-response","157","1406749","0.0-157.0","D567704642C44F539598A366F54C12B1","019cf478-4894-7c68-b928-3e8f60efb37e","019cf064-09e4-79bc-8453-421c166e6722","","null","
                <div class=""stimulus-container"">
                    <img src=""images/causal_sequence/coin_causal/coin_causal_8.png"" class=""exp-image"">
                    <div class=""question-area""></div> 
                </div>","null","","","","","","","","",""
"","","","","","html-button-response","158","1407455","0.0-158.0","D567704642C44F539598A366F54C12B1","019cf478-4894-7c68-b928-3e8f60efb37e","019cf064-09e4-79bc-8453-421c166e6722","","704","
                <div class=""stimulus-container"">
                    <img src=""images/causal_sequence/coin_causal/coin_causal_8.png"" class=""exp-image"">
                    <div class=""question-area"">
                        <p style=""font-size: 20px; font-weight: bold; margin: 0;"">Is there a person in this image?</p>
                    </div>
                </div>","0","main_experiment_trial","8","coin_causal","causal_sequence","","","","",""
"","","","","","html-keyboard-response","159","1412470","0.0-159.0","D567704642C44F539598A366F54C12B1","019cf478-4894-7c68-b928-3e8f60efb37e","019cf064-09e4-79bc-8453-421c166e6722","","null","
                <div class=""stimulus-container"">
                    <img src=""images/causal_sequence/coin_causal/coin_causal_9.png"" class=""exp-image"">
                    <div class=""question-area""></div> 
                </div>","null","","","","","","","","",""
"","","","","","html-button-response","160","1413412","0.0-160.0","D567704642C44F539598A366F54C12B1","019cf478-4894-7c68-b928-3e8f60efb37e","019cf064-09e4-79bc-8453-421c166e6722","","940","
                <div class=""stimulus-container"">
                    <img src=""images/causal_sequence/coin_causal/coin_causal_9.png"" class=""exp-image"">
                    <div class=""question-area"">
                        <p style=""font-size: 20px; font-weight: bold; margin: 0;"">Is there a person in this image?</p>
                    </div>
                </div>","0","main_experiment_trial","9","coin_causal","causal_sequence","","","","",""
"","","","","","html-keyboard-response","161","1418415","0.0-161.0","D567704642C44F539598A366F54C12B1","019cf478-4894-7c68-b928-3e8f60efb37e","019cf064-09e4-79bc-8453-421c166e6722","","null","
                <div class=""stimulus-container"">
                    <img src=""images/causal_sequence/coin_causal/coin_causal_ten.png"" class=""exp-image"">
                    <div class=""question-area""></div> 
                </div>","null","","","","","","","","",""
"","","","","","html-button-response","162","1419027","0.0-162.0","D567704642C44F539598A366F54C12B1","019cf478-4894-7c68-b928-3e8f60efb37e","019cf064-09e4-79bc-8453-421c166e6722","","610","
                <div class=""stimulus-container"">
                    <img src=""images/causal_sequence/coin_causal/coin_causal_ten.png"" class=""exp-image"">
                    <div class=""question-area"">
                        <p style=""font-size: 20px; font-weight: bold; margin: 0;"">Is there a person in this image?</p>
                    </div>
                </div>","0","main_experiment_trial","ten","coin_causal","causal_sequence","","","","",""
"","","","","","html-keyboard-response","163","1420043","0.0-163.0","D567704642C44F539598A366F54C12B1","019cf478-4894-7c68-b928-3e8f60efb37e","019cf064-09e4-79bc-8453-421c166e6722","","null","<div style=""background-color: white; width: 100vw; height: 100vh;""></div>","null","","","","","","","","",""
"","","","","","html-keyboard-response","164","1425054","0.0-164.0","D567704642C44F539598A366F54C12B1","019cf478-4894-7c68-b928-3e8f60efb37e","019cf064-09e4-79bc-8453-421c166e6722","","null","
                <div class=""stimulus-container"">
                    <img src=""images/schematic_sequence/dinner_party_scheme/dinner_party_scheme_1.png"" class=""exp-image"">
                    <div class=""question-area""></div> 
                </div>","null","","","","","","","","",""
"","","","","","html-button-response","165","1425865","0.0-165.0","D567704642C44F539598A366F54C12B1","019cf478-4894-7c68-b928-3e8f60efb37e","019cf064-09e4-79bc-8453-421c166e6722","","809","
                <div class=""stimulus-container"">
                    <img src=""images/schematic_sequence/dinner_party_scheme/dinner_party_scheme_1.png"" class=""exp-image"">
                    <div class=""question-area"">
                        <p style=""font-size: 20px; font-weight: bold; margin: 0;"">Is there a person in this image?</p>
                    </div>
                </div>","0","main_experiment_trial","1","dinner_party_scheme","schematic_sequence","","","","",""
"","","","","","html-keyboard-response","166","1430871","0.0-166.0","D567704642C44F539598A366F54C12B1","019cf478-4894-7c68-b928-3e8f60efb37e","019cf064-09e4-79bc-8453-421c166e6722","","null","
                <div class=""stimulus-container"">
                    <img src=""images/schematic_sequence/dinner_party_scheme/dinner_party_scheme_2.png"" class=""exp-image"">
                    <div class=""question-area""></div> 
                </div>","null","","","","","","","","",""
"","","","","","html-button-response","167","1431784","0.0-167.0","D567704642C44F539598A366F54C12B1","019cf478-4894-7c68-b928-3e8f60efb37e","019cf064-09e4-79bc-8453-421c166e6722","","911","
                <div class=""stimulus-container"">
                    <img src=""images/schematic_sequence/dinner_party_scheme/dinner_party_scheme_2.png"" class=""exp-image"">
                    <div class=""question-area"">
                        <p style=""font-size: 20px; font-weight: bold; margin: 0;"">Is there a person in this image?</p>
                    </div>
                </div>","0","main_experiment_trial","2","dinner_party_scheme","schematic_sequence","","","","",""
"","","","","","html-keyboard-response","168","1436796","0.0-168.0","D567704642C44F539598A366F54C12B1","019cf478-4894-7c68-b928-3e8f60efb37e","019cf064-09e4-79bc-8453-421c166e6722","","null","
                <div class=""stimulus-container"">
                    <img src=""images/schematic_sequence/dinner_party_scheme/dinner_party_scheme_3.png"" class=""exp-image"">
                    <div class=""question-area""></div> 
                </div>","null","","","","","","","","",""
"","","","","","html-button-response","169","1437952","0.0-169.0","D567704642C44F539598A366F54C12B1","019cf478-4894-7c68-b928-3e8f60efb37e","019cf064-09e4-79bc-8453-421c166e6722","","1153","
                <div class=""stimulus-container"">
                    <img src=""images/schematic_sequence/dinner_party_scheme/dinner_party_scheme_3.png"" class=""exp-image"">
                    <div class=""question-area"">
                        <p style=""font-size: 20px; font-weight: bold; margin: 0;"">Is there a person in this image?</p>
                    </div>
                </div>","0","main_experiment_trial","3","dinner_party_scheme","schematic_sequence","","","","",""
"","","","","","html-keyboard-response","170","1442960","0.0-170.0","D567704642C44F539598A366F54C12B1","019cf478-4894-7c68-b928-3e8f60efb37e","019cf064-09e4-79bc-8453-421c166e6722","","null","
                <div class=""stimulus-container"">
                    <img src=""images/schematic_sequence/dinner_party_scheme/dinner_party_scheme_4.png"" class=""exp-image"">
                    <div class=""question-area""></div> 
                </div>","null","","","","","","","","",""
"","","","","","html-button-response","171","1445371","0.0-171.0","D567704642C44F539598A366F54C12B1","019cf478-4894-7c68-b928-3e8f60efb37e","019cf064-09e4-79bc-8453-421c166e6722","","2407","
                <div class=""stimulus-container"">
                    <img src=""images/schematic_sequence/dinner_party_scheme/dinner_party_scheme_4.png"" class=""exp-image"">
                    <div class=""question-area"">
                        <p style=""font-size: 20px; font-weight: bold; margin: 0;"">Is there a person in this image?</p>
                    </div>
                </div>","0","main_experiment_trial","4","dinner_party_scheme","schematic_sequence","","","","",""
"","","","","","html-keyboard-response","172","1450373","0.0-172.0","D567704642C44F539598A366F54C12B1","019cf478-4894-7c68-b928-3e8f60efb37e","019cf064-09e4-79bc-8453-421c166e6722","","null","
                <div class=""stimulus-container"">
                    <img src=""images/schematic_sequence/dinner_party_scheme/dinner_party_scheme_5.png"" class=""exp-image"">
                    <div class=""question-area""></div> 
                </div>","null","","","","","","","","",""
"","","","","","html-button-response","173","1451298","0.0-173.0","D567704642C44F539598A366F54C12B1","019cf478-4894-7c68-b928-3e8f60efb37e","019cf064-09e4-79bc-8453-421c166e6722","","923","
                <div class=""stimulus-container"">
                    <img src=""images/schematic_sequence/dinner_party_scheme/dinner_party_scheme_5.png"" class=""exp-image"">
                    <div class=""question-area"">
                        <p style=""font-size: 20px; font-weight: bold; margin: 0;"">Is there a person in this image?</p>
                    </div>
                </div>","0","main_experiment_trial","5","dinner_party_scheme","schematic_sequence","","","","",""
"","","","","","html-keyboard-response","174","1456303","0.0-174.0","D567704642C44F539598A366F54C12B1","019cf478-4894-7c68-b928-3e8f60efb37e","019cf064-09e4-79bc-8453-421c166e6722","","null","
                <div class=""stimulus-container"">
                    <img src=""images/schematic_sequence/dinner_party_scheme/dinner_party_scheme_6.png"" class=""exp-image"">
                    <div class=""question-area""></div> 
                </div>","null","","","","","","","","",""
"","","","","","html-button-response","175","1456992","0.0-175.0","D567704642C44F539598A366F54C12B1","019cf478-4894-7c68-b928-3e8f60efb37e","019cf064-09e4-79bc-8453-421c166e6722","","687","
                <div class=""stimulus-container"">
                    <img src=""images/schematic_sequence/dinner_party_scheme/dinner_party_scheme_6.png"" class=""exp-image"">
                    <div class=""question-area"">
                        <p style=""font-size: 20px; font-weight: bold; margin: 0;"">Is there a person in this image?</p>
                    </div>
                </div>","0","main_experiment_trial","6","dinner_party_scheme","schematic_sequence","","","","",""
"","","","","","html-keyboard-response","176","1462006","0.0-176.0","D567704642C44F539598A366F54C12B1","019cf478-4894-7c68-b928-3e8f60efb37e","019cf064-09e4-79bc-8453-421c166e6722","","null","
                <div class=""stimulus-container"">
                    <img src=""images/schematic_sequence/dinner_party_scheme/dinner_party_scheme_7.png"" class=""exp-image"">
                    <div class=""question-area""></div> 
                </div>","null","","","","","","","","",""
"","","","","","html-button-response","177","1462695","0.0-177.0","D567704642C44F539598A366F54C12B1","019cf478-4894-7c68-b928-3e8f60efb37e","019cf064-09e4-79bc-8453-421c166e6722","","686","
                <div class=""stimulus-container"">
                    <img src=""images/schematic_sequence/dinner_party_scheme/dinner_party_scheme_7.png"" class=""exp-image"">
                    <div class=""question-area"">
                        <p style=""font-size: 20px; font-weight: bold; margin: 0;"">Is there a person in this image?</p>
                    </div>
                </div>","0","main_experiment_trial","7","dinner_party_scheme","schematic_sequence","","","","",""
"","","","","","html-keyboard-response","178","1467706","0.0-178.0","D567704642C44F539598A366F54C12B1","019cf478-4894-7c68-b928-3e8f60efb37e","019cf064-09e4-79bc-8453-421c166e6722","","null","
                <div class=""stimulus-container"">
                    <img src=""images/schematic_sequence/dinner_party_scheme/dinner_party_scheme_8.png"" class=""exp-image"">
                    <div class=""question-area""></div> 
                </div>","null","","","","","","","","",""
"","","","","","html-button-response","179","1468500","0.0-179.0","D567704642C44F539598A366F54C12B1","019cf478-4894-7c68-b928-3e8f60efb37e","019cf064-09e4-79bc-8453-421c166e6722","","792","
                <div class=""stimulus-container"">
                    <img src=""images/schematic_sequence/dinner_party_scheme/dinner_party_scheme_8.png"" class=""exp-image"">
                    <div class=""question-area"">
                        <p style=""font-size: 20px; font-weight: bold; margin: 0;"">Is there a person in this image?</p>
                    </div>
                </div>","0","main_experiment_trial","8","dinner_party_scheme","schematic_sequence","","","","",""
"","","","","","html-keyboard-response","180","1473503","0.0-180.0","D567704642C44F539598A366F54C12B1","019cf478-4894-7c68-b928-3e8f60efb37e","019cf064-09e4-79bc-8453-421c166e6722","","null","
                <div class=""stimulus-container"">
                    <img src=""images/schematic_sequence/dinner_party_scheme/dinner_party_scheme_9.png"" class=""exp-image"">
                    <div class=""question-area""></div> 
                </div>","null","","","","","","","","",""
"","","","","","html-button-response","181","1475329","0.0-181.0","D567704642C44F539598A366F54C12B1","019cf478-4894-7c68-b928-3e8f60efb37e","019cf064-09e4-79bc-8453-421c166e6722","","1825","
                <div class=""stimulus-container"">
                    <img src=""images/schematic_sequence/dinner_party_scheme/dinner_party_scheme_9.png"" class=""exp-image"">
                    <div class=""question-area"">
                        <p style=""font-size: 20px; font-weight: bold; margin: 0;"">Is there a person in this image?</p>
                    </div>
                </div>","0","main_experiment_trial","9","dinner_party_scheme","schematic_sequence","","","","",""
"","","","","","html-keyboard-response","182","1480331","0.0-182.0","D567704642C44F539598A366F54C12B1","019cf478-4894-7c68-b928-3e8f60efb37e","019cf064-09e4-79bc-8453-421c166e6722","","null","
                <div class=""stimulus-container"">
                    <img src=""images/schematic_sequence/dinner_party_scheme/dinner_party_scheme_ten.png"" class=""exp-image"">
                    <div class=""question-area""></div> 
                </div>","null","","","","","","","","",""
"","","","","","html-button-response","183","1480819","0.0-183.0","D567704642C44F539598A366F54C12B1","019cf478-4894-7c68-b928-3e8f60efb37e","019cf064-09e4-79bc-8453-421c166e6722","","486","
                <div class=""stimulus-container"">
                    <img src=""images/schematic_sequence/dinner_party_scheme/dinner_party_scheme_ten.png"" class=""exp-image"">
                    <div class=""question-area"">
                        <p style=""font-size: 20px; font-weight: bold; margin: 0;"">Is there a person in this image?</p>
                    </div>
