"success","timeout","failed_images","failed_audio","failed_video","trial_type","trial_index","time_elapsed","internal_node_id","subject_id","study_id","session_id","view_history","rt","stimulus","response","task","image_index","folder","sequence_type","valuable_image_index","reward_type","chosen_image_index","target_X","correct_choice"
"false","false","[]","[]","[]","preload","0","22667","0.0-0.0","4A54BFAC66B84BFC9588235CF8451341","019cf047-250e-74a8-925c-9f3044bb8251","019ceff9-9f67-7034-9722-02cda2445e09","","","","","","","","","","","","",""
"","","","","","instructions","1","25001","0.0-1.0","4A54BFAC66B84BFC9588235CF8451341","019cf047-250e-74a8-925c-9f3044bb8251","019ceff9-9f67-7034-9722-02cda2445e09","[{""page_index"":0,""viewing_time"":2333}]","2333","","","","","","","","","","",""
"","","","","","instructions","2","36311","0.0-2.0","4A54BFAC66B84BFC9588235CF8451341","019cf047-250e-74a8-925c-9f3044bb8251","019ceff9-9f67-7034-9722-02cda2445e09","[{""page_index"":0,""viewing_time"":11309}]","11310","","","","","","","","","","",""
"true","","","","","fullscreen","3","40020","0.0-3.0","4A54BFAC66B84BFC9588235CF8451341","019cf047-250e-74a8-925c-9f3044bb8251","019ceff9-9f67-7034-9722-02cda2445e09","","2706","","","","","","","","","","",""
"","","","","","instructions","4","57968","0.0-4.0","4A54BFAC66B84BFC9588235CF8451341","019cf047-250e-74a8-925c-9f3044bb8251","019ceff9-9f67-7034-9722-02cda2445e09","[{""page_index"":0,""viewing_time"":17946}]","17946","","","","","","","","","","",""
"","","","","","instructions","5","102947","0.0-5.0","4A54BFAC66B84BFC9588235CF8451341","019cf047-250e-74a8-925c-9f3044bb8251","019ceff9-9f67-7034-9722-02cda2445e09","[{""page_index"":0,""viewing_time"":44978}]","44978","","","","","","","","","","",""
"","","","","","html-keyboard-response","6","106949","0.0-6.0","4A54BFAC66B84BFC9588235CF8451341","019cf047-250e-74a8-925c-9f3044bb8251","019ceff9-9f67-7034-9722-02cda2445e09","","null","
                <div class=""stimulus-container"">
                    <img src=""images/instructions/movie_1.png"" class=""exp-image"">
                    <div class=""question-area""></div> 
                </div>","null","","","","","","","","",""
"","","","","","html-button-response","7","109953","0.0-7.0","4A54BFAC66B84BFC9588235CF8451341","019cf047-250e-74a8-925c-9f3044bb8251","019ceff9-9f67-7034-9722-02cda2445e09","","null","
                <div class=""stimulus-container"">
                    <img src=""images/instructions/movie_1.png"" class=""exp-image"">
                    <div class=""question-area"">
                        <p style=""font-size: 20px; font-weight: bold; margin: 0;"">Was there a person in this image?</p>
                    </div>
                </div>","null","example_question","1","","","","","","",""
"","","","","","html-keyboard-response","8","113955","0.0-8.0","4A54BFAC66B84BFC9588235CF8451341","019cf047-250e-74a8-925c-9f3044bb8251","019ceff9-9f67-7034-9722-02cda2445e09","","null","
                <div class=""stimulus-container"">
                    <img src=""images/instructions/movie_2.png"" class=""exp-image"">
                    <div class=""question-area""></div> 
                </div>","null","","","","","","","","",""
"","","","","","html-button-response","9","115486","0.0-9.0","4A54BFAC66B84BFC9588235CF8451341","019cf047-250e-74a8-925c-9f3044bb8251","019ceff9-9f67-7034-9722-02cda2445e09","","1530","
                <div class=""stimulus-container"">
                    <img src=""images/instructions/movie_2.png"" class=""exp-image"">
                    <div class=""question-area"">
                        <p style=""font-size: 20px; font-weight: bold; margin: 0;"">Was there a person in this image?</p>
                    </div>
                </div>","1","example_question","2","","","","","","",""
"","","","","","html-keyboard-response","10","119489","0.0-10.0","4A54BFAC66B84BFC9588235CF8451341","019cf047-250e-74a8-925c-9f3044bb8251","019ceff9-9f67-7034-9722-02cda2445e09","","null","
                <div class=""stimulus-container"">
                    <img src=""images/instructions/movie_3.png"" class=""exp-image"">
                    <div class=""question-area""></div> 
                </div>","null","","","","","","","","",""
"","","","","","html-button-response","11","120817","0.0-11.0","4A54BFAC66B84BFC9588235CF8451341","019cf047-250e-74a8-925c-9f3044bb8251","019ceff9-9f67-7034-9722-02cda2445e09","","1327","
                <div class=""stimulus-container"">
                    <img src=""images/instructions/movie_3.png"" class=""exp-image"">
                    <div class=""question-area"">
                        <p style=""font-size: 20px; font-weight: bold; margin: 0;"">Was there a person in this image?</p>
                    </div>
                </div>","0","example_question","3","","","","","","",""
"","","","","","html-keyboard-response","12","124819","0.0-12.0","4A54BFAC66B84BFC9588235CF8451341","019cf047-250e-74a8-925c-9f3044bb8251","019ceff9-9f67-7034-9722-02cda2445e09","","null","
                <div class=""stimulus-container"">
                    <img src=""images/instructions/movie_4.png"" class=""exp-image"">
                    <div class=""question-area""></div> 
                </div>","null","","","","","","","","",""
"","","","","","html-button-response","13","125984","0.0-13.0","4A54BFAC66B84BFC9588235CF8451341","019cf047-250e-74a8-925c-9f3044bb8251","019ceff9-9f67-7034-9722-02cda2445e09","","1164","
                <div class=""stimulus-container"">
                    <img src=""images/instructions/movie_4.png"" class=""exp-image"">
                    <div class=""question-area"">
                        <p style=""font-size: 20px; font-weight: bold; margin: 0;"">Was there a person in this image?</p>
                    </div>
                </div>","0","example_question","4","","","","","","",""
"","","","","","instructions","14","127526","0.0-14.0","4A54BFAC66B84BFC9588235CF8451341","019cf047-250e-74a8-925c-9f3044bb8251","019ceff9-9f67-7034-9722-02cda2445e09","[{""page_index"":0,""viewing_time"":1542}]","1542","","","","","","","","","","",""
"","","","","","instructions","15","132762","0.0-15.0","4A54BFAC66B84BFC9588235CF8451341","019cf047-250e-74a8-925c-9f3044bb8251","019ceff9-9f67-7034-9722-02cda2445e09","[{""page_index"":0,""viewing_time"":5235}]","5235","","","","","","","","","","",""
"","","","","","html-keyboard-response","16","133765","0.0-16.0","4A54BFAC66B84BFC9588235CF8451341","019cf047-250e-74a8-925c-9f3044bb8251","019ceff9-9f67-7034-9722-02cda2445e09","","null","<div style=""background-color: white; width: 100vw; height: 100vh;""></div>","null","","","","","","","","",""
"","","","","","html-keyboard-response","17","138767","0.0-17.0","4A54BFAC66B84BFC9588235CF8451341","019cf047-250e-74a8-925c-9f3044bb8251","019ceff9-9f67-7034-9722-02cda2445e09","","null","
                <div class=""stimulus-container"">
                    <img src=""images/causal_sequence/the_performance_causal/the_performance_causal_1.png"" class=""exp-image"">
                    <div class=""question-area""></div> 
                </div>","null","","","","","","","","",""
"","","","","","html-button-response","18","139663","0.0-18.0","4A54BFAC66B84BFC9588235CF8451341","019cf047-250e-74a8-925c-9f3044bb8251","019ceff9-9f67-7034-9722-02cda2445e09","","895","
                <div class=""stimulus-container"">
                    <img src=""images/causal_sequence/the_performance_causal/the_performance_causal_1.png"" class=""exp-image"">
                    <div class=""question-area"">
                        <p style=""font-size: 20px; font-weight: bold; margin: 0;"">Is there a person in this image?</p>
                    </div>
                </div>","0","main_experiment_trial","1","the_performance_causal","causal_sequence","","","","",""
"","","","","","html-keyboard-response","19","144666","0.0-19.0","4A54BFAC66B84BFC9588235CF8451341","019cf047-250e-74a8-925c-9f3044bb8251","019ceff9-9f67-7034-9722-02cda2445e09","","null","
                <div class=""stimulus-container"">
                    <img src=""images/causal_sequence/the_performance_causal/the_performance_causal_2.png"" class=""exp-image"">
                    <div class=""question-area""></div> 
                </div>","null","","","","","","","","",""
"","","","","","html-button-response","20","145706","0.0-20.0","4A54BFAC66B84BFC9588235CF8451341","019cf047-250e-74a8-925c-9f3044bb8251","019ceff9-9f67-7034-9722-02cda2445e09","","1039","
                <div class=""stimulus-container"">
                    <img src=""images/causal_sequence/the_performance_causal/the_performance_causal_2.png"" class=""exp-image"">
                    <div class=""question-area"">
                        <p style=""font-size: 20px; font-weight: bold; margin: 0;"">Is there a person in this image?</p>
                    </div>
                </div>","0","main_experiment_trial","2","the_performance_causal","causal_sequence","","","","",""
"","","","","","html-keyboard-response","21","150708","0.0-21.0","4A54BFAC66B84BFC9588235CF8451341","019cf047-250e-74a8-925c-9f3044bb8251","019ceff9-9f67-7034-9722-02cda2445e09","","null","
                <div class=""stimulus-container"">
                    <img src=""images/causal_sequence/the_performance_causal/the_performance_causal_3.png"" class=""exp-image"">
                    <div class=""question-area""></div> 
                </div>","null","","","","","","","","",""
"","","","","","html-button-response","22","151869","0.0-22.0","4A54BFAC66B84BFC9588235CF8451341","019cf047-250e-74a8-925c-9f3044bb8251","019ceff9-9f67-7034-9722-02cda2445e09","","1160","
                <div class=""stimulus-container"">
                    <img src=""images/causal_sequence/the_performance_causal/the_performance_causal_3.png"" class=""exp-image"">
                    <div class=""question-area"">
                        <p style=""font-size: 20px; font-weight: bold; margin: 0;"">Is there a person in this image?</p>
                    </div>
                </div>","0","main_experiment_trial","3","the_performance_causal","causal_sequence","","","","",""
"","","","","","html-keyboard-response","23","156871","0.0-23.0","4A54BFAC66B84BFC9588235CF8451341","019cf047-250e-74a8-925c-9f3044bb8251","019ceff9-9f67-7034-9722-02cda2445e09","","null","
                <div class=""stimulus-container"">
                    <img src=""images/causal_sequence/the_performance_causal/the_performance_causal_4.png"" class=""exp-image"">
                    <div class=""question-area""></div> 
                </div>","null","","","","","","","","",""
"","","","","","html-button-response","24","157416","0.0-24.0","4A54BFAC66B84BFC9588235CF8451341","019cf047-250e-74a8-925c-9f3044bb8251","019ceff9-9f67-7034-9722-02cda2445e09","","544","
                <div class=""stimulus-container"">
                    <img src=""images/causal_sequence/the_performance_causal/the_performance_causal_4.png"" class=""exp-image"">
                    <div class=""question-area"">
                        <p style=""font-size: 20px; font-weight: bold; margin: 0;"">Is there a person in this image?</p>
                    </div>
                </div>","0","main_experiment_trial","4","the_performance_causal","causal_sequence","","","","",""
"","","","","","html-keyboard-response","25","162418","0.0-25.0","4A54BFAC66B84BFC9588235CF8451341","019cf047-250e-74a8-925c-9f3044bb8251","019ceff9-9f67-7034-9722-02cda2445e09","","null","
                <div class=""stimulus-container"">
                    <img src=""images/causal_sequence/the_performance_causal/the_performance_causal_5.png"" class=""exp-image"">
                    <div class=""question-area""></div> 
                </div>","null","","","","","","","","",""
"","","","","","html-button-response","26","163333","0.0-26.0","4A54BFAC66B84BFC9588235CF8451341","019cf047-250e-74a8-925c-9f3044bb8251","019ceff9-9f67-7034-9722-02cda2445e09","","914","
                <div class=""stimulus-container"">
                    <img src=""images/causal_sequence/the_performance_causal/the_performance_causal_5.png"" class=""exp-image"">
                    <div class=""question-area"">
                        <p style=""font-size: 20px; font-weight: bold; margin: 0;"">Is there a person in this image?</p>
                    </div>
                </div>","0","main_experiment_trial","5","the_performance_causal","causal_sequence","","","","",""
"","","","","","html-keyboard-response","27","168337","0.0-27.0","4A54BFAC66B84BFC9588235CF8451341","019cf047-250e-74a8-925c-9f3044bb8251","019ceff9-9f67-7034-9722-02cda2445e09","","null","
                <div class=""stimulus-container"">
                    <img src=""images/causal_sequence/the_performance_causal/the_performance_causal_6.png"" class=""exp-image"">
                    <div class=""question-area""></div> 
                </div>","null","","","","","","","","",""
"","","","","","html-button-response","28","169087","0.0-28.0","4A54BFAC66B84BFC9588235CF8451341","019cf047-250e-74a8-925c-9f3044bb8251","019ceff9-9f67-7034-9722-02cda2445e09","","750","
                <div class=""stimulus-container"">
                    <img src=""images/causal_sequence/the_performance_causal/the_performance_causal_6.png"" class=""exp-image"">
                    <div class=""question-area"">
                        <p style=""font-size: 20px; font-weight: bold; margin: 0;"">Is there a person in this image?</p>
                    </div>
                </div>","0","main_experiment_trial","6","the_performance_causal","causal_sequence","","","","",""
"","","","","","html-keyboard-response","29","174090","0.0-29.0","4A54BFAC66B84BFC9588235CF8451341","019cf047-250e-74a8-925c-9f3044bb8251","019ceff9-9f67-7034-9722-02cda2445e09","","null","
                <div class=""stimulus-container"">
                    <img src=""images/causal_sequence/the_performance_causal/the_performance_causal_7.png"" class=""exp-image"">
                    <div class=""question-area""></div> 
                </div>","null","","","","","","","","",""
"","","","","","html-button-response","30","175021","0.0-30.0","4A54BFAC66B84BFC9588235CF8451341","019cf047-250e-74a8-925c-9f3044bb8251","019ceff9-9f67-7034-9722-02cda2445e09","","930","
                <div class=""stimulus-container"">
                    <img src=""images/causal_sequence/the_performance_causal/the_performance_causal_7.png"" class=""exp-image"">
                    <div class=""question-area"">
                        <p style=""font-size: 20px; font-weight: bold; margin: 0;"">Is there a person in this image?</p>
                    </div>
                </div>","0","main_experiment_trial","7","the_performance_causal","causal_sequence","","","","",""
"","","","","","html-keyboard-response","31","180024","0.0-31.0","4A54BFAC66B84BFC9588235CF8451341","019cf047-250e-74a8-925c-9f3044bb8251","019ceff9-9f67-7034-9722-02cda2445e09","","null","
                <div class=""stimulus-container"">
                    <img src=""images/causal_sequence/the_performance_causal/the_performance_causal_8.png"" class=""exp-image"">
                    <div class=""question-area""></div> 
                </div>","null","","","","","","","","",""
"","","","","","html-button-response","32","180757","0.0-32.0","4A54BFAC66B84BFC9588235CF8451341","019cf047-250e-74a8-925c-9f3044bb8251","019ceff9-9f67-7034-9722-02cda2445e09","","733","
                <div class=""stimulus-container"">
                    <img src=""images/causal_sequence/the_performance_causal/the_performance_causal_8.png"" class=""exp-image"">
                    <div class=""question-area"">
                        <p style=""font-size: 20px; font-weight: bold; margin: 0;"">Is there a person in this image?</p>
                    </div>
                </div>","0","main_experiment_trial","8","the_performance_causal","causal_sequence","","","","",""
"","","","","","html-keyboard-response","33","185760","0.0-33.0","4A54BFAC66B84BFC9588235CF8451341","019cf047-250e-74a8-925c-9f3044bb8251","019ceff9-9f67-7034-9722-02cda2445e09","","null","
                <div class=""stimulus-container"">
                    <img src=""images/causal_sequence/the_performance_causal/the_performance_causal_9.png"" class=""exp-image"">
                    <div class=""question-area""></div> 
                </div>","null","","","","","","","","",""
"","","","","","html-button-response","34","186608","0.0-34.0","4A54BFAC66B84BFC9588235CF8451341","019cf047-250e-74a8-925c-9f3044bb8251","019ceff9-9f67-7034-9722-02cda2445e09","","847","
                <div class=""stimulus-container"">
                    <img src=""images/causal_sequence/the_performance_causal/the_performance_causal_9.png"" class=""exp-image"">
                    <div class=""question-area"">
                        <p style=""font-size: 20px; font-weight: bold; margin: 0;"">Is there a person in this image?</p>
                    </div>
                </div>","0","main_experiment_trial","9","the_performance_causal","causal_sequence","","","","",""
"","","","","","html-keyboard-response","35","191610","0.0-35.0","4A54BFAC66B84BFC9588235CF8451341","019cf047-250e-74a8-925c-9f3044bb8251","019ceff9-9f67-7034-9722-02cda2445e09","","null","
                <div class=""stimulus-container"">
                    <img src=""images/causal_sequence/the_performance_causal/the_performance_causal_ten.png"" class=""exp-image"">
                    <div class=""question-area""></div> 
                </div>","null","","","","","","","","",""
"","","","","","html-button-response","36","192766","0.0-36.0","4A54BFAC66B84BFC9588235CF8451341","019cf047-250e-74a8-925c-9f3044bb8251","019ceff9-9f67-7034-9722-02cda2445e09","","1156","
                <div class=""stimulus-container"">
                    <img src=""images/causal_sequence/the_performance_causal/the_performance_causal_ten.png"" class=""exp-image"">
                    <div class=""question-area"">
                        <p style=""font-size: 20px; font-weight: bold; margin: 0;"">Is there a person in this image?</p>
                    </div>
                </div>","0","main_experiment_trial","ten","the_performance_causal","causal_sequence","","","","",""
"","","","","","html-keyboard-response","37","193769","0.0-37.0","4A54BFAC66B84BFC9588235CF8451341","019cf047-250e-74a8-925c-9f3044bb8251","019ceff9-9f67-7034-9722-02cda2445e09","","null","<div style=""background-color: white; width: 100vw; height: 100vh;""></div>","null","","","","","","","","",""
"","","","","","html-keyboard-response","38","198772","0.0-38.0","4A54BFAC66B84BFC9588235CF8451341","019cf047-250e-74a8-925c-9f3044bb8251","019ceff9-9f67-7034-9722-02cda2445e09","","null","
                <div class=""stimulus-container"">
                    <img src=""images/causal_sequence/dog_causal/dog_causal_1.png"" class=""exp-image"">
                    <div class=""question-area""></div> 
                </div>","null","","","","","","","","",""
"","","","","","html-button-response","39","199734","0.0-39.0","4A54BFAC66B84BFC9588235CF8451341","019cf047-250e-74a8-925c-9f3044bb8251","019ceff9-9f67-7034-9722-02cda2445e09","","961","
                <div class=""stimulus-container"">
                    <img src=""images/causal_sequence/dog_causal/dog_causal_1.png"" class=""exp-image"">
                    <div class=""question-area"">
                        <p style=""font-size: 20px; font-weight: bold; margin: 0;"">Is there a person in this image?</p>
                    </div>
                </div>","0","main_experiment_trial","1","dog_causal","causal_sequence","","","","",""
"","","","","","html-keyboard-response","40","204736","0.0-40.0","4A54BFAC66B84BFC9588235CF8451341","019cf047-250e-74a8-925c-9f3044bb8251","019ceff9-9f67-7034-9722-02cda2445e09","","null","
                <div class=""stimulus-container"">
                    <img src=""images/causal_sequence/dog_causal/dog_causal_2.png"" class=""exp-image"">
                    <div class=""question-area""></div> 
                </div>","null","","","","","","","","",""
"","","","","","html-button-response","41","205580","0.0-41.0","4A54BFAC66B84BFC9588235CF8451341","019cf047-250e-74a8-925c-9f3044bb8251","019ceff9-9f67-7034-9722-02cda2445e09","","843","
                <div class=""stimulus-container"">
                    <img src=""images/causal_sequence/dog_causal/dog_causal_2.png"" class=""exp-image"">
                    <div class=""question-area"">
                        <p style=""font-size: 20px; font-weight: bold; margin: 0;"">Is there a person in this image?</p>
                    </div>
                </div>","0","main_experiment_trial","2","dog_causal","causal_sequence","","","","",""
"","","","","","html-keyboard-response","42","210583","0.0-42.0","4A54BFAC66B84BFC9588235CF8451341","019cf047-250e-74a8-925c-9f3044bb8251","019ceff9-9f67-7034-9722-02cda2445e09","","null","
                <div class=""stimulus-container"">
                    <img src=""images/causal_sequence/dog_causal/dog_causal_3.png"" class=""exp-image"">
                    <div class=""question-area""></div> 
                </div>","null","","","","","","","","",""
"","","","","","html-button-response","43","211383","0.0-43.0","4A54BFAC66B84BFC9588235CF8451341","019cf047-250e-74a8-925c-9f3044bb8251","019ceff9-9f67-7034-9722-02cda2445e09","","799","
                <div class=""stimulus-container"">
                    <img src=""images/causal_sequence/dog_causal/dog_causal_3.png"" class=""exp-image"">
                    <div class=""question-area"">
                        <p style=""font-size: 20px; font-weight: bold; margin: 0;"">Is there a person in this image?</p>
                    </div>
                </div>","0","main_experiment_trial","3","dog_causal","causal_sequence","","","","",""
"","","","","","html-keyboard-response","44","216385","0.0-44.0","4A54BFAC66B84BFC9588235CF8451341","019cf047-250e-74a8-925c-9f3044bb8251","019ceff9-9f67-7034-9722-02cda2445e09","","null","
                <div class=""stimulus-container"">
                    <img src=""images/causal_sequence/dog_causal/dog_causal_4.png"" class=""exp-image"">
                    <div class=""question-area""></div> 
                </div>","null","","","","","","","","",""
"","","","","","html-button-response","45","217275","0.0-45.0","4A54BFAC66B84BFC9588235CF8451341","019cf047-250e-74a8-925c-9f3044bb8251","019ceff9-9f67-7034-9722-02cda2445e09","","888","
                <div class=""stimulus-container"">
                    <img src=""images/causal_sequence/dog_causal/dog_causal_4.png"" class=""exp-image"">
                    <div class=""question-area"">
                        <p style=""font-size: 20px; font-weight: bold; margin: 0;"">Is there a person in this image?</p>
                    </div>
                </div>","0","main_experiment_trial","4","dog_causal","causal_sequence","","","","",""
"","","","","","html-keyboard-response","46","222277","0.0-46.0","4A54BFAC66B84BFC9588235CF8451341","019cf047-250e-74a8-925c-9f3044bb8251","019ceff9-9f67-7034-9722-02cda2445e09","","null","
                <div class=""stimulus-container"">
                    <img src=""images/causal_sequence/dog_causal/dog_causal_5.png"" class=""exp-image"">
                    <div class=""question-area""></div> 
                </div>","null","","","","","","","","",""
"","","","","","html-button-response","47","223127","0.0-47.0","4A54BFAC66B84BFC9588235CF8451341","019cf047-250e-74a8-925c-9f3044bb8251","019ceff9-9f67-7034-9722-02cda2445e09","","849","
                <div class=""stimulus-container"">
                    <img src=""images/causal_sequence/dog_causal/dog_causal_5.png"" class=""exp-image"">
                    <div class=""question-area"">
                        <p style=""font-size: 20px; font-weight: bold; margin: 0;"">Is there a person in this image?</p>
                    </div>
                </div>","0","main_experiment_trial","5","dog_causal","causal_sequence","","","","",""
"","","","","","html-keyboard-response","48","228130","0.0-48.0","4A54BFAC66B84BFC9588235CF8451341","019cf047-250e-74a8-925c-9f3044bb8251","019ceff9-9f67-7034-9722-02cda2445e09","","null","
                <div class=""stimulus-container"">
                    <img src=""images/causal_sequence/dog_causal/dog_causal_6.png"" class=""exp-image"">
                    <div class=""question-area""></div> 
                </div>","null","","","","","","","","",""
"","","","","","html-button-response","49","229093","0.0-49.0","4A54BFAC66B84BFC9588235CF8451341","019cf047-250e-74a8-925c-9f3044bb8251","019ceff9-9f67-7034-9722-02cda2445e09","","963","
                <div class=""stimulus-container"">
                    <img src=""images/causal_sequence/dog_causal/dog_causal_6.png"" class=""exp-image"">
                    <div class=""question-area"">
                        <p style=""font-size: 20px; font-weight: bold; margin: 0;"">Is there a person in this image?</p>
                    </div>
                </div>","0","main_experiment_trial","6","dog_causal","causal_sequence","","","","",""
"","","","","","html-keyboard-response","50","234095","0.0-50.0","4A54BFAC66B84BFC9588235CF8451341","019cf047-250e-74a8-925c-9f3044bb8251","019ceff9-9f67-7034-9722-02cda2445e09","","null","
                <div class=""stimulus-container"">
                    <img src=""images/causal_sequence/dog_causal/dog_causal_7.png"" class=""exp-image"">
                    <div class=""question-area""></div> 
                </div>","null","","","","","","","","",""
"","","","","","html-button-response","51","235107","0.0-51.0","4A54BFAC66B84BFC9588235CF8451341","019cf047-250e-74a8-925c-9f3044bb8251","019ceff9-9f67-7034-9722-02cda2445e09","","1011","
                <div class=""stimulus-container"">
                    <img src=""images/causal_sequence/dog_causal/dog_causal_7.png"" class=""exp-image"">
                    <div class=""question-area"">
                        <p style=""font-size: 20px; font-weight: bold; margin: 0;"">Is there a person in this image?</p>
                    </div>
                </div>","0","main_experiment_trial","7","dog_causal","causal_sequence","","","","",""
"","","","","","html-keyboard-response","52","240109","0.0-52.0","4A54BFAC66B84BFC9588235CF8451341","019cf047-250e-74a8-925c-9f3044bb8251","019ceff9-9f67-7034-9722-02cda2445e09","","null","
                <div class=""stimulus-container"">
                    <img src=""images/causal_sequence/dog_causal/dog_causal_8.png"" class=""exp-image"">
                    <div class=""question-area""></div> 
                </div>","null","","","","","","","","",""
"","","","","","html-button-response","53","240913","0.0-53.0","4A54BFAC66B84BFC9588235CF8451341","019cf047-250e-74a8-925c-9f3044bb8251","019ceff9-9f67-7034-9722-02cda2445e09","","803","
                <div class=""stimulus-container"">
                    <img src=""images/causal_sequence/dog_causal/dog_causal_8.png"" class=""exp-image"">
                    <div class=""question-area"">
                        <p style=""font-size: 20px; font-weight: bold; margin: 0;"">Is there a person in this image?</p>
                    </div>
                </div>","0","main_experiment_trial","8","dog_causal","causal_sequence","","","","",""
"","","","","","html-keyboard-response","54","245915","0.0-54.0","4A54BFAC66B84BFC9588235CF8451341","019cf047-250e-74a8-925c-9f3044bb8251","019ceff9-9f67-7034-9722-02cda2445e09","","null","
                <div class=""stimulus-container"">
                    <img src=""images/causal_sequence/dog_causal/dog_causal_9.png"" class=""exp-image"">
                    <div class=""question-area""></div> 
                </div>","null","","","","","","","","",""
"","","","","","html-button-response","55","246978","0.0-55.0","4A54BFAC66B84BFC9588235CF8451341","019cf047-250e-74a8-925c-9f3044bb8251","019ceff9-9f67-7034-9722-02cda2445e09","","1062","
                <div class=""stimulus-container"">
                    <img src=""images/causal_sequence/dog_causal/dog_causal_9.png"" class=""exp-image"">
                    <div class=""question-area"">
                        <p style=""font-size: 20px; font-weight: bold; margin: 0;"">Is there a person in this image?</p>
                    </div>
                </div>","0","main_experiment_trial","9","dog_causal","causal_sequence","","","","",""
"","","","","","html-keyboard-response","56","251980","0.0-56.0","4A54BFAC66B84BFC9588235CF8451341","019cf047-250e-74a8-925c-9f3044bb8251","019ceff9-9f67-7034-9722-02cda2445e09","","null","
                <div class=""stimulus-container"">
                    <img src=""images/causal_sequence/dog_causal/dog_causal_ten.png"" class=""exp-image"">
                    <div class=""question-area""></div> 
                </div>","null","","","","","","","","",""
"","","","","","html-button-response","57","253013","0.0-57.0","4A54BFAC66B84BFC9588235CF8451341","019cf047-250e-74a8-925c-9f3044bb8251","019ceff9-9f67-7034-9722-02cda2445e09","","1031","
                <div class=""stimulus-container"">
                    <img src=""images/causal_sequence/dog_causal/dog_causal_ten.png"" class=""exp-image"">
                    <div class=""question-area"">
                        <p style=""font-size: 20px; font-weight: bold; margin: 0;"">Is there a person in this image?</p>
                    </div>
                </div>","0","main_experiment_trial","ten","dog_causal","causal_sequence","","","","",""
"","","","","","html-keyboard-response","58","254015","0.0-58.0","4A54BFAC66B84BFC9588235CF8451341","019cf047-250e-74a8-925c-9f3044bb8251","019ceff9-9f67-7034-9722-02cda2445e09","","null","<div style=""background-color: white; width: 100vw; height: 100vh;""></div>","null","","","","","","","","",""
"","","","","","html-keyboard-response","59","259017","0.0-59.0","4A54BFAC66B84BFC9588235CF8451341","019cf047-250e-74a8-925c-9f3044bb8251","019ceff9-9f67-7034-9722-02cda2445e09","","null","
                <div class=""stimulus-container"">
                    <img src=""images/schematic_sequence/interview_scheme/interview_scheme_1.png"" class=""exp-image"">
                    <div class=""question-area""></div> 
                </div>","null","","","","","","","","",""
"","","","","","html-button-response","60","260716","0.0-60.0","4A54BFAC66B84BFC9588235CF8451341","019cf047-250e-74a8-925c-9f3044bb8251","019ceff9-9f67-7034-9722-02cda2445e09","","1698","
                <div class=""stimulus-container"">
                    <img src=""images/schematic_sequence/interview_scheme/interview_scheme_1.png"" class=""exp-image"">
                    <div class=""question-area"">
                        <p style=""font-size: 20px; font-weight: bold; margin: 0;"">Is there a person in this image?</p>
                    </div>
                </div>","1","main_experiment_trial","1","interview_scheme","schematic_sequence","","","","",""
"","","","","","html-keyboard-response","61","265719","0.0-61.0","4A54BFAC66B84BFC9588235CF8451341","019cf047-250e-74a8-925c-9f3044bb8251","019ceff9-9f67-7034-9722-02cda2445e09","","null","
                <div class=""stimulus-container"">
                    <img src=""images/schematic_sequence/interview_scheme/interview_scheme_2.png"" class=""exp-image"">
                    <div class=""question-area""></div> 
                </div>","null","","","","","","","","",""
"","","","","","html-button-response","62","266817","0.0-62.0","4A54BFAC66B84BFC9588235CF8451341","019cf047-250e-74a8-925c-9f3044bb8251","019ceff9-9f67-7034-9722-02cda2445e09","","1097","
                <div class=""stimulus-container"">
                    <img src=""images/schematic_sequence/interview_scheme/interview_scheme_2.png"" class=""exp-image"">
                    <div class=""question-area"">
                        <p style=""font-size: 20px; font-weight: bold; margin: 0;"">Is there a person in this image?</p>
                    </div>
                </div>","1","main_experiment_trial","2","interview_scheme","schematic_sequence","","","","",""
"","","","","","html-keyboard-response","63","271819","0.0-63.0","4A54BFAC66B84BFC9588235CF8451341","019cf047-250e-74a8-925c-9f3044bb8251","019ceff9-9f67-7034-9722-02cda2445e09","","null","
                <div class=""stimulus-container"">
                    <img src=""images/schematic_sequence/interview_scheme/interview_scheme_3.png"" class=""exp-image"">
                    <div class=""question-area""></div> 
                </div>","null","","","","","","","","",""
"","","","","","html-button-response","64","273127","0.0-64.0","4A54BFAC66B84BFC9588235CF8451341","019cf047-250e-74a8-925c-9f3044bb8251","019ceff9-9f67-7034-9722-02cda2445e09","","1307","
                <div class=""stimulus-container"">
                    <img src=""images/schematic_sequence/interview_scheme/interview_scheme_3.png"" class=""exp-image"">
                    <div class=""question-area"">
                        <p style=""font-size: 20px; font-weight: bold; margin: 0;"">Is there a person in this image?</p>
                    </div>
                </div>","1","main_experiment_trial","3","interview_scheme","schematic_sequence","","","","",""
"","","","","","html-keyboard-response","65","278129","0.0-65.0","4A54BFAC66B84BFC9588235CF8451341","019cf047-250e-74a8-925c-9f3044bb8251","019ceff9-9f67-7034-9722-02cda2445e09","","null","
                <div class=""stimulus-container"">
                    <img src=""images/schematic_sequence/interview_scheme/interview_scheme_4.png"" class=""exp-image"">
                    <div class=""question-area""></div> 
                </div>","null","","","","","","","","",""
"","","","","","html-button-response","66","279522","0.0-66.0","4A54BFAC66B84BFC9588235CF8451341","019cf047-250e-74a8-925c-9f3044bb8251","019ceff9-9f67-7034-9722-02cda2445e09","","1392","
                <div class=""stimulus-container"">
                    <img src=""images/schematic_sequence/interview_scheme/interview_scheme_4.png"" class=""exp-image"">
                    <div class=""question-area"">
                        <p style=""font-size: 20px; font-weight: bold; margin: 0;"">Is there a person in this image?</p>
                    </div>
                </div>","1","main_experiment_trial","4","interview_scheme","schematic_sequence","","","","",""
"","","","","","html-keyboard-response","67","284525","0.0-67.0","4A54BFAC66B84BFC9588235CF8451341","019cf047-250e-74a8-925c-9f3044bb8251","019ceff9-9f67-7034-9722-02cda2445e09","","null","
                <div class=""stimulus-container"">
                    <img src=""images/schematic_sequence/interview_scheme/interview_scheme_5.png"" class=""exp-image"">
                    <div class=""question-area""></div> 
                </div>","null","","","","","","","","",""
"","","","","","html-button-response","68","285275","0.0-68.0","4A54BFAC66B84BFC9588235CF8451341","019cf047-250e-74a8-925c-9f3044bb8251","019ceff9-9f67-7034-9722-02cda2445e09","","749","
                <div class=""stimulus-container"">
                    <img src=""images/schematic_sequence/interview_scheme/interview_scheme_5.png"" class=""exp-image"">
                    <div class=""question-area"">
                        <p style=""font-size: 20px; font-weight: bold; margin: 0;"">Is there a person in this image?</p>
                    </div>
                </div>","0","main_experiment_trial","5","interview_scheme","schematic_sequence","","","","",""
"","","","","","html-keyboard-response","69","290278","0.0-69.0","4A54BFAC66B84BFC9588235CF8451341","019cf047-250e-74a8-925c-9f3044bb8251","019ceff9-9f67-7034-9722-02cda2445e09","","null","
                <div class=""stimulus-container"">
                    <img src=""images/schematic_sequence/interview_scheme/interview_scheme_6.png"" class=""exp-image"">
                    <div class=""question-area""></div> 
                </div>","null","","","","","","","","",""
"","","","","","html-button-response","70","291228","0.0-70.0","4A54BFAC66B84BFC9588235CF8451341","019cf047-250e-74a8-925c-9f3044bb8251","019ceff9-9f67-7034-9722-02cda2445e09","","949","
                <div class=""stimulus-container"">
                    <img src=""images/schematic_sequence/interview_scheme/interview_scheme_6.png"" class=""exp-image"">
                    <div class=""question-area"">
                        <p style=""font-size: 20px; font-weight: bold; margin: 0;"">Is there a person in this image?</p>
                    </div>
                </div>","0","main_experiment_trial","6","interview_scheme","schematic_sequence","","","","",""
"","","","","","html-keyboard-response","71","296230","0.0-71.0","4A54BFAC66B84BFC9588235CF8451341","019cf047-250e-74a8-925c-9f3044bb8251","019ceff9-9f67-7034-9722-02cda2445e09","","null","
                <div class=""stimulus-container"">
                    <img src=""images/schematic_sequence/interview_scheme/interview_scheme_7.png"" class=""exp-image"">
                    <div class=""question-area""></div> 
                </div>","null","","","","","","","","",""
"","","","","","html-button-response","72","297183","0.0-72.0","4A54BFAC66B84BFC9588235CF8451341","019cf047-250e-74a8-925c-9f3044bb8251","019ceff9-9f67-7034-9722-02cda2445e09","","952","
                <div class=""stimulus-container"">
                    <img src=""images/schematic_sequence/interview_scheme/interview_scheme_7.png"" class=""exp-image"">
                    <div class=""question-area"">
                        <p style=""font-size: 20px; font-weight: bold; margin: 0;"">Is there a person in this image?</p>
                    </div>
                </div>","0","main_experiment_trial","7","interview_scheme","schematic_sequence","","","","",""
"","","","","","html-keyboard-response","73","302185","0.0-73.0","4A54BFAC66B84BFC9588235CF8451341","019cf047-250e-74a8-925c-9f3044bb8251","019ceff9-9f67-7034-9722-02cda2445e09","","null","
                <div class=""stimulus-container"">
                    <img src=""images/schematic_sequence/interview_scheme/interview_scheme_8.png"" class=""exp-image"">
                    <div class=""question-area""></div> 
                </div>","null","","","","","","","","",""
"","","","","","html-button-response","74","303157","0.0-74.0","4A54BFAC66B84BFC9588235CF8451341","019cf047-250e-74a8-925c-9f3044bb8251","019ceff9-9f67-7034-9722-02cda2445e09","","971","
                <div class=""stimulus-container"">
                    <img src=""images/schematic_sequence/interview_scheme/interview_scheme_8.png"" class=""exp-image"">
                    <div class=""question-area"">
                        <p style=""font-size: 20px; font-weight: bold; margin: 0;"">Is there a person in this image?</p>
                    </div>
                </div>","0","main_experiment_trial","8","interview_scheme","schematic_sequence","","","","",""
"","","","","","html-keyboard-response","75","308159","0.0-75.0","4A54BFAC66B84BFC9588235CF8451341","019cf047-250e-74a8-925c-9f3044bb8251","019ceff9-9f67-7034-9722-02cda2445e09","","null","
                <div class=""stimulus-container"">
                    <img src=""images/schematic_sequence/interview_scheme/interview_scheme_9.png"" class=""exp-image"">
                    <div class=""question-area""></div> 
                </div>","null","","","","","","","","",""
"","","","","","html-button-response","76","309417","0.0-76.0","4A54BFAC66B84BFC9588235CF8451341","019cf047-250e-74a8-925c-9f3044bb8251","019ceff9-9f67-7034-9722-02cda2445e09","","1257","
                <div class=""stimulus-container"">
                    <img src=""images/schematic_sequence/interview_scheme/interview_scheme_9.png"" class=""exp-image"">
                    <div class=""question-area"">
                        <p style=""font-size: 20px; font-weight: bold; margin: 0;"">Is there a person in this image?</p>
                    </div>
                </div>","0","main_experiment_trial","9","interview_scheme","schematic_sequence","","","","",""
"","","","","","html-keyboard-response","77","314419","0.0-77.0","4A54BFAC66B84BFC9588235CF8451341","019cf047-250e-74a8-925c-9f3044bb8251","019ceff9-9f67-7034-9722-02cda2445e09","","null","
                <div class=""stimulus-container"">
                    <img src=""images/schematic_sequence/interview_scheme/interview_scheme_ten.png"" class=""exp-image"">
                    <div class=""question-area""></div> 
                </div>","null","","","","","","","","",""
"","","","","","html-button-response","78","315449","0.0-78.0","4A54BFAC66B84BFC9588235CF8451341","019cf047-250e-74a8-925c-9f3044bb8251","019ceff9-9f67-7034-9722-02cda2445e09","","1029","
                <div class=""stimulus-container"">
                    <img src=""images/schematic_sequence/interview_scheme/interview_scheme_ten.png"" class=""exp-image"">
                    <div class=""question-area"">
                        <p style=""font-size: 20px; font-weight: bold; margin: 0;"">Is there a person in this image?</p>
                    </div>
                </div>","0","main_experiment_trial","ten","interview_scheme","schematic_sequence","","","","",""
"","","","","","html-keyboard-response","79","316451","0.0-79.0","4A54BFAC66B84BFC9588235CF8451341","019cf047-250e-74a8-925c-9f3044bb8251","019ceff9-9f67-7034-9722-02cda2445e09","","null","<div style=""background-color: white; width: 100vw; height: 100vh;""></div>","null","","","","","","","","",""
"","","","","","html-keyboard-response","80","321453","0.0-80.0","4A54BFAC66B84BFC9588235CF8451341","019cf047-250e-74a8-925c-9f3044bb8251","019ceff9-9f67-7034-9722-02cda2445e09","","null","
                <div class=""stimulus-container"">
                    <img src=""images/causal_sequence/saving_a_cat_causal/saving_a_cat_causal_1.png"" class=""exp-image"">
                    <div class=""question-area""></div> 
                </div>","null","","","","","","","","",""
"","","","","","html-button-response","81","322413","0.0-81.0","4A54BFAC66B84BFC9588235CF8451341","019cf047-250e-74a8-925c-9f3044bb8251","019ceff9-9f67-7034-9722-02cda2445e09","","959","
                <div class=""stimulus-container"">
                    <img src=""images/causal_sequence/saving_a_cat_causal/saving_a_cat_causal_1.png"" class=""exp-image"">
                    <div class=""question-area"">
                        <p style=""font-size: 20px; font-weight: bold; margin: 0;"">Is there a person in this image?</p>
                    </div>
                </div>","0","main_experiment_trial","1","saving_a_cat_causal","causal_sequence","","","","",""
"","","","","","html-keyboard-response","82","327415","0.0-82.0","4A54BFAC66B84BFC9588235CF8451341","019cf047-250e-74a8-925c-9f3044bb8251","019ceff9-9f67-7034-9722-02cda2445e09","","null","
                <div class=""stimulus-container"">
                    <img src=""images/causal_sequence/saving_a_cat_causal/saving_a_cat_causal_2.png"" class=""exp-image"">
                    <div class=""question-area""></div> 
                </div>","null","","","","","","","","",""
"","","","","","html-button-response","83","328983","0.0-83.0","4A54BFAC66B84BFC9588235CF8451341","019cf047-250e-74a8-925c-9f3044bb8251","019ceff9-9f67-7034-9722-02cda2445e09","","1567","
                <div class=""stimulus-container"">
                    <img src=""images/causal_sequence/saving_a_cat_causal/saving_a_cat_causal_2.png"" class=""exp-image"">
                    <div class=""question-area"">
                        <p style=""font-size: 20px; font-weight: bold; margin: 0;"">Is there a person in this image?</p>
                    </div>
                </div>","1","main_experiment_trial","2","saving_a_cat_causal","causal_sequence","","","","",""
"","","","","","html-keyboard-response","84","333986","0.0-84.0","4A54BFAC66B84BFC9588235CF8451341","019cf047-250e-74a8-925c-9f3044bb8251","019ceff9-9f67-7034-9722-02cda2445e09","","null","
                <div class=""stimulus-container"">
                    <img src=""images/causal_sequence/saving_a_cat_causal/saving_a_cat_causal_3.png"" class=""exp-image"">
                    <div class=""question-area""></div> 
                </div>","null","","","","","","","","",""
"","","","","","html-button-response","85","335109","0.0-85.0","4A54BFAC66B84BFC9588235CF8451341","019cf047-250e-74a8-925c-9f3044bb8251","019ceff9-9f67-7034-9722-02cda2445e09","","1123","
                <div class=""stimulus-container"">
                    <img src=""images/causal_sequence/saving_a_cat_causal/saving_a_cat_causal_3.png"" class=""exp-image"">
                    <div class=""question-area"">
                        <p style=""font-size: 20px; font-weight: bold; margin: 0;"">Is there a person in this image?</p>
                    </div>
                </div>","1","main_experiment_trial","3","saving_a_cat_causal","causal_sequence","","","","",""
"","","","","","html-keyboard-response","86","340112","0.0-86.0","4A54BFAC66B84BFC9588235CF8451341","019cf047-250e-74a8-925c-9f3044bb8251","019ceff9-9f67-7034-9722-02cda2445e09","","null","
                <div class=""stimulus-container"">
                    <img src=""images/causal_sequence/saving_a_cat_causal/saving_a_cat_causal_4.png"" class=""exp-image"">
                    <div class=""question-area""></div> 
                </div>","null","","","","","","","","",""
"","","","","","html-button-response","87","341553","0.0-87.0","4A54BFAC66B84BFC9588235CF8451341","019cf047-250e-74a8-925c-9f3044bb8251","019ceff9-9f67-7034-9722-02cda2445e09","","1440","
                <div class=""stimulus-container"">
                    <img src=""images/causal_sequence/saving_a_cat_causal/saving_a_cat_causal_4.png"" class=""exp-image"">
                    <div class=""question-area"">
                        <p style=""font-size: 20px; font-weight: bold; margin: 0;"">Is there a person in this image?</p>
                    </div>
                </div>","0","main_experiment_trial","4","saving_a_cat_causal","causal_sequence","","","","",""
"","","","","","html-keyboard-response","88","346556","0.0-88.0","4A54BFAC66B84BFC9588235CF8451341","019cf047-250e-74a8-925c-9f3044bb8251","019ceff9-9f67-7034-9722-02cda2445e09","","null","
                <div class=""stimulus-container"">
                    <img src=""images/causal_sequence/saving_a_cat_causal/saving_a_cat_causal_5.png"" class=""exp-image"">
                    <div class=""question-area""></div> 
                </div>","null","","","","","","","","",""
"","","","","","html-button-response","89","347590","0.0-89.0","4A54BFAC66B84BFC9588235CF8451341","019cf047-250e-74a8-925c-9f3044bb8251","019ceff9-9f67-7034-9722-02cda2445e09","","1034","
                <div class=""stimulus-container"">
                    <img src=""images/causal_sequence/saving_a_cat_causal/saving_a_cat_causal_5.png"" class=""exp-image"">
                    <div class=""question-area"">
                        <p style=""font-size: 20px; font-weight: bold; margin: 0;"">Is there a person in this image?</p>
                    </div>
                </div>","0","main_experiment_trial","5","saving_a_cat_causal","causal_sequence","","","","",""
"","","","","","html-keyboard-response","90","352592","0.0-90.0","4A54BFAC66B84BFC9588235CF8451341","019cf047-250e-74a8-925c-9f3044bb8251","019ceff9-9f67-7034-9722-02cda2445e09","","null","
                <div class=""stimulus-container"">
                    <img src=""images/causal_sequence/saving_a_cat_causal/saving_a_cat_causal_6.png"" class=""exp-image"">
                    <div class=""question-area""></div> 
                </div>","null","","","","","","","","",""
"","","","","","html-button-response","91","353495","0.0-91.0","4A54BFAC66B84BFC9588235CF8451341","019cf047-250e-74a8-925c-9f3044bb8251","019ceff9-9f67-7034-9722-02cda2445e09","","903","
                <div class=""stimulus-container"">
                    <img src=""images/causal_sequence/saving_a_cat_causal/saving_a_cat_causal_6.png"" class=""exp-image"">
                    <div class=""question-area"">
                        <p style=""font-size: 20px; font-weight: bold; margin: 0;"">Is there a person in this image?</p>
                    </div>
                </div>","0","main_experiment_trial","6","saving_a_cat_causal","causal_sequence","","","","",""
"","","","","","html-keyboard-response","92","358497","0.0-92.0","4A54BFAC66B84BFC9588235CF8451341","019cf047-250e-74a8-925c-9f3044bb8251","019ceff9-9f67-7034-9722-02cda2445e09","","null","
                <div class=""stimulus-container"">
                    <img src=""images/causal_sequence/saving_a_cat_causal/saving_a_cat_causal_7.png"" class=""exp-image"">
                    <div class=""question-area""></div> 
                </div>","null","","","","","","","","",""
"","","","","","html-button-response","93","359361","0.0-93.0","4A54BFAC66B84BFC9588235CF8451341","019cf047-250e-74a8-925c-9f3044bb8251","019ceff9-9f67-7034-9722-02cda2445e09","","862","
                <div class=""stimulus-container"">
                    <img src=""images/causal_sequence/saving_a_cat_causal/saving_a_cat_causal_7.png"" class=""exp-image"">
                    <div class=""question-area"">
                        <p style=""font-size: 20px; font-weight: bold; margin: 0;"">Is there a person in this image?</p>
                    </div>
                </div>","0","main_experiment_trial","7","saving_a_cat_causal","causal_sequence","","","","",""
"","","","","","html-keyboard-response","94","364363","0.0-94.0","4A54BFAC66B84BFC9588235CF8451341","019cf047-250e-74a8-925c-9f3044bb8251","019ceff9-9f67-7034-9722-02cda2445e09","","null","
                <div class=""stimulus-container"">
                    <img src=""images/causal_sequence/saving_a_cat_causal/saving_a_cat_causal_8.png"" class=""exp-image"">
                    <div class=""question-area""></div> 
                </div>","null","","","","","","","","",""
"","","","","","html-button-response","95","365523","0.0-95.0","4A54BFAC66B84BFC9588235CF8451341","019cf047-250e-74a8-925c-9f3044bb8251","019ceff9-9f67-7034-9722-02cda2445e09","","1159","
                <div class=""stimulus-container"">
                    <img src=""images/causal_sequence/saving_a_cat_causal/saving_a_cat_causal_8.png"" class=""exp-image"">
                    <div class=""question-area"">
                        <p style=""font-size: 20px; font-weight: bold; margin: 0;"">Is there a person in this image?</p>
                    </div>
                </div>","0","main_experiment_trial","8","saving_a_cat_causal","causal_sequence","","","","",""
"","","","","","html-keyboard-response","96","370524","0.0-96.0","4A54BFAC66B84BFC9588235CF8451341","019cf047-250e-74a8-925c-9f3044bb8251","019ceff9-9f67-7034-9722-02cda2445e09","","null","
                <div class=""stimulus-container"">
                    <img src=""images/causal_sequence/saving_a_cat_causal/saving_a_cat_causal_9.png"" class=""exp-image"">
                    <div class=""question-area""></div> 
                </div>","null","","","","","","","","",""
"","","","","","html-button-response","97","371404","0.0-97.0","4A54BFAC66B84BFC9588235CF8451341","019cf047-250e-74a8-925c-9f3044bb8251","019ceff9-9f67-7034-9722-02cda2445e09","","880","
                <div class=""stimulus-container"">
                    <img src=""images/causal_sequence/saving_a_cat_causal/saving_a_cat_causal_9.png"" class=""exp-image"">
                    <div class=""question-area"">
                        <p style=""font-size: 20px; font-weight: bold; margin: 0;"">Is there a person in this image?</p>
                    </div>
                </div>","0","main_experiment_trial","9","saving_a_cat_causal","causal_sequence","","","","",""
"","","","","","html-keyboard-response","98","376406","0.0-98.0","4A54BFAC66B84BFC9588235CF8451341","019cf047-250e-74a8-925c-9f3044bb8251","019ceff9-9f67-7034-9722-02cda2445e09","","null","
                <div class=""stimulus-container"">
                    <img src=""images/causal_sequence/saving_a_cat_causal/saving_a_cat_causal_ten.png"" class=""exp-image"">
                    <div class=""question-area""></div> 
                </div>","null","","","","","","","","",""
"","","","","","html-button-response","99","377450","0.0-99.0","4A54BFAC66B84BFC9588235CF8451341","019cf047-250e-74a8-925c-9f3044bb8251","019ceff9-9f67-7034-9722-02cda2445e09","","1043","
                <div class=""stimulus-container"">
                    <img src=""images/causal_sequence/saving_a_cat_causal/saving_a_cat_causal_ten.png"" class=""exp-image"">
                    <div class=""question-area"">
                        <p style=""font-size: 20px; font-weight: bold; margin: 0;"">Is there a person in this image?</p>
                    </div>
                </div>","0","main_experiment_trial","ten","saving_a_cat_causal","causal_sequence","","","","",""
"","","","","","html-keyboard-response","100","378453","0.0-100.0","4A54BFAC66B84BFC9588235CF8451341","019cf047-250e-74a8-925c-9f3044bb8251","019ceff9-9f67-7034-9722-02cda2445e09","","null","<div style=""background-color: white; width: 100vw; height: 100vh;""></div>","null","","","","","","","","",""
"","","","","","html-keyboard-response","101","383455","0.0-101.0","4A54BFAC66B84BFC9588235CF8451341","019cf047-250e-74a8-925c-9f3044bb8251","019ceff9-9f67-7034-9722-02cda2445e09","","null","
                <div class=""stimulus-container"">
                    <img src=""images/schematic_sequence/hotel_scheme/hotel_scheme_1.png"" class=""exp-image"">
                    <div class=""question-area""></div> 
                </div>","null","","","","","","","","",""
"","","","","","html-button-response","102","384734","0.0-102.0","4A54BFAC66B84BFC9588235CF8451341","019cf047-250e-74a8-925c-9f3044bb8251","019ceff9-9f67-7034-9722-02cda2445e09","","1278","
                <div class=""stimulus-container"">
                    <img src=""images/schematic_sequence/hotel_scheme/hotel_scheme_1.png"" class=""exp-image"">
                    <div class=""question-area"">
                        <p style=""font-size: 20px; font-weight: bold; margin: 0;"">Is there a person in this image?</p>
                    </div>
                </div>","1","main_experiment_trial","1","hotel_scheme","schematic_sequence","","","","",""
"","","","","","html-keyboard-response","103","389736","0.0-103.0","4A54BFAC66B84BFC9588235CF8451341","019cf047-250e-74a8-925c-9f3044bb8251","019ceff9-9f67-7034-9722-02cda2445e09","","null","
                <div class=""stimulus-container"">
                    <img src=""images/schematic_sequence/hotel_scheme/hotel_scheme_2.png"" class=""exp-image"">
                    <div class=""question-area""></div> 
                </div>","null","","","","","","","","",""
"","","","","","html-button-response","104","390640","0.0-104.0","4A54BFAC66B84BFC9588235CF8451341","019cf047-250e-74a8-925c-9f3044bb8251","019ceff9-9f67-7034-9722-02cda2445e09","","902","
                <div class=""stimulus-container"">
                    <img src=""images/schematic_sequence/hotel_scheme/hotel_scheme_2.png"" class=""exp-image"">
                    <div class=""question-area"">
                        <p style=""font-size: 20px; font-weight: bold; margin: 0;"">Is there a person in this image?</p>
                    </div>
                </div>","0","main_experiment_trial","2","hotel_scheme","schematic_sequence","","","","",""
"","","","","","html-keyboard-response","105","395642","0.0-105.0","4A54BFAC66B84BFC9588235CF8451341","019cf047-250e-74a8-925c-9f3044bb8251","019ceff9-9f67-7034-9722-02cda2445e09","","null","
                <div class=""stimulus-container"">
                    <img src=""images/schematic_sequence/hotel_scheme/hotel_scheme_3.png"" class=""exp-image"">
                    <div class=""question-area""></div> 
                </div>","null","","","","","","","","",""
"","","","","","html-button-response","106","396837","0.0-106.0","4A54BFAC66B84BFC9588235CF8451341","019cf047-250e-74a8-925c-9f3044bb8251","019ceff9-9f67-7034-9722-02cda2445e09","","1194","
                <div class=""stimulus-container"">
                    <img src=""images/schematic_sequence/hotel_scheme/hotel_scheme_3.png"" class=""exp-image"">
                    <div class=""question-area"">
                        <p style=""font-size: 20px; font-weight: bold; margin: 0;"">Is there a person in this image?</p>
                    </div>
                </div>","0","main_experiment_trial","3","hotel_scheme","schematic_sequence","","","","",""
"","","","","","html-keyboard-response","107","401839","0.0-107.0","4A54BFAC66B84BFC9588235CF8451341","019cf047-250e-74a8-925c-9f3044bb8251","019ceff9-9f67-7034-9722-02cda2445e09","","null","
                <div class=""stimulus-container"">
                    <img src=""images/schematic_sequence/hotel_scheme/hotel_scheme_4.png"" class=""exp-image"">
                    <div class=""question-area""></div> 
                </div>","null","","","","","","","","",""
"","","","","","html-button-response","108","402922","0.0-108.0","4A54BFAC66B84BFC9588235CF8451341","019cf047-250e-74a8-925c-9f3044bb8251","019ceff9-9f67-7034-9722-02cda2445e09","","1083","
                <div class=""stimulus-container"">
                    <img src=""images/schematic_sequence/hotel_scheme/hotel_scheme_4.png"" class=""exp-image"">
                    <div class=""question-area"">
                        <p style=""font-size: 20px; font-weight: bold; margin: 0;"">Is there a person in this image?</p>
                    </div>
                </div>","1","main_experiment_trial","4","hotel_scheme","schematic_sequence","","","","",""
"","","","","","html-keyboard-response","109","407924","0.0-109.0","4A54BFAC66B84BFC9588235CF8451341","019cf047-250e-74a8-925c-9f3044bb8251","019ceff9-9f67-7034-9722-02cda2445e09","","null","
                <div class=""stimulus-container"">
                    <img src=""images/schematic_sequence/hotel_scheme/hotel_scheme_5.png"" class=""exp-image"">
                    <div class=""question-area""></div> 
                </div>","null","","","","","","","","",""
"","","","","","html-button-response","110","408873","0.0-110.0","4A54BFAC66B84BFC9588235CF8451341","019cf047-250e-74a8-925c-9f3044bb8251","019ceff9-9f67-7034-9722-02cda2445e09","","948","
                <div class=""stimulus-container"">
                    <img src=""images/schematic_sequence/hotel_scheme/hotel_scheme_5.png"" class=""exp-image"">
                    <div class=""question-area"">
                        <p style=""font-size: 20px; font-weight: bold; margin: 0;"">Is there a person in this image?</p>
                    </div>
                </div>","0","main_experiment_trial","5","hotel_scheme","schematic_sequence","","","","",""
"","","","","","html-keyboard-response","111","413875","0.0-111.0","4A54BFAC66B84BFC9588235CF8451341","019cf047-250e-74a8-925c-9f3044bb8251","019ceff9-9f67-7034-9722-02cda2445e09","","null","
                <div class=""stimulus-container"">
                    <img src=""images/schematic_sequence/hotel_scheme/hotel_scheme_6.png"" class=""exp-image"">
                    <div class=""question-area""></div> 
                </div>","null","","","","","","","","",""
"","","","","","html-button-response","112","415111","0.0-112.0","4A54BFAC66B84BFC9588235CF8451341","019cf047-250e-74a8-925c-9f3044bb8251","019ceff9-9f67-7034-9722-02cda2445e09","","1235","
                <div class=""stimulus-container"">
                    <img src=""images/schematic_sequence/hotel_scheme/hotel_scheme_6.png"" class=""exp-image"">
                    <div class=""question-area"">
                        <p style=""font-size: 20px; font-weight: bold; margin: 0;"">Is there a person in this image?</p>
                    </div>
                </div>","0","main_experiment_trial","6","hotel_scheme","schematic_sequence","","","","",""
"","","","","","html-keyboard-response","113","420113","0.0-113.0","4A54BFAC66B84BFC9588235CF8451341","019cf047-250e-74a8-925c-9f3044bb8251","019ceff9-9f67-7034-9722-02cda2445e09","","null","
                <div class=""stimulus-container"">
                    <img src=""images/schematic_sequence/hotel_scheme/hotel_scheme_7.png"" class=""exp-image"">
                    <div class=""question-area""></div> 
                </div>","null","","","","","","","","",""
"","","","","","html-button-response","114","421390","0.0-114.0","4A54BFAC66B84BFC9588235CF8451341","019cf047-250e-74a8-925c-9f3044bb8251","019ceff9-9f67-7034-9722-02cda2445e09","","1276","
                <div class=""stimulus-container"">
                    <img src=""images/schematic_sequence/hotel_scheme/hotel_scheme_7.png"" class=""exp-image"">
                    <div class=""question-area"">
                        <p style=""font-size: 20px; font-weight: bold; margin: 0;"">Is there a person in this image?</p>
                    </div>
                </div>","0","main_experiment_trial","7","hotel_scheme","schematic_sequence","","","","",""
"","","","","","html-keyboard-response","115","426392","0.0-115.0","4A54BFAC66B84BFC9588235CF8451341","019cf047-250e-74a8-925c-9f3044bb8251","019ceff9-9f67-7034-9722-02cda2445e09","","null","
                <div class=""stimulus-container"">
                    <img src=""images/schematic_sequence/hotel_scheme/hotel_scheme_8.png"" class=""exp-image"">
                    <div class=""question-area""></div> 
                </div>","null","","","","","","","","",""
"","","","","","html-button-response","116","427579","0.0-116.0","4A54BFAC66B84BFC9588235CF8451341","019cf047-250e-74a8-925c-9f3044bb8251","019ceff9-9f67-7034-9722-02cda2445e09","","1186","
                <div class=""stimulus-container"">
                    <img src=""images/schematic_sequence/hotel_scheme/hotel_scheme_8.png"" class=""exp-image"">
                    <div class=""question-area"">
                        <p style=""font-size: 20px; font-weight: bold; margin: 0;"">Is there a person in this image?</p>
                    </div>
                </div>","0","main_experiment_trial","8","hotel_scheme","schematic_sequence","","","","",""
"","","","","","html-keyboard-response","117","432582","0.0-117.0","4A54BFAC66B84BFC9588235CF8451341","019cf047-250e-74a8-925c-9f3044bb8251","019ceff9-9f67-7034-9722-02cda2445e09","","null","
                <div class=""stimulus-container"">
                    <img src=""images/schematic_sequence/hotel_scheme/hotel_scheme_9.png"" class=""exp-image"">
                    <div class=""question-area""></div> 
                </div>","null","","","","","","","","",""
"","","","","","html-button-response","118","433678","0.0-118.0","4A54BFAC66B84BFC9588235CF8451341","019cf047-250e-74a8-925c-9f3044bb8251","019ceff9-9f67-7034-9722-02cda2445e09","","1095","
                <div class=""stimulus-container"">
                    <img src=""images/schematic_sequence/hotel_scheme/hotel_scheme_9.png"" class=""exp-image"">
                    <div class=""question-area"">
                        <p style=""font-size: 20px; font-weight: bold; margin: 0;"">Is there a person in this image?</p>
                    </div>
                </div>","0","main_experiment_trial","9","hotel_scheme","schematic_sequence","","","","",""
"","","","","","html-keyboard-response","119","438680","0.0-119.0","4A54BFAC66B84BFC9588235CF8451341","019cf047-250e-74a8-925c-9f3044bb8251","019ceff9-9f67-7034-9722-02cda2445e09","","null","
                <div class=""stimulus-container"">
                    <img src=""images/schematic_sequence/hotel_scheme/hotel_scheme_ten.png"" class=""exp-image"">
                    <div class=""question-area""></div> 
                </div>","null","","","","","","","","",""
"","","","","","html-button-response","120","439877","0.0-120.0","4A54BFAC66B84BFC9588235CF8451341","019cf047-250e-74a8-925c-9f3044bb8251","019ceff9-9f67-7034-9722-02cda2445e09","","1196","
                <div class=""stimulus-container"">
                    <img src=""images/schematic_sequence/hotel_scheme/hotel_scheme_ten.png"" class=""exp-image"">
                    <div class=""question-area"">
                        <p style=""font-size: 20px; font-weight: bold; margin: 0;"">Is there a person in this image?</p>
                    </div>
                </div>","0","main_experiment_trial","ten","hotel_scheme","schematic_sequence","","","","",""
"","","","","","html-keyboard-response","121","440880","0.0-121.0","4A54BFAC66B84BFC9588235CF8451341","019cf047-250e-74a8-925c-9f3044bb8251","019ceff9-9f67-7034-9722-02cda2445e09","","null","<div style=""background-color: white; width: 100vw; height: 100vh;""></div>","null","","","","","","","","",""
"","","","","","html-keyboard-response","122","445883","0.0-122.0","4A54BFAC66B84BFC9588235CF8451341","019cf047-250e-74a8-925c-9f3044bb8251","019ceff9-9f67-7034-9722-02cda2445e09","","null","
                <div class=""stimulus-container"">
                    <img src=""images/schematic_sequence/restaurant_scheme/restaurant_scheme_1.png"" class=""exp-image"">
                    <div class=""question-area""></div> 
                </div>","null","","","","","","","","",""
"","","","","","html-button-response","123","446950","0.0-123.0","4A54BFAC66B84BFC9588235CF8451341","019cf047-250e-74a8-925c-9f3044bb8251","019ceff9-9f67-7034-9722-02cda2445e09","","1066","
                <div class=""stimulus-container"">
                    <img src=""images/schematic_sequence/restaurant_scheme/restaurant_scheme_1.png"" class=""exp-image"">
                    <div class=""question-area"">
                        <p style=""font-size: 20px; font-weight: bold; margin: 0;"">Is there a person in this image?</p>
                    </div>
                </div>","0","main_experiment_trial","1","restaurant_scheme","schematic_sequence","","","","",""
"","","","","","html-keyboard-response","124","451952","0.0-124.0","4A54BFAC66B84BFC9588235CF8451341","019cf047-250e-74a8-925c-9f3044bb8251","019ceff9-9f67-7034-9722-02cda2445e09","","null","
                <div class=""stimulus-container"">
                    <img src=""images/schematic_sequence/restaurant_scheme/restaurant_scheme_2.png"" class=""exp-image"">
                    <div class=""question-area""></div> 
                </div>","null","","","","","","","","",""
"","","","","","html-button-response","125","452875","0.0-125.0","4A54BFAC66B84BFC9588235CF8451341","019cf047-250e-74a8-925c-9f3044bb8251","019ceff9-9f67-7034-9722-02cda2445e09","","922","
                <div class=""stimulus-container"">
                    <img src=""images/schematic_sequence/restaurant_scheme/restaurant_scheme_2.png"" class=""exp-image"">
                    <div class=""question-area"">
                        <p style=""font-size: 20px; font-weight: bold; margin: 0;"">Is there a person in this image?</p>
                    </div>
                </div>","1","main_experiment_trial","2","restaurant_scheme","schematic_sequence","","","","",""
"","","","","","html-keyboard-response","126","457877","0.0-126.0","4A54BFAC66B84BFC9588235CF8451341","019cf047-250e-74a8-925c-9f3044bb8251","019ceff9-9f67-7034-9722-02cda2445e09","","null","
                <div class=""stimulus-container"">
                    <img src=""images/schematic_sequence/restaurant_scheme/restaurant_scheme_3.png"" class=""exp-image"">
                    <div class=""question-area""></div> 
                </div>","null","","","","","","","","",""
"","","","","","html-button-response","127","458747","0.0-127.0","4A54BFAC66B84BFC9588235CF8451341","019cf047-250e-74a8-925c-9f3044bb8251","019ceff9-9f67-7034-9722-02cda2445e09","","870","
                <div class=""stimulus-container"">
                    <img src=""images/schematic_sequence/restaurant_scheme/restaurant_scheme_3.png"" class=""exp-image"">
                    <div class=""question-area"">
                        <p style=""font-size: 20px; font-weight: bold; margin: 0;"">Is there a person in this image?</p>
                    </div>
                </div>","1","main_experiment_trial","3","restaurant_scheme","schematic_sequence","","","","",""
"","","","","","html-keyboard-response","128","463750","0.0-128.0","4A54BFAC66B84BFC9588235CF8451341","019cf047-250e-74a8-925c-9f3044bb8251","019ceff9-9f67-7034-9722-02cda2445e09","","null","
                <div class=""stimulus-container"">
                    <img src=""images/schematic_sequence/restaurant_scheme/restaurant_scheme_4.png"" class=""exp-image"">
                    <div class=""question-area""></div> 
                </div>","null","","","","","","","","",""
"","","","","","html-button-response","129","465298","0.0-129.0","4A54BFAC66B84BFC9588235CF8451341","019cf047-250e-74a8-925c-9f3044bb8251","019ceff9-9f67-7034-9722-02cda2445e09","","1547","
                <div class=""stimulus-container"">
                    <img src=""images/schematic_sequence/restaurant_scheme/restaurant_scheme_4.png"" class=""exp-image"">
                    <div class=""question-area"">
                        <p style=""font-size: 20px; font-weight: bold; margin: 0;"">Is there a person in this image?</p>
                    </div>
                </div>","0","main_experiment_trial","4","restaurant_scheme","schematic_sequence","","","","",""
"","","","","","html-keyboard-response","130","470300","0.0-130.0","4A54BFAC66B84BFC9588235CF8451341","019cf047-250e-74a8-925c-9f3044bb8251","019ceff9-9f67-7034-9722-02cda2445e09","","null","
                <div class=""stimulus-container"">
                    <img src=""images/schematic_sequence/restaurant_scheme/restaurant_scheme_5.png"" class=""exp-image"">
                    <div class=""question-area""></div> 
                </div>","null","","","","","","","","",""
"","","","","","html-button-response","131","471684","0.0-131.0","4A54BFAC66B84BFC9588235CF8451341","019cf047-250e-74a8-925c-9f3044bb8251","019ceff9-9f67-7034-9722-02cda2445e09","","1383","
                <div class=""stimulus-container"">
                    <img src=""images/schematic_sequence/restaurant_scheme/restaurant_scheme_5.png"" class=""exp-image"">
                    <div class=""question-area"">
                        <p style=""font-size: 20px; font-weight: bold; margin: 0;"">Is there a person in this image?</p>
                    </div>
                </div>","0","main_experiment_trial","5","restaurant_scheme","schematic_sequence","","","","",""
"","","","","","html-keyboard-response","132","476686","0.0-132.0","4A54BFAC66B84BFC9588235CF8451341","019cf047-250e-74a8-925c-9f3044bb8251","019ceff9-9f67-7034-9722-02cda2445e09","","null","
                <div class=""stimulus-container"">
                    <img src=""images/schematic_sequence/restaurant_scheme/restaurant_scheme_6.png"" class=""exp-image"">
                    <div class=""question-area""></div> 
                </div>","null","","","","","","","","",""
"","","","","","html-button-response","133","478211","0.0-133.0","4A54BFAC66B84BFC9588235CF8451341","019cf047-250e-74a8-925c-9f3044bb8251","019ceff9-9f67-7034-9722-02cda2445e09","","1524","
                <div class=""stimulus-container"">
                    <img src=""images/schematic_sequence/restaurant_scheme/restaurant_scheme_6.png"" class=""exp-image"">
                    <div class=""question-area"">
                        <p style=""font-size: 20px; font-weight: bold; margin: 0;"">Is there a person in this image?</p>
                    </div>
                </div>","1","main_experiment_trial","6","restaurant_scheme","schematic_sequence","","","","",""
"","","","","","html-keyboard-response","134","483213","0.0-134.0","4A54BFAC66B84BFC9588235CF8451341","019cf047-250e-74a8-925c-9f3044bb8251","019ceff9-9f67-7034-9722-02cda2445e09","","null","
                <div class=""stimulus-container"">
                    <img src=""images/schematic_sequence/restaurant_scheme/restaurant_scheme_7.png"" class=""exp-image"">
                    <div class=""question-area""></div> 
                </div>","null","","","","","","","","",""
"","","","","","html-button-response","135","484332","0.0-135.0","4A54BFAC66B84BFC9588235CF8451341","019cf047-250e-74a8-925c-9f3044bb8251","019ceff9-9f67-7034-9722-02cda2445e09","","1118","
                <div class=""stimulus-container"">
                    <img src=""images/schematic_sequence/restaurant_scheme/restaurant_scheme_7.png"" class=""exp-image"">
                    <div class=""question-area"">
                        <p style=""font-size: 20px; font-weight: bold; margin: 0;"">Is there a person in this image?</p>
                    </div>
                </div>","1","main_experiment_trial","7","restaurant_scheme","schematic_sequence","","","","",""
"","","","","","html-keyboard-response","136","489334","0.0-136.0","4A54BFAC66B84BFC9588235CF8451341","019cf047-250e-74a8-925c-9f3044bb8251","019ceff9-9f67-7034-9722-02cda2445e09","","null","
                <div class=""stimulus-container"">
                    <img src=""images/schematic_sequence/restaurant_scheme/restaurant_scheme_8.png"" class=""exp-image"">
                    <div class=""question-area""></div> 
                </div>","null","","","","","","","","",""
"","","","","","html-button-response","137","490739","0.0-137.0","4A54BFAC66B84BFC9588235CF8451341","019cf047-250e-74a8-925c-9f3044bb8251","019ceff9-9f67-7034-9722-02cda2445e09","","1405","
                <div class=""stimulus-container"">
                    <img src=""images/schematic_sequence/restaurant_scheme/restaurant_scheme_8.png"" class=""exp-image"">
                    <div class=""question-area"">
                        <p style=""font-size: 20px; font-weight: bold; margin: 0;"">Is there a person in this image?</p>
                    </div>
                </div>","0","main_experiment_trial","8","restaurant_scheme","schematic_sequence","","","","",""
"","","","","","html-keyboard-response","138","495742","0.0-138.0","4A54BFAC66B84BFC9588235CF8451341","019cf047-250e-74a8-925c-9f3044bb8251","019ceff9-9f67-7034-9722-02cda2445e09","","null","
                <div class=""stimulus-container"">
                    <img src=""images/schematic_sequence/restaurant_scheme/restaurant_scheme_9.png"" class=""exp-image"">
                    <div class=""question-area""></div> 
                </div>","null","","","","","","","","",""
"","","","","","html-button-response","139","496494","0.0-139.0","4A54BFAC66B84BFC9588235CF8451341","019cf047-250e-74a8-925c-9f3044bb8251","019ceff9-9f67-7034-9722-02cda2445e09","","751","
                <div class=""stimulus-container"">
                    <img src=""images/schematic_sequence/restaurant_scheme/restaurant_scheme_9.png"" class=""exp-image"">
                    <div class=""question-area"">
                        <p style=""font-size: 20px; font-weight: bold; margin: 0;"">Is there a person in this image?</p>
                    </div>
                </div>","0","main_experiment_trial","9","restaurant_scheme","schematic_sequence","","","","",""
"","","","","","html-keyboard-response","140","501496","0.0-140.0","4A54BFAC66B84BFC9588235CF8451341","019cf047-250e-74a8-925c-9f3044bb8251","019ceff9-9f67-7034-9722-02cda2445e09","","null","
                <div class=""stimulus-container"">
                    <img src=""images/schematic_sequence/restaurant_scheme/restaurant_scheme_ten.png"" class=""exp-image"">
                    <div class=""question-area""></div> 
                </div>","null","","","","","","","","",""
"","","","","","html-button-response","141","502483","0.0-141.0","4A54BFAC66B84BFC9588235CF8451341","019cf047-250e-74a8-925c-9f3044bb8251","019ceff9-9f67-7034-9722-02cda2445e09","","986","
                <div class=""stimulus-container"">
                    <img src=""images/schematic_sequence/restaurant_scheme/restaurant_scheme_ten.png"" class=""exp-image"">
                    <div class=""question-area"">
                        <p style=""font-size: 20px; font-weight: bold; margin: 0;"">Is there a person in this image?</p>
                    </div>
                </div>","0","main_experiment_trial","ten","restaurant_scheme","schematic_sequence","","","","",""
"","","","","","html-keyboard-response","142","503485","0.0-142.0","4A54BFAC66B84BFC9588235CF8451341","019cf047-250e-74a8-925c-9f3044bb8251","019ceff9-9f67-7034-9722-02cda2445e09","","null","<div style=""background-color: white; width: 100vw; height: 100vh;""></div>","null","","","","","","","","",""
"","","","","","html-keyboard-response","143","508487","0.0-143.0","4A54BFAC66B84BFC9588235CF8451341","019cf047-250e-74a8-925c-9f3044bb8251","019ceff9-9f67-7034-9722-02cda2445e09","","null","
                <div class=""stimulus-container"">
                    <img src=""images/schematic_sequence/flight_scheme/flight_scheme_1.png"" class=""exp-image"">
                    <div class=""question-area""></div> 
                </div>","null","","","","","","","","",""
"","","","","","html-button-response","144","509186","0.0-144.0","4A54BFAC66B84BFC9588235CF8451341","019cf047-250e-74a8-925c-9f3044bb8251","019ceff9-9f67-7034-9722-02cda2445e09","","698","
                <div class=""stimulus-container"">
                    <img src=""images/schematic_sequence/flight_scheme/flight_scheme_1.png"" class=""exp-image"">
                    <div class=""question-area"">
                        <p style=""font-size: 20px; font-weight: bold; margin: 0;"">Is there a person in this image?</p>
                    </div>
                </div>","0","main_experiment_trial","1","flight_scheme","schematic_sequence","","","","",""
"","","","","","html-keyboard-response","145","514187","0.0-145.0","4A54BFAC66B84BFC9588235CF8451341","019cf047-250e-74a8-925c-9f3044bb8251","019ceff9-9f67-7034-9722-02cda2445e09","","null","
                <div class=""stimulus-container"">
                    <img src=""images/schematic_sequence/flight_scheme/flight_scheme_2.png"" class=""exp-image"">
                    <div class=""question-area""></div> 
                </div>","null","","","","","","","","",""
"","","","","","html-button-response","146","515409","0.0-146.0","4A54BFAC66B84BFC9588235CF8451341","019cf047-250e-74a8-925c-9f3044bb8251","019ceff9-9f67-7034-9722-02cda2445e09","","1221","
                <div class=""stimulus-container"">
                    <img src=""images/schematic_sequence/flight_scheme/flight_scheme_2.png"" class=""exp-image"">
                    <div class=""question-area"">
                        <p style=""font-size: 20px; font-weight: bold; margin: 0;"">Is there a person in this image?</p>
                    </div>
                </div>","1","main_experiment_trial","2","flight_scheme","schematic_sequence","","","","",""
"","","","","","html-keyboard-response","147","520412","0.0-147.0","4A54BFAC66B84BFC9588235CF8451341","019cf047-250e-74a8-925c-9f3044bb8251","019ceff9-9f67-7034-9722-02cda2445e09","","null","
                <div class=""stimulus-container"">
                    <img src=""images/schematic_sequence/flight_scheme/flight_scheme_3.png"" class=""exp-image"">
                    <div class=""question-area""></div> 
                </div>","null","","","","","","","","",""
"","","","","","html-button-response","148","521766","0.0-148.0","4A54BFAC66B84BFC9588235CF8451341","019cf047-250e-74a8-925c-9f3044bb8251","019ceff9-9f67-7034-9722-02cda2445e09","","1354","
                <div class=""stimulus-container"">
                    <img src=""images/schematic_sequence/flight_scheme/flight_scheme_3.png"" class=""exp-image"">
                    <div class=""question-area"">
                        <p style=""font-size: 20px; font-weight: bold; margin: 0;"">Is there a person in this image?</p>
                    </div>
                </div>","0","main_experiment_trial","3","flight_scheme","schematic_sequence","","","","",""
"","","","","","html-keyboard-response","149","526768","0.0-149.0","4A54BFAC66B84BFC9588235CF8451341","019cf047-250e-74a8-925c-9f3044bb8251","019ceff9-9f67-7034-9722-02cda2445e09","","null","
                <div class=""stimulus-container"">
                    <img src=""images/schematic_sequence/flight_scheme/flight_scheme_4.png"" class=""exp-image"">
                    <div class=""question-area""></div> 
                </div>","null","","","","","","","","",""
"","","","","","html-button-response","150","528159","0.0-150.0","4A54BFAC66B84BFC9588235CF8451341","019cf047-250e-74a8-925c-9f3044bb8251","019ceff9-9f67-7034-9722-02cda2445e09","","1390","
                <div class=""stimulus-container"">
                    <img src=""images/schematic_sequence/flight_scheme/flight_scheme_4.png"" class=""exp-image"">
                    <div class=""question-area"">
                        <p style=""font-size: 20px; font-weight: bold; margin: 0;"">Is there a person in this image?</p>
                    </div>
                </div>","0","main_experiment_trial","4","flight_scheme","schematic_sequence","","","","",""
"","","","","","html-keyboard-response","151","533161","0.0-151.0","4A54BFAC66B84BFC9588235CF8451341","019cf047-250e-74a8-925c-9f3044bb8251","019ceff9-9f67-7034-9722-02cda2445e09","","null","
                <div class=""stimulus-container"">
                    <img src=""images/schematic_sequence/flight_scheme/flight_scheme_5.png"" class=""exp-image"">
                    <div class=""question-area""></div> 
                </div>","null","","","","","","","","",""
"","","","","","html-button-response","152","534210","0.0-152.0","4A54BFAC66B84BFC9588235CF8451341","019cf047-250e-74a8-925c-9f3044bb8251","019ceff9-9f67-7034-9722-02cda2445e09","","1048","
                <div class=""stimulus-container"">
                    <img src=""images/schematic_sequence/flight_scheme/flight_scheme_5.png"" class=""exp-image"">
                    <div class=""question-area"">
                        <p style=""font-size: 20px; font-weight: bold; margin: 0;"">Is there a person in this image?</p>
                    </div>
                </div>","0","main_experiment_trial","5","flight_scheme","schematic_sequence","","","","",""
"","","","","","html-keyboard-response","153","539211","0.0-153.0","4A54BFAC66B84BFC9588235CF8451341","019cf047-250e-74a8-925c-9f3044bb8251","019ceff9-9f67-7034-9722-02cda2445e09","","null","
                <div class=""stimulus-container"">
                    <img src=""images/schematic_sequence/flight_scheme/flight_scheme_6.png"" class=""exp-image"">
                    <div class=""question-area""></div> 
                </div>","null","","","","","","","","",""
"","","","","","html-button-response","154","540481","0.0-154.0","4A54BFAC66B84BFC9588235CF8451341","019cf047-250e-74a8-925c-9f3044bb8251","019ceff9-9f67-7034-9722-02cda2445e09","","1269","
                <div class=""stimulus-container"">
                    <img src=""images/schematic_sequence/flight_scheme/flight_scheme_6.png"" class=""exp-image"">
                    <div class=""question-area"">
                        <p style=""font-size: 20px; font-weight: bold; margin: 0;"">Is there a person in this image?</p>
                    </div>
                </div>","1","main_experiment_trial","6","flight_scheme","schematic_sequence","","","","",""
"","","","","","html-keyboard-response","155","545483","0.0-155.0","4A54BFAC66B84BFC9588235CF8451341","019cf047-250e-74a8-925c-9f3044bb8251","019ceff9-9f67-7034-9722-02cda2445e09","","null","
                <div class=""stimulus-container"">
                    <img src=""images/schematic_sequence/flight_scheme/flight_scheme_7.png"" class=""exp-image"">
                    <div class=""question-area""></div> 
                </div>","null","","","","","","","","",""
"","","","","","html-button-response","156","546584","0.0-156.0","4A54BFAC66B84BFC9588235CF8451341","019cf047-250e-74a8-925c-9f3044bb8251","019ceff9-9f67-7034-9722-02cda2445e09","","1099","
                <div class=""stimulus-container"">
                    <img src=""images/schematic_sequence/flight_scheme/flight_scheme_7.png"" class=""exp-image"">
                    <div class=""question-area"">
                        <p style=""font-size: 20px; font-weight: bold; margin: 0;"">Is there a person in this image?</p>
                    </div>
                </div>","1","main_experiment_trial","7","flight_scheme","schematic_sequence","","","","",""
"","","","","","html-keyboard-response","157","551586","0.0-157.0","4A54BFAC66B84BFC9588235CF8451341","019cf047-250e-74a8-925c-9f3044bb8251","019ceff9-9f67-7034-9722-02cda2445e09","","null","
                <div class=""stimulus-container"">
                    <img src=""images/schematic_sequence/flight_scheme/flight_scheme_8.png"" class=""exp-image"">
                    <div class=""question-area""></div> 
                </div>","null","","","","","","","","",""
"","","","","","html-button-response","158","553044","0.0-158.0","4A54BFAC66B84BFC9588235CF8451341","019cf047-250e-74a8-925c-9f3044bb8251","019ceff9-9f67-7034-9722-02cda2445e09","","1457","
                <div class=""stimulus-container"">
                    <img src=""images/schematic_sequence/flight_scheme/flight_scheme_8.png"" class=""exp-image"">
                    <div class=""question-area"">
                        <p style=""font-size: 20px; font-weight: bold; margin: 0;"">Is there a person in this image?</p>
                    </div>
                </div>","1","main_experiment_trial","8","flight_scheme","schematic_sequence","","","","",""
"","","","","","html-keyboard-response","159","558045","0.0-159.0","4A54BFAC66B84BFC9588235CF8451341","019cf047-250e-74a8-925c-9f3044bb8251","019ceff9-9f67-7034-9722-02cda2445e09","","null","
                <div class=""stimulus-container"">
                    <img src=""images/schematic_sequence/flight_scheme/flight_scheme_9.png"" class=""exp-image"">
                    <div class=""question-area""></div> 
                </div>","null","","","","","","","","",""
"","","","","","html-button-response","160","559112","0.0-160.0","4A54BFAC66B84BFC9588235CF8451341","019cf047-250e-74a8-925c-9f3044bb8251","019ceff9-9f67-7034-9722-02cda2445e09","","1066","
                <div class=""stimulus-container"">
                    <img src=""images/schematic_sequence/flight_scheme/flight_scheme_9.png"" class=""exp-image"">
                    <div class=""question-area"">
                        <p style=""font-size: 20px; font-weight: bold; margin: 0;"">Is there a person in this image?</p>
                    </div>
                </div>","0","main_experiment_trial","9","flight_scheme","schematic_sequence","","","","",""
"","","","","","html-keyboard-response","161","564114","0.0-161.0","4A54BFAC66B84BFC9588235CF8451341","019cf047-250e-74a8-925c-9f3044bb8251","019ceff9-9f67-7034-9722-02cda2445e09","","null","
                <div class=""stimulus-container"">
                    <img src=""images/schematic_sequence/flight_scheme/flight_scheme_ten.png"" class=""exp-image"">
                    <div class=""question-area""></div> 
                </div>","null","","","","","","","","",""
"","","","","","html-button-response","162","565211","0.0-162.0","4A54BFAC66B84BFC9588235CF8451341","019cf047-250e-74a8-925c-9f3044bb8251","019ceff9-9f67-7034-9722-02cda2445e09","","1095","
                <div class=""stimulus-container"">
                    <img src=""images/schematic_sequence/flight_scheme/flight_scheme_ten.png"" class=""exp-image"">
                    <div class=""question-area"">
                        <p style=""font-size: 20px; font-weight: bold; margin: 0;"">Is there a person in this image?</p>
                    </div>
                </div>","0","main_experiment_trial","ten","flight_scheme","schematic_sequence","","","","",""
"","","","","","html-keyboard-response","163","566213","0.0-163.0","4A54BFAC66B84BFC9588235CF8451341","019cf047-250e-74a8-925c-9f3044bb8251","019ceff9-9f67-7034-9722-02cda2445e09","","null","<div style=""background-color: white; width: 100vw; height: 100vh;""></div>","null","","","","","","","","",""
"","","","","","html-keyboard-response","164","571214","0.0-164.0","4A54BFAC66B84BFC9588235CF8451341","019cf047-250e-74a8-925c-9f3044bb8251","019ceff9-9f67-7034-9722-02cda2445e09","","null","
                <div class=""stimulus-container"">
                    <img src=""images/causal_sequence/museum_causal/museum_causal_1.png"" class=""exp-image"">
                    <div class=""question-area""></div> 
                </div>","null","","","","","","","","",""
"","","","","","html-button-response","165","572522","0.0-165.0","4A54BFAC66B84BFC9588235CF8451341","019cf047-250e-74a8-925c-9f3044bb8251","019ceff9-9f67-7034-9722-02cda2445e09","","1307","
                <div class=""stimulus-container"">
                    <img src=""images/causal_sequence/museum_causal/museum_causal_1.png"" class=""exp-image"">
                    <div class=""question-area"">
                        <p style=""font-size: 20px; font-weight: bold; margin: 0;"">Is there a person in this image?</p>
                    </div>
                </div>","0","main_experiment_trial","1","museum_causal","causal_sequence","","","","",""
"","","","","","html-keyboard-response","166","577524","0.0-166.0","4A54BFAC66B84BFC9588235CF8451341","019cf047-250e-74a8-925c-9f3044bb8251","019ceff9-9f67-7034-9722-02cda2445e09","","null","
                <div class=""stimulus-container"">
                    <img src=""images/causal_sequence/museum_causal/museum_causal_2.png"" class=""exp-image"">
                    <div class=""question-area""></div> 
                </div>","null","","","","","","","","",""
"","","","","","html-button-response","167","578533","0.0-167.0","4A54BFAC66B84BFC9588235CF8451341","019cf047-250e-74a8-925c-9f3044bb8251","019ceff9-9f67-7034-9722-02cda2445e09","","1007","
                <div class=""stimulus-container"">
                    <img src=""images/causal_sequence/museum_causal/museum_causal_2.png"" class=""exp-image"">
                    <div class=""question-area"">
                        <p style=""font-size: 20px; font-weight: bold; margin: 0;"">Is there a person in this image?</p>
                    </div>
                </div>","0","main_experiment_trial","2","museum_causal","causal_sequence","","","","",""
"","","","","","html-keyboard-response","168","583534","0.0-168.0","4A54BFAC66B84BFC9588235CF8451341","019cf047-250e-74a8-925c-9f3044bb8251","019ceff9-9f67-7034-9722-02cda2445e09","","null","
                <div class=""stimulus-container"">
                    <img src=""images/causal_sequence/museum_causal/museum_causal_3.png"" class=""exp-image"">
                    <div class=""question-area""></div> 
                </div>","null","","","","","","","","",""
"","","","","","html-button-response","169","584402","0.0-169.0","4A54BFAC66B84BFC9588235CF8451341","019cf047-250e-74a8-925c-9f3044bb8251","019ceff9-9f67-7034-9722-02cda2445e09","","867","
                <div class=""stimulus-container"">
                    <img src=""images/causal_sequence/museum_causal/museum_causal_3.png"" class=""exp-image"">
                    <div class=""question-area"">
                        <p style=""font-size: 20px; font-weight: bold; margin: 0;"">Is there a person in this image?</p>
                    </div>
                </div>","0","main_experiment_trial","3","museum_causal","causal_sequence","","","","",""
"","","","","","html-keyboard-response","170","589404","0.0-170.0","4A54BFAC66B84BFC9588235CF8451341","019cf047-250e-74a8-925c-9f3044bb8251","019ceff9-9f67-7034-9722-02cda2445e09","","null","
                <div class=""stimulus-container"">
                    <img src=""images/causal_sequence/museum_causal/museum_causal_4.png"" class=""exp-image"">
                    <div class=""question-area""></div> 
                </div>","null","","","","","","","","",""
"","","","","","html-button-response","171","590827","0.0-171.0","4A54BFAC66B84BFC9588235CF8451341","019cf047-250e-74a8-925c-9f3044bb8251","019ceff9-9f67-7034-9722-02cda2445e09","","1422","
                <div class=""stimulus-container"">
                    <img src=""images/causal_sequence/museum_causal/museum_causal_4.png"" class=""exp-image"">
                    <div class=""question-area"">
                        <p style=""font-size: 20px; font-weight: bold; margin: 0;"">Is there a person in this image?</p>
                    </div>
                </div>","1","main_experiment_trial","4","museum_causal","causal_sequence","","","","",""
"","","","","","html-keyboard-response","172","595827","0.0-172.0","4A54BFAC66B84BFC9588235CF8451341","019cf047-250e-74a8-925c-9f3044bb8251","019ceff9-9f67-7034-9722-02cda2445e09","","null","
                <div class=""stimulus-container"">
                    <img src=""images/causal_sequence/museum_causal/museum_causal_5.png"" class=""exp-image"">
                    <div class=""question-area""></div> 
                </div>","null","","","","","","","","",""
"","","","","","html-button-response","173","597079","0.0-173.0","4A54BFAC66B84BFC9588235CF8451341","019cf047-250e-74a8-925c-9f3044bb8251","019ceff9-9f67-7034-9722-02cda2445e09","","1252","
                <div class=""stimulus-container"">
                    <img src=""images/causal_sequence/museum_causal/museum_causal_5.png"" class=""exp-image"">
                    <div class=""question-area"">
                        <p style=""font-size: 20px; font-weight: bold; margin: 0;"">Is there a person in this image?</p>
                    </div>
                </div>","0","main_experiment_trial","5","museum_causal","causal_sequence","","","","",""
"","","","","","html-keyboard-response","174","602080","0.0-174.0","4A54BFAC66B84BFC9588235CF8451341","019cf047-250e-74a8-925c-9f3044bb8251","019ceff9-9f67-7034-9722-02cda2445e09","","null","
                <div class=""stimulus-container"">
                    <img src=""images/causal_sequence/museum_causal/museum_causal_6.png"" class=""exp-image"">
                    <div class=""question-area""></div> 
                </div>","null","","","","","","","","",""
"","","","","","html-button-response","175","603573","0.0-175.0","4A54BFAC66B84BFC9588235CF8451341","019cf047-250e-74a8-925c-9f3044bb8251","019ceff9-9f67-7034-9722-02cda2445e09","","1492","
                <div class=""stimulus-container"">
                    <img src=""images/causal_sequence/museum_causal/museum_causal_6.png"" class=""exp-image"">
                    <div class=""question-area"">
                        <p style=""font-size: 20px; font-weight: bold; margin: 0;"">Is there a person in this image?</p>
                    </div>
                </div>","0","main_experiment_trial","6","museum_causal","causal_sequence","","","","",""
"","","","","","html-keyboard-response","176","608574","0.0-176.0","4A54BFAC66B84BFC9588235CF8451341","019cf047-250e-74a8-925c-9f3044bb8251","019ceff9-9f67-7034-9722-02cda2445e09","","null","
                <div class=""stimulus-container"">
                    <img src=""images/causal_sequence/museum_causal/museum_causal_7.png"" class=""exp-image"">
                    <div class=""question-area""></div> 
                </div>","null","","","","","","","","",""
"","","","","","html-button-response","177","609883","0.0-177.0","4A54BFAC66B84BFC9588235CF8451341","019cf047-250e-74a8-925c-9f3044bb8251","019ceff9-9f67-7034-9722-02cda2445e09","","1308","
                <div class=""stimulus-container"">
                    <img src=""images/causal_sequence/museum_causal/museum_causal_7.png"" class=""exp-image"">
                    <div class=""question-area"">
                        <p style=""font-size: 20px; font-weight: bold; margin: 0;"">Is there a person in this image?</p>
                    </div>
                </div>","1","main_experiment_trial","7","museum_causal","causal_sequence","","","","",""
"","","","","","html-keyboard-response","178","614884","0.0-178.0","4A54BFAC66B84BFC9588235CF8451341","019cf047-250e-74a8-925c-9f3044bb8251","019ceff9-9f67-7034-9722-02cda2445e09","","null","
                <div class=""stimulus-container"">
                    <img src=""images/causal_sequence/museum_causal/museum_causal_8.png"" class=""exp-image"">
                    <div class=""question-area""></div> 
                </div>","null","","","","","","","","",""
"","","","","","html-button-response","179","616271","0.0-179.0","4A54BFAC66B84BFC9588235CF8451341","019cf047-250e-74a8-925c-9f3044bb8251","019ceff9-9f67-7034-9722-02cda2445e09","","1386","
                <div class=""stimulus-container"">
                    <img src=""images/causal_sequence/museum_causal/museum_causal_8.png"" class=""exp-image"">
                    <div class=""question-area"">
                        <p style=""font-size: 20px; font-weight: bold; margin: 0;"">Is there a person in this image?</p>
                    </div>
                </div>","0","main_experiment_trial","8","museum_causal","causal_sequence","","","","",""
"","","","","","html-keyboard-response","180","621273","0.0-180.0","4A54BFAC66B84BFC9588235CF8451341","019cf047-250e-74a8-925c-9f3044bb8251","019ceff9-9f67-7034-9722-02cda2445e09","","null","
                <div class=""stimulus-container"">
                    <img src=""images/causal_sequence/museum_causal/museum_causal_9.png"" class=""exp-image"">
                    <div class=""question-area""></div> 
                </div>","null","","","","","","","","",""
"","","","","","html-button-response","181","622672","0.0-181.0","4A54BFAC66B84BFC9588235CF8451341","019cf047-250e-74a8-925c-9f3044bb8251","019ceff9-9f67-7034-9722-02cda2445e09","","1399","
                <div class=""stimulus-container"">
                    <img src=""images/causal_sequence/museum_causal/museum_causal_9.png"" class=""exp-image"">
                    <div class=""question-area"">
                        <p style=""font-size: 20px; font-weight: bold; margin: 0;"">Is there a person in this image?</p>
                    </div>
                </div>","1","main_experiment_trial","9","museum_causal","causal_sequence","","","","",""
"","","","","","html-keyboard-response","182","627674","0.0-182.0","4A54BFAC66B84BFC9588235CF8451341","019cf047-250e-74a8-925c-9f3044bb8251","019ceff9-9f67-7034-9722-02cda2445e09","","null","
                <div class=""stimulus-container"">
                    <img src=""images/causal_sequence/museum_causal/museum_causal_ten.png"" class=""exp-image"">
                    <div class=""question-area""></div> 
                </div>","null","","","","","","","","",""
"","","","","","html-button-response","183","628967","0.0-183.0","4A54BFAC66B84BFC9588235CF8451341","019cf047-250e-74a8-925c-9f3044bb8251","019ceff9-9f67-7034-9722-02cda2445e09","","1293","
                <div class=""stimulus-container"">
                    <img src=""images/causal_sequence/museum_causal/museum_causal_ten.png"" class=""exp-image"">
                    <div class=""question-area"">
                        <p style=""font-size: 20px; font-weight: bold; margin: 0;"">Is there a person in this image?</p>
                    </div>
