"success","timeout","failed_images","failed_audio","failed_video","trial_type","trial_index","time_elapsed","internal_node_id","subject_id","study_id","session_id","view_history","rt","stimulus","response","task","image_index","folder","sequence_type","presentation_order","valuable_image_index","reward_type","distance_from_x","target_X","chosen_image_index","is_x_plus_dist","correct_choice"
"true","false","[]","[]","[]","preload","0","3157","0.0-0.0","EE23E3EFA83942B4987ED210A43E7944","019dac5c-3423-7f95-b004-fda66cbf0847","019dac5b-243f-7307-af64-a10f53f1ef70","","","","","","","","","","","","","","","",""
"","","","","","instructions","1","9007","0.0-1.0","EE23E3EFA83942B4987ED210A43E7944","019dac5c-3423-7f95-b004-fda66cbf0847","019dac5b-243f-7307-af64-a10f53f1ef70","[{""page_index"":0,""viewing_time"":5850}]","5850","","","","","","","","","","","","","",""
"","","","","","instructions","2","462683","0.0-2.0","EE23E3EFA83942B4987ED210A43E7944","019dac5c-3423-7f95-b004-fda66cbf0847","019dac5b-243f-7307-af64-a10f53f1ef70","[{""page_index"":0,""viewing_time"":453675}]","453675","","","","","","","","","","","","","",""
"true","","","","","fullscreen","3","468525","0.0-3.0","EE23E3EFA83942B4987ED210A43E7944","019dac5c-3423-7f95-b004-fda66cbf0847","019dac5b-243f-7307-af64-a10f53f1ef70","","4836","","","","","","","","","","","","","",""
"","","","","","instructions","4","518345","0.0-4.0","EE23E3EFA83942B4987ED210A43E7944","019dac5c-3423-7f95-b004-fda66cbf0847","019dac5b-243f-7307-af64-a10f53f1ef70","[{""page_index"":0,""viewing_time"":49819}]","49819","","","","","","","","","","","","","",""
"","","","","","instructions","5","533650","0.0-5.0","EE23E3EFA83942B4987ED210A43E7944","019dac5c-3423-7f95-b004-fda66cbf0847","019dac5b-243f-7307-af64-a10f53f1ef70","[{""page_index"":0,""viewing_time"":15305}]","15305","","","","","","","","","","","","","",""
"","","","","","html-keyboard-response","6","537663","0.0-6.0","EE23E3EFA83942B4987ED210A43E7944","019dac5c-3423-7f95-b004-fda66cbf0847","019dac5b-243f-7307-af64-a10f53f1ef70","","null","
                <div class=""stimulus-container"">
                    <img src=""images/instructions/movie_1.png"" class=""exp-image"">
                    <div class=""question-area""></div> 
                </div>","null","","","","","","","","","","","",""
"","","","","","html-button-response","7","539892","0.0-7.0","EE23E3EFA83942B4987ED210A43E7944","019dac5c-3423-7f95-b004-fda66cbf0847","019dac5b-243f-7307-af64-a10f53f1ef70","","2227","
                <div class=""stimulus-container"">
                    <img src=""images/instructions/movie_1.png"" class=""exp-image"">
                    <div class=""question-area"">
                        <p style=""font-size: 20px; font-weight: bold; margin: 0;"">Was there a person in this image?</p>
                    </div>
                </div>","0","example_question","1","","","","","","","","","",""
"","","","","","html-keyboard-response","8","543905","0.0-8.0","EE23E3EFA83942B4987ED210A43E7944","019dac5c-3423-7f95-b004-fda66cbf0847","019dac5b-243f-7307-af64-a10f53f1ef70","","null","
                <div class=""stimulus-container"">
                    <img src=""images/instructions/movie_2.png"" class=""exp-image"">
                    <div class=""question-area""></div> 
                </div>","null","","","","","","","","","","","",""
"","","","","","html-button-response","9","545125","0.0-9.0","EE23E3EFA83942B4987ED210A43E7944","019dac5c-3423-7f95-b004-fda66cbf0847","019dac5b-243f-7307-af64-a10f53f1ef70","","1219","
                <div class=""stimulus-container"">
                    <img src=""images/instructions/movie_2.png"" class=""exp-image"">
                    <div class=""question-area"">
                        <p style=""font-size: 20px; font-weight: bold; margin: 0;"">Was there a person in this image?</p>
                    </div>
                </div>","0","example_question","2","","","","","","","","","",""
"","","","","","html-keyboard-response","10","549138","0.0-10.0","EE23E3EFA83942B4987ED210A43E7944","019dac5c-3423-7f95-b004-fda66cbf0847","019dac5b-243f-7307-af64-a10f53f1ef70","","null","
                <div class=""stimulus-container"">
                    <img src=""images/instructions/movie_3.png"" class=""exp-image"">
                    <div class=""question-area""></div> 
                </div>","null","","","","","","","","","","","",""
"","","","","","html-button-response","11","550096","0.0-11.0","EE23E3EFA83942B4987ED210A43E7944","019dac5c-3423-7f95-b004-fda66cbf0847","019dac5b-243f-7307-af64-a10f53f1ef70","","956","
                <div class=""stimulus-container"">
                    <img src=""images/instructions/movie_3.png"" class=""exp-image"">
                    <div class=""question-area"">
                        <p style=""font-size: 20px; font-weight: bold; margin: 0;"">Was there a person in this image?</p>
                    </div>
                </div>","0","example_question","3","","","","","","","","","",""
"","","","","","html-keyboard-response","12","554110","0.0-12.0","EE23E3EFA83942B4987ED210A43E7944","019dac5c-3423-7f95-b004-fda66cbf0847","019dac5b-243f-7307-af64-a10f53f1ef70","","null","
                <div class=""stimulus-container"">
                    <img src=""images/instructions/movie_4.png"" class=""exp-image"">
                    <div class=""question-area""></div> 
                </div>","null","","","","","","","","","","","",""
"","","","","","html-button-response","13","554916","0.0-13.0","EE23E3EFA83942B4987ED210A43E7944","019dac5c-3423-7f95-b004-fda66cbf0847","019dac5b-243f-7307-af64-a10f53f1ef70","","805","
                <div class=""stimulus-container"">
                    <img src=""images/instructions/movie_4.png"" class=""exp-image"">
                    <div class=""question-area"">
                        <p style=""font-size: 20px; font-weight: bold; margin: 0;"">Was there a person in this image?</p>
                    </div>
                </div>","0","example_question","4","","","","","","","","","",""
"","","","","","instructions","14","556692","0.0-14.0","EE23E3EFA83942B4987ED210A43E7944","019dac5c-3423-7f95-b004-fda66cbf0847","019dac5b-243f-7307-af64-a10f53f1ef70","[{""page_index"":0,""viewing_time"":1776}]","1776","","","","","","","","","","","","","",""
"","","","","","instructions","15","566925","0.0-15.0","EE23E3EFA83942B4987ED210A43E7944","019dac5c-3423-7f95-b004-fda66cbf0847","019dac5b-243f-7307-af64-a10f53f1ef70","[{""page_index"":0,""viewing_time"":10232}]","10233","","","","","","","","","","","","","",""
"","","","","","html-keyboard-response","16","571929","0.0-16.0","EE23E3EFA83942B4987ED210A43E7944","019dac5c-3423-7f95-b004-fda66cbf0847","019dac5b-243f-7307-af64-a10f53f1ef70","","null","<div style=""background-color: white; width: 100vw; height: 100vh;""></div>","null","","","","","","","","","","","",""
"","","","","","html-keyboard-response","17","576939","0.0-17.0","EE23E3EFA83942B4987ED210A43E7944","019dac5c-3423-7f95-b004-fda66cbf0847","019dac5b-243f-7307-af64-a10f53f1ef70","","null","
                <div class=""stimulus-container"">
                    <img src=""images/causal_sequence/museum_causal/museum_causal_1.png"" class=""exp-image"">
                    <div class=""question-area""></div> 
                </div>","null","","","","","","","","","","","",""
"","","","","","html-button-response","18","578841","0.0-18.0","EE23E3EFA83942B4987ED210A43E7944","019dac5c-3423-7f95-b004-fda66cbf0847","019dac5b-243f-7307-af64-a10f53f1ef70","","1900","
                <div class=""stimulus-container"">
                    <img src=""images/causal_sequence/museum_causal/museum_causal_1.png"" class=""exp-image"">
                    <div class=""question-area"">
                        <p style=""font-size: 20px; font-weight: bold; margin: 0;"">Is there a person in this image?</p>
                    </div>
                </div>","0","main_experiment_trial","1","museum_causal","causal_sequence","chronological","","","","","","",""
"","","","","","html-keyboard-response","19","583846","0.0-19.0","EE23E3EFA83942B4987ED210A43E7944","019dac5c-3423-7f95-b004-fda66cbf0847","019dac5b-243f-7307-af64-a10f53f1ef70","","null","
                <div class=""stimulus-container"">
                    <img src=""images/causal_sequence/museum_causal/museum_causal_2.png"" class=""exp-image"">
                    <div class=""question-area""></div> 
                </div>","null","","","","","","","","","","","",""
"","","","","","html-button-response","20","586848","0.0-20.0","EE23E3EFA83942B4987ED210A43E7944","019dac5c-3423-7f95-b004-fda66cbf0847","019dac5b-243f-7307-af64-a10f53f1ef70","","null","
                <div class=""stimulus-container"">
                    <img src=""images/causal_sequence/museum_causal/museum_causal_2.png"" class=""exp-image"">
                    <div class=""question-area"">
                        <p style=""font-size: 20px; font-weight: bold; margin: 0;"">Is there a person in this image?</p>
                    </div>
                </div>","null","main_experiment_trial","2","museum_causal","causal_sequence","chronological","","","","","","",""
"","","","","","html-keyboard-response","21","591860","0.0-21.0","EE23E3EFA83942B4987ED210A43E7944","019dac5c-3423-7f95-b004-fda66cbf0847","019dac5b-243f-7307-af64-a10f53f1ef70","","null","
                <div class=""stimulus-container"">
                    <img src=""images/causal_sequence/museum_causal/museum_causal_3.png"" class=""exp-image"">
                    <div class=""question-area""></div> 
                </div>","null","","","","","","","","","","","",""
"","","","","","html-button-response","22","592665","0.0-22.0","EE23E3EFA83942B4987ED210A43E7944","019dac5c-3423-7f95-b004-fda66cbf0847","019dac5b-243f-7307-af64-a10f53f1ef70","","804","
                <div class=""stimulus-container"">
                    <img src=""images/causal_sequence/museum_causal/museum_causal_3.png"" class=""exp-image"">
                    <div class=""question-area"">
                        <p style=""font-size: 20px; font-weight: bold; margin: 0;"">Is there a person in this image?</p>
                    </div>
                </div>","0","main_experiment_trial","3","museum_causal","causal_sequence","chronological","","","","","","",""
"","","","","","html-keyboard-response","23","597666","0.0-23.0","EE23E3EFA83942B4987ED210A43E7944","019dac5c-3423-7f95-b004-fda66cbf0847","019dac5b-243f-7307-af64-a10f53f1ef70","","null","
                <div class=""stimulus-container"">
                    <img src=""images/causal_sequence/museum_causal/museum_causal_4.png"" class=""exp-image"">
                    <div class=""question-area""></div> 
                </div>","null","","","","","","","","","","","",""
"","","","","","html-button-response","24","598605","0.0-24.0","EE23E3EFA83942B4987ED210A43E7944","019dac5c-3423-7f95-b004-fda66cbf0847","019dac5b-243f-7307-af64-a10f53f1ef70","","937","
                <div class=""stimulus-container"">
                    <img src=""images/causal_sequence/museum_causal/museum_causal_4.png"" class=""exp-image"">
                    <div class=""question-area"">
                        <p style=""font-size: 20px; font-weight: bold; margin: 0;"">Is there a person in this image?</p>
                    </div>
                </div>","1","main_experiment_trial","4","museum_causal","causal_sequence","chronological","","","","","","",""
"","","","","","html-keyboard-response","25","603607","0.0-25.0","EE23E3EFA83942B4987ED210A43E7944","019dac5c-3423-7f95-b004-fda66cbf0847","019dac5b-243f-7307-af64-a10f53f1ef70","","null","
                <div class=""stimulus-container"">
                    <img src=""images/causal_sequence/museum_causal/museum_causal_5.png"" class=""exp-image"">
                    <div class=""question-area""></div> 
                </div>","null","","","","","","","","","","","",""
"","","","","","html-button-response","26","604650","0.0-26.0","EE23E3EFA83942B4987ED210A43E7944","019dac5c-3423-7f95-b004-fda66cbf0847","019dac5b-243f-7307-af64-a10f53f1ef70","","1042","
                <div class=""stimulus-container"">
                    <img src=""images/causal_sequence/museum_causal/museum_causal_5.png"" class=""exp-image"">
                    <div class=""question-area"">
                        <p style=""font-size: 20px; font-weight: bold; margin: 0;"">Is there a person in this image?</p>
                    </div>
                </div>","0","main_experiment_trial","5","museum_causal","causal_sequence","chronological","","","","","","",""
"","","","","","html-keyboard-response","27","609654","0.0-27.0","EE23E3EFA83942B4987ED210A43E7944","019dac5c-3423-7f95-b004-fda66cbf0847","019dac5b-243f-7307-af64-a10f53f1ef70","","null","
                <div class=""stimulus-container"">
                    <img src=""images/causal_sequence/museum_causal/museum_causal_6.png"" class=""exp-image"">
                    <div class=""question-area""></div> 
                </div>","null","","","","","","","","","","","",""
"","","","","","html-button-response","28","610494","0.0-28.0","EE23E3EFA83942B4987ED210A43E7944","019dac5c-3423-7f95-b004-fda66cbf0847","019dac5b-243f-7307-af64-a10f53f1ef70","","838","
                <div class=""stimulus-container"">
                    <img src=""images/causal_sequence/museum_causal/museum_causal_6.png"" class=""exp-image"">
                    <div class=""question-area"">
                        <p style=""font-size: 20px; font-weight: bold; margin: 0;"">Is there a person in this image?</p>
                    </div>
                </div>","0","main_experiment_trial","6","museum_causal","causal_sequence","chronological","","","","","","",""
"","","","","","html-keyboard-response","29","615510","0.0-29.0","EE23E3EFA83942B4987ED210A43E7944","019dac5c-3423-7f95-b004-fda66cbf0847","019dac5b-243f-7307-af64-a10f53f1ef70","","null","
                <div class=""stimulus-container"">
                    <img src=""images/causal_sequence/museum_causal/museum_causal_7.png"" class=""exp-image"">
                    <div class=""question-area""></div> 
                </div>","null","","","","","","","","","","","",""
"","","","","","html-button-response","30","616204","0.0-30.0","EE23E3EFA83942B4987ED210A43E7944","019dac5c-3423-7f95-b004-fda66cbf0847","019dac5b-243f-7307-af64-a10f53f1ef70","","693","
                <div class=""stimulus-container"">
                    <img src=""images/causal_sequence/museum_causal/museum_causal_7.png"" class=""exp-image"">
                    <div class=""question-area"">
                        <p style=""font-size: 20px; font-weight: bold; margin: 0;"">Is there a person in this image?</p>
                    </div>
                </div>","1","main_experiment_trial","7","museum_causal","causal_sequence","chronological","","","","","","",""
"","","","","","html-keyboard-response","31","621207","0.0-31.0","EE23E3EFA83942B4987ED210A43E7944","019dac5c-3423-7f95-b004-fda66cbf0847","019dac5b-243f-7307-af64-a10f53f1ef70","","null","
                <div class=""stimulus-container"">
                    <img src=""images/causal_sequence/museum_causal/museum_causal_8.png"" class=""exp-image"">
                    <div class=""question-area""></div> 
                </div>","null","","","","","","","","","","","",""
"","","","","","html-button-response","32","622049","0.0-32.0","EE23E3EFA83942B4987ED210A43E7944","019dac5c-3423-7f95-b004-fda66cbf0847","019dac5b-243f-7307-af64-a10f53f1ef70","","841","
                <div class=""stimulus-container"">
                    <img src=""images/causal_sequence/museum_causal/museum_causal_8.png"" class=""exp-image"">
                    <div class=""question-area"">
                        <p style=""font-size: 20px; font-weight: bold; margin: 0;"">Is there a person in this image?</p>
                    </div>
                </div>","0","main_experiment_trial","8","museum_causal","causal_sequence","chronological","","","","","","",""
"","","","","","html-keyboard-response","33","627063","0.0-33.0","EE23E3EFA83942B4987ED210A43E7944","019dac5c-3423-7f95-b004-fda66cbf0847","019dac5b-243f-7307-af64-a10f53f1ef70","","null","
                <div class=""stimulus-container"">
                    <img src=""images/causal_sequence/museum_causal/museum_causal_9.png"" class=""exp-image"">
                    <div class=""question-area""></div> 
                </div>","null","","","","","","","","","","","",""
"","","","","","html-button-response","34","628004","0.0-34.0","EE23E3EFA83942B4987ED210A43E7944","019dac5c-3423-7f95-b004-fda66cbf0847","019dac5b-243f-7307-af64-a10f53f1ef70","","940","
                <div class=""stimulus-container"">
                    <img src=""images/causal_sequence/museum_causal/museum_causal_9.png"" class=""exp-image"">
                    <div class=""question-area"">
                        <p style=""font-size: 20px; font-weight: bold; margin: 0;"">Is there a person in this image?</p>
                    </div>
                </div>","1","main_experiment_trial","9","museum_causal","causal_sequence","chronological","","","","","","",""
"","","","","","html-keyboard-response","35","633013","0.0-35.0","EE23E3EFA83942B4987ED210A43E7944","019dac5c-3423-7f95-b004-fda66cbf0847","019dac5b-243f-7307-af64-a10f53f1ef70","","null","
                <div class=""stimulus-container"">
                    <img src=""images/causal_sequence/museum_causal/museum_causal_ten.png"" class=""exp-image"">
                    <div class=""question-area""></div> 
                </div>","null","","","","","","","","","","","",""
"","","","","","html-button-response","36","634316","0.0-36.0","EE23E3EFA83942B4987ED210A43E7944","019dac5c-3423-7f95-b004-fda66cbf0847","019dac5b-243f-7307-af64-a10f53f1ef70","","1302","
                <div class=""stimulus-container"">
                    <img src=""images/causal_sequence/museum_causal/museum_causal_ten.png"" class=""exp-image"">
                    <div class=""question-area"">
                        <p style=""font-size: 20px; font-weight: bold; margin: 0;"">Is there a person in this image?</p>
                    </div>
                </div>","0","main_experiment_trial","ten","museum_causal","causal_sequence","chronological","","","","","","",""
"","","","","","html-keyboard-response","37","639320","0.0-37.0","EE23E3EFA83942B4987ED210A43E7944","019dac5c-3423-7f95-b004-fda66cbf0847","019dac5b-243f-7307-af64-a10f53f1ef70","","null","<div style=""background-color: white; width: 100vw; height: 100vh;""></div>","null","","","","","","","","","","","",""
"","","","","","html-keyboard-response","38","644321","0.0-38.0","EE23E3EFA83942B4987ED210A43E7944","019dac5c-3423-7f95-b004-fda66cbf0847","019dac5b-243f-7307-af64-a10f53f1ef70","","null","
                <div class=""stimulus-container"">
                    <img src=""images/causal_sequence/dog_causal/dog_causal_1.png"" class=""exp-image"">
                    <div class=""question-area""></div> 
                </div>","null","","","","","","","","","","","",""
"","","","","","html-button-response","39","645223","0.0-39.0","EE23E3EFA83942B4987ED210A43E7944","019dac5c-3423-7f95-b004-fda66cbf0847","019dac5b-243f-7307-af64-a10f53f1ef70","","901","
                <div class=""stimulus-container"">
                    <img src=""images/causal_sequence/dog_causal/dog_causal_1.png"" class=""exp-image"">
                    <div class=""question-area"">
                        <p style=""font-size: 20px; font-weight: bold; margin: 0;"">Is there a person in this image?</p>
                    </div>
                </div>","0","main_experiment_trial","1","dog_causal","causal_sequence","chronological","","","","","","",""
"","","","","","html-keyboard-response","40","650225","0.0-40.0","EE23E3EFA83942B4987ED210A43E7944","019dac5c-3423-7f95-b004-fda66cbf0847","019dac5b-243f-7307-af64-a10f53f1ef70","","null","
                <div class=""stimulus-container"">
                    <img src=""images/causal_sequence/dog_causal/dog_causal_2.png"" class=""exp-image"">
                    <div class=""question-area""></div> 
                </div>","null","","","","","","","","","","","",""
"","","","","","html-button-response","41","651058","0.0-41.0","EE23E3EFA83942B4987ED210A43E7944","019dac5c-3423-7f95-b004-fda66cbf0847","019dac5b-243f-7307-af64-a10f53f1ef70","","832","
                <div class=""stimulus-container"">
                    <img src=""images/causal_sequence/dog_causal/dog_causal_2.png"" class=""exp-image"">
                    <div class=""question-area"">
                        <p style=""font-size: 20px; font-weight: bold; margin: 0;"">Is there a person in this image?</p>
                    </div>
                </div>","0","main_experiment_trial","2","dog_causal","causal_sequence","chronological","","","","","","",""
"","","","","","html-keyboard-response","42","656071","0.0-42.0","EE23E3EFA83942B4987ED210A43E7944","019dac5c-3423-7f95-b004-fda66cbf0847","019dac5b-243f-7307-af64-a10f53f1ef70","","null","
                <div class=""stimulus-container"">
                    <img src=""images/causal_sequence/dog_causal/dog_causal_3.png"" class=""exp-image"">
                    <div class=""question-area""></div> 
                </div>","null","","","","","","","","","","","",""
"","","","","","html-button-response","43","656911","0.0-43.0","EE23E3EFA83942B4987ED210A43E7944","019dac5c-3423-7f95-b004-fda66cbf0847","019dac5b-243f-7307-af64-a10f53f1ef70","","839","
                <div class=""stimulus-container"">
                    <img src=""images/causal_sequence/dog_causal/dog_causal_3.png"" class=""exp-image"">
                    <div class=""question-area"">
                        <p style=""font-size: 20px; font-weight: bold; margin: 0;"">Is there a person in this image?</p>
                    </div>
                </div>","0","main_experiment_trial","3","dog_causal","causal_sequence","chronological","","","","","","",""
"","","","","","html-keyboard-response","44","661923","0.0-44.0","EE23E3EFA83942B4987ED210A43E7944","019dac5c-3423-7f95-b004-fda66cbf0847","019dac5b-243f-7307-af64-a10f53f1ef70","","null","
                <div class=""stimulus-container"">
                    <img src=""images/causal_sequence/dog_causal/dog_causal_4.png"" class=""exp-image"">
                    <div class=""question-area""></div> 
                </div>","null","","","","","","","","","","","",""
"","","","","","html-button-response","45","662956","0.0-45.0","EE23E3EFA83942B4987ED210A43E7944","019dac5c-3423-7f95-b004-fda66cbf0847","019dac5b-243f-7307-af64-a10f53f1ef70","","1032","
                <div class=""stimulus-container"">
                    <img src=""images/causal_sequence/dog_causal/dog_causal_4.png"" class=""exp-image"">
                    <div class=""question-area"">
                        <p style=""font-size: 20px; font-weight: bold; margin: 0;"">Is there a person in this image?</p>
                    </div>
                </div>","0","main_experiment_trial","4","dog_causal","causal_sequence","chronological","","","","","","",""
"","","","","","html-keyboard-response","46","667965","0.0-46.0","EE23E3EFA83942B4987ED210A43E7944","019dac5c-3423-7f95-b004-fda66cbf0847","019dac5b-243f-7307-af64-a10f53f1ef70","","null","
                <div class=""stimulus-container"">
                    <img src=""images/causal_sequence/dog_causal/dog_causal_5.png"" class=""exp-image"">
                    <div class=""question-area""></div> 
                </div>","null","","","","","","","","","","","",""
"","","","","","html-button-response","47","668755","0.0-47.0","EE23E3EFA83942B4987ED210A43E7944","019dac5c-3423-7f95-b004-fda66cbf0847","019dac5b-243f-7307-af64-a10f53f1ef70","","789","
                <div class=""stimulus-container"">
                    <img src=""images/causal_sequence/dog_causal/dog_causal_5.png"" class=""exp-image"">
                    <div class=""question-area"">
                        <p style=""font-size: 20px; font-weight: bold; margin: 0;"">Is there a person in this image?</p>
                    </div>
                </div>","0","main_experiment_trial","5","dog_causal","causal_sequence","chronological","","","","","","",""
"","","","","","html-keyboard-response","48","673771","0.0-48.0","EE23E3EFA83942B4987ED210A43E7944","019dac5c-3423-7f95-b004-fda66cbf0847","019dac5b-243f-7307-af64-a10f53f1ef70","","null","
                <div class=""stimulus-container"">
                    <img src=""images/causal_sequence/dog_causal/dog_causal_6.png"" class=""exp-image"">
                    <div class=""question-area""></div> 
                </div>","null","","","","","","","","","","","",""
"","","","","","html-button-response","49","674570","0.0-49.0","EE23E3EFA83942B4987ED210A43E7944","019dac5c-3423-7f95-b004-fda66cbf0847","019dac5b-243f-7307-af64-a10f53f1ef70","","797","
                <div class=""stimulus-container"">
                    <img src=""images/causal_sequence/dog_causal/dog_causal_6.png"" class=""exp-image"">
                    <div class=""question-area"">
                        <p style=""font-size: 20px; font-weight: bold; margin: 0;"">Is there a person in this image?</p>
                    </div>
                </div>","0","main_experiment_trial","6","dog_causal","causal_sequence","chronological","","","","","","",""
"","","","","","html-keyboard-response","50","679573","0.0-50.0","EE23E3EFA83942B4987ED210A43E7944","019dac5c-3423-7f95-b004-fda66cbf0847","019dac5b-243f-7307-af64-a10f53f1ef70","","null","
                <div class=""stimulus-container"">
                    <img src=""images/causal_sequence/dog_causal/dog_causal_7.png"" class=""exp-image"">
                    <div class=""question-area""></div> 
                </div>","null","","","","","","","","","","","",""
"","","","","","html-button-response","51","680241","0.0-51.0","EE23E3EFA83942B4987ED210A43E7944","019dac5c-3423-7f95-b004-fda66cbf0847","019dac5b-243f-7307-af64-a10f53f1ef70","","668","
                <div class=""stimulus-container"">
                    <img src=""images/causal_sequence/dog_causal/dog_causal_7.png"" class=""exp-image"">
                    <div class=""question-area"">
                        <p style=""font-size: 20px; font-weight: bold; margin: 0;"">Is there a person in this image?</p>
                    </div>
                </div>","0","main_experiment_trial","7","dog_causal","causal_sequence","chronological","","","","","","",""
"","","","","","html-keyboard-response","52","685248","0.0-52.0","EE23E3EFA83942B4987ED210A43E7944","019dac5c-3423-7f95-b004-fda66cbf0847","019dac5b-243f-7307-af64-a10f53f1ef70","","null","
                <div class=""stimulus-container"">
                    <img src=""images/causal_sequence/dog_causal/dog_causal_8.png"" class=""exp-image"">
                    <div class=""question-area""></div> 
                </div>","null","","","","","","","","","","","",""
"","","","","","html-button-response","53","686735","0.0-53.0","EE23E3EFA83942B4987ED210A43E7944","019dac5c-3423-7f95-b004-fda66cbf0847","019dac5b-243f-7307-af64-a10f53f1ef70","","1486","
                <div class=""stimulus-container"">
                    <img src=""images/causal_sequence/dog_causal/dog_causal_8.png"" class=""exp-image"">
                    <div class=""question-area"">
                        <p style=""font-size: 20px; font-weight: bold; margin: 0;"">Is there a person in this image?</p>
                    </div>
                </div>","0","main_experiment_trial","8","dog_causal","causal_sequence","chronological","","","","","","",""
"","","","","","html-keyboard-response","54","691748","0.0-54.0","EE23E3EFA83942B4987ED210A43E7944","019dac5c-3423-7f95-b004-fda66cbf0847","019dac5b-243f-7307-af64-a10f53f1ef70","","null","
                <div class=""stimulus-container"">
                    <img src=""images/causal_sequence/dog_causal/dog_causal_9.png"" class=""exp-image"">
                    <div class=""question-area""></div> 
                </div>","null","","","","","","","","","","","",""
"","","","","","html-button-response","55","692977","0.0-55.0","EE23E3EFA83942B4987ED210A43E7944","019dac5c-3423-7f95-b004-fda66cbf0847","019dac5b-243f-7307-af64-a10f53f1ef70","","1228","
                <div class=""stimulus-container"">
                    <img src=""images/causal_sequence/dog_causal/dog_causal_9.png"" class=""exp-image"">
                    <div class=""question-area"">
                        <p style=""font-size: 20px; font-weight: bold; margin: 0;"">Is there a person in this image?</p>
                    </div>
                </div>","0","main_experiment_trial","9","dog_causal","causal_sequence","chronological","","","","","","",""
"","","","","","html-keyboard-response","56","697979","0.0-56.0","EE23E3EFA83942B4987ED210A43E7944","019dac5c-3423-7f95-b004-fda66cbf0847","019dac5b-243f-7307-af64-a10f53f1ef70","","null","
                <div class=""stimulus-container"">
                    <img src=""images/causal_sequence/dog_causal/dog_causal_ten.png"" class=""exp-image"">
                    <div class=""question-area""></div> 
                </div>","null","","","","","","","","","","","",""
"","","","","","html-button-response","57","699191","0.0-57.0","EE23E3EFA83942B4987ED210A43E7944","019dac5c-3423-7f95-b004-fda66cbf0847","019dac5b-243f-7307-af64-a10f53f1ef70","","1211","
                <div class=""stimulus-container"">
                    <img src=""images/causal_sequence/dog_causal/dog_causal_ten.png"" class=""exp-image"">
                    <div class=""question-area"">
                        <p style=""font-size: 20px; font-weight: bold; margin: 0;"">Is there a person in this image?</p>
                    </div>
                </div>","0","main_experiment_trial","ten","dog_causal","causal_sequence","chronological","","","","","","",""
"","","","","","html-keyboard-response","58","704201","0.0-58.0","EE23E3EFA83942B4987ED210A43E7944","019dac5c-3423-7f95-b004-fda66cbf0847","019dac5b-243f-7307-af64-a10f53f1ef70","","null","<div style=""background-color: white; width: 100vw; height: 100vh;""></div>","null","","","","","","","","","","","",""
"","","","","","html-keyboard-response","59","709215","0.0-59.0","EE23E3EFA83942B4987ED210A43E7944","019dac5c-3423-7f95-b004-fda66cbf0847","019dac5b-243f-7307-af64-a10f53f1ef70","","null","
                <div class=""stimulus-container"">
                    <img src=""images/semantic_sequence/physical_activity_semantic/physical_activity_semantic_1.png"" class=""exp-image"">
                    <div class=""question-area""></div> 
                </div>","null","","","","","","","","","","","",""
"","","","","","html-button-response","60","709993","0.0-60.0","EE23E3EFA83942B4987ED210A43E7944","019dac5c-3423-7f95-b004-fda66cbf0847","019dac5b-243f-7307-af64-a10f53f1ef70","","777","
                <div class=""stimulus-container"">
                    <img src=""images/semantic_sequence/physical_activity_semantic/physical_activity_semantic_1.png"" class=""exp-image"">
                    <div class=""question-area"">
                        <p style=""font-size: 20px; font-weight: bold; margin: 0;"">Is there a person in this image?</p>
                    </div>
                </div>","0","main_experiment_trial","1","physical_activity_semantic","semantic_sequence","chronological","","","","","","",""
"","","","","","html-keyboard-response","61","715009","0.0-61.0","EE23E3EFA83942B4987ED210A43E7944","019dac5c-3423-7f95-b004-fda66cbf0847","019dac5b-243f-7307-af64-a10f53f1ef70","","null","
                <div class=""stimulus-container"">
                    <img src=""images/semantic_sequence/physical_activity_semantic/physical_activity_semantic_2.png"" class=""exp-image"">
                    <div class=""question-area""></div> 
                </div>","null","","","","","","","","","","","",""
"","","","","","html-button-response","62","715790","0.0-62.0","EE23E3EFA83942B4987ED210A43E7944","019dac5c-3423-7f95-b004-fda66cbf0847","019dac5b-243f-7307-af64-a10f53f1ef70","","780","
                <div class=""stimulus-container"">
                    <img src=""images/semantic_sequence/physical_activity_semantic/physical_activity_semantic_2.png"" class=""exp-image"">
                    <div class=""question-area"">
                        <p style=""font-size: 20px; font-weight: bold; margin: 0;"">Is there a person in this image?</p>
                    </div>
                </div>","0","main_experiment_trial","2","physical_activity_semantic","semantic_sequence","chronological","","","","","","",""
"","","","","","html-keyboard-response","63","720793","0.0-63.0","EE23E3EFA83942B4987ED210A43E7944","019dac5c-3423-7f95-b004-fda66cbf0847","019dac5b-243f-7307-af64-a10f53f1ef70","","null","
                <div class=""stimulus-container"">
                    <img src=""images/semantic_sequence/physical_activity_semantic/physical_activity_semantic_3.png"" class=""exp-image"">
                    <div class=""question-area""></div> 
                </div>","null","","","","","","","","","","","",""
"","","","","","html-button-response","64","721675","0.0-64.0","EE23E3EFA83942B4987ED210A43E7944","019dac5c-3423-7f95-b004-fda66cbf0847","019dac5b-243f-7307-af64-a10f53f1ef70","","881","
                <div class=""stimulus-container"">
                    <img src=""images/semantic_sequence/physical_activity_semantic/physical_activity_semantic_3.png"" class=""exp-image"">
                    <div class=""question-area"">
                        <p style=""font-size: 20px; font-weight: bold; margin: 0;"">Is there a person in this image?</p>
                    </div>
                </div>","0","main_experiment_trial","3","physical_activity_semantic","semantic_sequence","chronological","","","","","","",""
"","","","","","html-keyboard-response","65","726687","0.0-65.0","EE23E3EFA83942B4987ED210A43E7944","019dac5c-3423-7f95-b004-fda66cbf0847","019dac5b-243f-7307-af64-a10f53f1ef70","","null","
                <div class=""stimulus-container"">
                    <img src=""images/semantic_sequence/physical_activity_semantic/physical_activity_semantic_4.png"" class=""exp-image"">
                    <div class=""question-area""></div> 
                </div>","null","","","","","","","","","","","",""
"","","","","","html-button-response","66","728974","0.0-66.0","EE23E3EFA83942B4987ED210A43E7944","019dac5c-3423-7f95-b004-fda66cbf0847","019dac5b-243f-7307-af64-a10f53f1ef70","","2285","
                <div class=""stimulus-container"">
                    <img src=""images/semantic_sequence/physical_activity_semantic/physical_activity_semantic_4.png"" class=""exp-image"">
                    <div class=""question-area"">
                        <p style=""font-size: 20px; font-weight: bold; margin: 0;"">Is there a person in this image?</p>
                    </div>
                </div>","0","main_experiment_trial","4","physical_activity_semantic","semantic_sequence","chronological","","","","","","",""
"","","","","","html-keyboard-response","67","733976","0.0-67.0","EE23E3EFA83942B4987ED210A43E7944","019dac5c-3423-7f95-b004-fda66cbf0847","019dac5b-243f-7307-af64-a10f53f1ef70","","null","
                <div class=""stimulus-container"">
                    <img src=""images/semantic_sequence/physical_activity_semantic/physical_activity_semantic_5.png"" class=""exp-image"">
                    <div class=""question-area""></div> 
                </div>","null","","","","","","","","","","","",""
"","","","","","html-button-response","68","736470","0.0-68.0","EE23E3EFA83942B4987ED210A43E7944","019dac5c-3423-7f95-b004-fda66cbf0847","019dac5b-243f-7307-af64-a10f53f1ef70","","2493","
                <div class=""stimulus-container"">
                    <img src=""images/semantic_sequence/physical_activity_semantic/physical_activity_semantic_5.png"" class=""exp-image"">
                    <div class=""question-area"">
                        <p style=""font-size: 20px; font-weight: bold; margin: 0;"">Is there a person in this image?</p>
                    </div>
                </div>","0","main_experiment_trial","5","physical_activity_semantic","semantic_sequence","chronological","","","","","","",""
"","","","","","html-keyboard-response","69","741478","0.0-69.0","EE23E3EFA83942B4987ED210A43E7944","019dac5c-3423-7f95-b004-fda66cbf0847","019dac5b-243f-7307-af64-a10f53f1ef70","","null","
                <div class=""stimulus-container"">
                    <img src=""images/semantic_sequence/physical_activity_semantic/physical_activity_semantic_6.png"" class=""exp-image"">
                    <div class=""question-area""></div> 
                </div>","null","","","","","","","","","","","",""
"","","","","","html-button-response","70","742734","0.0-70.0","EE23E3EFA83942B4987ED210A43E7944","019dac5c-3423-7f95-b004-fda66cbf0847","019dac5b-243f-7307-af64-a10f53f1ef70","","1255","
                <div class=""stimulus-container"">
                    <img src=""images/semantic_sequence/physical_activity_semantic/physical_activity_semantic_6.png"" class=""exp-image"">
                    <div class=""question-area"">
                        <p style=""font-size: 20px; font-weight: bold; margin: 0;"">Is there a person in this image?</p>
                    </div>
                </div>","0","main_experiment_trial","6","physical_activity_semantic","semantic_sequence","chronological","","","","","","",""
"","","","","","html-keyboard-response","71","747750","0.0-71.0","EE23E3EFA83942B4987ED210A43E7944","019dac5c-3423-7f95-b004-fda66cbf0847","019dac5b-243f-7307-af64-a10f53f1ef70","","null","
                <div class=""stimulus-container"">
                    <img src=""images/semantic_sequence/physical_activity_semantic/physical_activity_semantic_7.png"" class=""exp-image"">
                    <div class=""question-area""></div> 
                </div>","null","","","","","","","","","","","",""
"","","","","","html-button-response","72","748709","0.0-72.0","EE23E3EFA83942B4987ED210A43E7944","019dac5c-3423-7f95-b004-fda66cbf0847","019dac5b-243f-7307-af64-a10f53f1ef70","","958","
                <div class=""stimulus-container"">
                    <img src=""images/semantic_sequence/physical_activity_semantic/physical_activity_semantic_7.png"" class=""exp-image"">
                    <div class=""question-area"">
                        <p style=""font-size: 20px; font-weight: bold; margin: 0;"">Is there a person in this image?</p>
                    </div>
                </div>","0","main_experiment_trial","7","physical_activity_semantic","semantic_sequence","chronological","","","","","","",""
"","","","","","html-keyboard-response","73","753721","0.0-73.0","EE23E3EFA83942B4987ED210A43E7944","019dac5c-3423-7f95-b004-fda66cbf0847","019dac5b-243f-7307-af64-a10f53f1ef70","","null","
                <div class=""stimulus-container"">
                    <img src=""images/semantic_sequence/physical_activity_semantic/physical_activity_semantic_8.png"" class=""exp-image"">
                    <div class=""question-area""></div> 
                </div>","null","","","","","","","","","","","",""
"","","","","","html-button-response","74","754981","0.0-74.0","EE23E3EFA83942B4987ED210A43E7944","019dac5c-3423-7f95-b004-fda66cbf0847","019dac5b-243f-7307-af64-a10f53f1ef70","","1259","
                <div class=""stimulus-container"">
                    <img src=""images/semantic_sequence/physical_activity_semantic/physical_activity_semantic_8.png"" class=""exp-image"">
                    <div class=""question-area"">
                        <p style=""font-size: 20px; font-weight: bold; margin: 0;"">Is there a person in this image?</p>
                    </div>
                </div>","0","main_experiment_trial","8","physical_activity_semantic","semantic_sequence","chronological","","","","","","",""
"","","","","","html-keyboard-response","75","759987","0.0-75.0","EE23E3EFA83942B4987ED210A43E7944","019dac5c-3423-7f95-b004-fda66cbf0847","019dac5b-243f-7307-af64-a10f53f1ef70","","null","
                <div class=""stimulus-container"">
                    <img src=""images/semantic_sequence/physical_activity_semantic/physical_activity_semantic_9.png"" class=""exp-image"">
                    <div class=""question-area""></div> 
                </div>","null","","","","","","","","","","","",""
"","","","","","html-button-response","76","761411","0.0-76.0","EE23E3EFA83942B4987ED210A43E7944","019dac5c-3423-7f95-b004-fda66cbf0847","019dac5b-243f-7307-af64-a10f53f1ef70","","1424","
                <div class=""stimulus-container"">
                    <img src=""images/semantic_sequence/physical_activity_semantic/physical_activity_semantic_9.png"" class=""exp-image"">
                    <div class=""question-area"">
                        <p style=""font-size: 20px; font-weight: bold; margin: 0;"">Is there a person in this image?</p>
                    </div>
                </div>","0","main_experiment_trial","9","physical_activity_semantic","semantic_sequence","chronological","","","","","","",""
"","","","","","html-keyboard-response","77","766417","0.0-77.0","EE23E3EFA83942B4987ED210A43E7944","019dac5c-3423-7f95-b004-fda66cbf0847","019dac5b-243f-7307-af64-a10f53f1ef70","","null","
                <div class=""stimulus-container"">
                    <img src=""images/semantic_sequence/physical_activity_semantic/physical_activity_semantic_ten.png"" class=""exp-image"">
                    <div class=""question-area""></div> 
                </div>","null","","","","","","","","","","","",""
"","","","","","html-button-response","78","767391","0.0-78.0","EE23E3EFA83942B4987ED210A43E7944","019dac5c-3423-7f95-b004-fda66cbf0847","019dac5b-243f-7307-af64-a10f53f1ef70","","973","
                <div class=""stimulus-container"">
                    <img src=""images/semantic_sequence/physical_activity_semantic/physical_activity_semantic_ten.png"" class=""exp-image"">
                    <div class=""question-area"">
                        <p style=""font-size: 20px; font-weight: bold; margin: 0;"">Is there a person in this image?</p>
                    </div>
                </div>","0","main_experiment_trial","ten","physical_activity_semantic","semantic_sequence","chronological","","","","","","",""
"","","","","","html-keyboard-response","79","772395","0.0-79.0","EE23E3EFA83942B4987ED210A43E7944","019dac5c-3423-7f95-b004-fda66cbf0847","019dac5b-243f-7307-af64-a10f53f1ef70","","null","<div style=""background-color: white; width: 100vw; height: 100vh;""></div>","null","","","","","","","","","","","",""
"","","","","","html-keyboard-response","80","777409","0.0-80.0","EE23E3EFA83942B4987ED210A43E7944","019dac5c-3423-7f95-b004-fda66cbf0847","019dac5b-243f-7307-af64-a10f53f1ef70","","null","
                <div class=""stimulus-container"">
                    <img src=""images/semantic_sequence/maintaining_a_car_semantic/maintaining_a_car_semantic_1.png"" class=""exp-image"">
                    <div class=""question-area""></div> 
                </div>","null","","","","","","","","","","","",""
"","","","","","html-button-response","81","778148","0.0-81.0","EE23E3EFA83942B4987ED210A43E7944","019dac5c-3423-7f95-b004-fda66cbf0847","019dac5b-243f-7307-af64-a10f53f1ef70","","738","
                <div class=""stimulus-container"">
                    <img src=""images/semantic_sequence/maintaining_a_car_semantic/maintaining_a_car_semantic_1.png"" class=""exp-image"">
                    <div class=""question-area"">
                        <p style=""font-size: 20px; font-weight: bold; margin: 0;"">Is there a person in this image?</p>
                    </div>
                </div>","0","main_experiment_trial","1","maintaining_a_car_semantic","semantic_sequence","chronological","","","","","","",""
"","","","","","html-keyboard-response","82","783162","0.0-82.0","EE23E3EFA83942B4987ED210A43E7944","019dac5c-3423-7f95-b004-fda66cbf0847","019dac5b-243f-7307-af64-a10f53f1ef70","","null","
                <div class=""stimulus-container"">
                    <img src=""images/semantic_sequence/maintaining_a_car_semantic/maintaining_a_car_semantic_2.png"" class=""exp-image"">
                    <div class=""question-area""></div> 
                </div>","null","","","","","","","","","","","",""
"","","","","","html-button-response","83","783977","0.0-83.0","EE23E3EFA83942B4987ED210A43E7944","019dac5c-3423-7f95-b004-fda66cbf0847","019dac5b-243f-7307-af64-a10f53f1ef70","","814","
                <div class=""stimulus-container"">
                    <img src=""images/semantic_sequence/maintaining_a_car_semantic/maintaining_a_car_semantic_2.png"" class=""exp-image"">
                    <div class=""question-area"">
                        <p style=""font-size: 20px; font-weight: bold; margin: 0;"">Is there a person in this image?</p>
                    </div>
                </div>","0","main_experiment_trial","2","maintaining_a_car_semantic","semantic_sequence","chronological","","","","","","",""
"","","","","","html-keyboard-response","84","788979","0.0-84.0","EE23E3EFA83942B4987ED210A43E7944","019dac5c-3423-7f95-b004-fda66cbf0847","019dac5b-243f-7307-af64-a10f53f1ef70","","null","
                <div class=""stimulus-container"">
                    <img src=""images/semantic_sequence/maintaining_a_car_semantic/maintaining_a_car_semantic_3.png"" class=""exp-image"">
                    <div class=""question-area""></div> 
                </div>","null","","","","","","","","","","","",""
"","","","","","html-button-response","85","790292","0.0-85.0","EE23E3EFA83942B4987ED210A43E7944","019dac5c-3423-7f95-b004-fda66cbf0847","019dac5b-243f-7307-af64-a10f53f1ef70","","1312","
                <div class=""stimulus-container"">
                    <img src=""images/semantic_sequence/maintaining_a_car_semantic/maintaining_a_car_semantic_3.png"" class=""exp-image"">
                    <div class=""question-area"">
                        <p style=""font-size: 20px; font-weight: bold; margin: 0;"">Is there a person in this image?</p>
                    </div>
                </div>","0","main_experiment_trial","3","maintaining_a_car_semantic","semantic_sequence","chronological","","","","","","",""
"","","","","","html-keyboard-response","86","795298","0.0-86.0","EE23E3EFA83942B4987ED210A43E7944","019dac5c-3423-7f95-b004-fda66cbf0847","019dac5b-243f-7307-af64-a10f53f1ef70","","null","
                <div class=""stimulus-container"">
                    <img src=""images/semantic_sequence/maintaining_a_car_semantic/maintaining_a_car_semantic_4.png"" class=""exp-image"">
                    <div class=""question-area""></div> 
                </div>","null","","","","","","","","","","","",""
"","","","","","html-button-response","87","797318","0.0-87.0","EE23E3EFA83942B4987ED210A43E7944","019dac5c-3423-7f95-b004-fda66cbf0847","019dac5b-243f-7307-af64-a10f53f1ef70","","2019","
                <div class=""stimulus-container"">
                    <img src=""images/semantic_sequence/maintaining_a_car_semantic/maintaining_a_car_semantic_4.png"" class=""exp-image"">
                    <div class=""question-area"">
                        <p style=""font-size: 20px; font-weight: bold; margin: 0;"">Is there a person in this image?</p>
                    </div>
                </div>","0","main_experiment_trial","4","maintaining_a_car_semantic","semantic_sequence","chronological","","","","","","",""
"","","","","","html-keyboard-response","88","802332","0.0-88.0","EE23E3EFA83942B4987ED210A43E7944","019dac5c-3423-7f95-b004-fda66cbf0847","019dac5b-243f-7307-af64-a10f53f1ef70","","null","
                <div class=""stimulus-container"">
                    <img src=""images/semantic_sequence/maintaining_a_car_semantic/maintaining_a_car_semantic_5.png"" class=""exp-image"">
                    <div class=""question-area""></div> 
                </div>","null","","","","","","","","","","","",""
"","","","","","html-button-response","89","803079","0.0-89.0","EE23E3EFA83942B4987ED210A43E7944","019dac5c-3423-7f95-b004-fda66cbf0847","019dac5b-243f-7307-af64-a10f53f1ef70","","746","
                <div class=""stimulus-container"">
                    <img src=""images/semantic_sequence/maintaining_a_car_semantic/maintaining_a_car_semantic_5.png"" class=""exp-image"">
                    <div class=""question-area"">
                        <p style=""font-size: 20px; font-weight: bold; margin: 0;"">Is there a person in this image?</p>
                    </div>
                </div>","0","main_experiment_trial","5","maintaining_a_car_semantic","semantic_sequence","chronological","","","","","","",""
"","","","","","html-keyboard-response","90","808087","0.0-90.0","EE23E3EFA83942B4987ED210A43E7944","019dac5c-3423-7f95-b004-fda66cbf0847","019dac5b-243f-7307-af64-a10f53f1ef70","","null","
                <div class=""stimulus-container"">
                    <img src=""images/semantic_sequence/maintaining_a_car_semantic/maintaining_a_car_semantic_6.png"" class=""exp-image"">
                    <div class=""question-area""></div> 
                </div>","null","","","","","","","","","","","",""
"","","","","","html-button-response","91","809983","0.0-91.0","EE23E3EFA83942B4987ED210A43E7944","019dac5c-3423-7f95-b004-fda66cbf0847","019dac5b-243f-7307-af64-a10f53f1ef70","","1894","
                <div class=""stimulus-container"">
                    <img src=""images/semantic_sequence/maintaining_a_car_semantic/maintaining_a_car_semantic_6.png"" class=""exp-image"">
                    <div class=""question-area"">
                        <p style=""font-size: 20px; font-weight: bold; margin: 0;"">Is there a person in this image?</p>
                    </div>
                </div>","0","main_experiment_trial","6","maintaining_a_car_semantic","semantic_sequence","chronological","","","","","","",""
"","","","","","html-keyboard-response","92","814987","0.0-92.0","EE23E3EFA83942B4987ED210A43E7944","019dac5c-3423-7f95-b004-fda66cbf0847","019dac5b-243f-7307-af64-a10f53f1ef70","","null","
                <div class=""stimulus-container"">
                    <img src=""images/semantic_sequence/maintaining_a_car_semantic/maintaining_a_car_semantic_7.png"" class=""exp-image"">
                    <div class=""question-area""></div> 
                </div>","null","","","","","","","","","","","",""
"","","","","","html-button-response","93","817789","0.0-93.0","EE23E3EFA83942B4987ED210A43E7944","019dac5c-3423-7f95-b004-fda66cbf0847","019dac5b-243f-7307-af64-a10f53f1ef70","","2800","
                <div class=""stimulus-container"">
                    <img src=""images/semantic_sequence/maintaining_a_car_semantic/maintaining_a_car_semantic_7.png"" class=""exp-image"">
                    <div class=""question-area"">
                        <p style=""font-size: 20px; font-weight: bold; margin: 0;"">Is there a person in this image?</p>
                    </div>
                </div>","0","main_experiment_trial","7","maintaining_a_car_semantic","semantic_sequence","chronological","","","","","","",""
"","","","","","html-keyboard-response","94","822801","0.0-94.0","EE23E3EFA83942B4987ED210A43E7944","019dac5c-3423-7f95-b004-fda66cbf0847","019dac5b-243f-7307-af64-a10f53f1ef70","","null","
                <div class=""stimulus-container"">
                    <img src=""images/semantic_sequence/maintaining_a_car_semantic/maintaining_a_car_semantic_8.png"" class=""exp-image"">
                    <div class=""question-area""></div> 
                </div>","null","","","","","","","","","","","",""
"","","","","","html-button-response","95","824662","0.0-95.0","EE23E3EFA83942B4987ED210A43E7944","019dac5c-3423-7f95-b004-fda66cbf0847","019dac5b-243f-7307-af64-a10f53f1ef70","","1860","
                <div class=""stimulus-container"">
                    <img src=""images/semantic_sequence/maintaining_a_car_semantic/maintaining_a_car_semantic_8.png"" class=""exp-image"">
                    <div class=""question-area"">
                        <p style=""font-size: 20px; font-weight: bold; margin: 0;"">Is there a person in this image?</p>
                    </div>
                </div>","0","main_experiment_trial","8","maintaining_a_car_semantic","semantic_sequence","chronological","","","","","","",""
"","","","","","html-keyboard-response","96","829672","0.0-96.0","EE23E3EFA83942B4987ED210A43E7944","019dac5c-3423-7f95-b004-fda66cbf0847","019dac5b-243f-7307-af64-a10f53f1ef70","","null","
                <div class=""stimulus-container"">
                    <img src=""images/semantic_sequence/maintaining_a_car_semantic/maintaining_a_car_semantic_9.png"" class=""exp-image"">
                    <div class=""question-area""></div> 
                </div>","null","","","","","","","","","","","",""
"","","","","","html-button-response","97","832600","0.0-97.0","EE23E3EFA83942B4987ED210A43E7944","019dac5c-3423-7f95-b004-fda66cbf0847","019dac5b-243f-7307-af64-a10f53f1ef70","","2927","
                <div class=""stimulus-container"">
                    <img src=""images/semantic_sequence/maintaining_a_car_semantic/maintaining_a_car_semantic_9.png"" class=""exp-image"">
                    <div class=""question-area"">
                        <p style=""font-size: 20px; font-weight: bold; margin: 0;"">Is there a person in this image?</p>
                    </div>
                </div>","0","main_experiment_trial","9","maintaining_a_car_semantic","semantic_sequence","chronological","","","","","","",""
"","","","","","html-keyboard-response","98","837606","0.0-98.0","EE23E3EFA83942B4987ED210A43E7944","019dac5c-3423-7f95-b004-fda66cbf0847","019dac5b-243f-7307-af64-a10f53f1ef70","","null","
                <div class=""stimulus-container"">
                    <img src=""images/semantic_sequence/maintaining_a_car_semantic/maintaining_a_car_semantic_ten.png"" class=""exp-image"">
                    <div class=""question-area""></div> 
                </div>","null","","","","","","","","","","","",""
"","","","","","html-button-response","99","838474","0.0-99.0","EE23E3EFA83942B4987ED210A43E7944","019dac5c-3423-7f95-b004-fda66cbf0847","019dac5b-243f-7307-af64-a10f53f1ef70","","867","
                <div class=""stimulus-container"">
                    <img src=""images/semantic_sequence/maintaining_a_car_semantic/maintaining_a_car_semantic_ten.png"" class=""exp-image"">
                    <div class=""question-area"">
                        <p style=""font-size: 20px; font-weight: bold; margin: 0;"">Is there a person in this image?</p>
                    </div>
                </div>","0","main_experiment_trial","ten","maintaining_a_car_semantic","semantic_sequence","chronological","","","","","","",""
"","","","","","html-keyboard-response","100","843484","0.0-100.0","EE23E3EFA83942B4987ED210A43E7944","019dac5c-3423-7f95-b004-fda66cbf0847","019dac5b-243f-7307-af64-a10f53f1ef70","","null","<div style=""background-color: white; width: 100vw; height: 100vh;""></div>","null","","","","","","","","","","","",""
"","","","","","html-keyboard-response","101","848486","0.0-101.0","EE23E3EFA83942B4987ED210A43E7944","019dac5c-3423-7f95-b004-fda66cbf0847","019dac5b-243f-7307-af64-a10f53f1ef70","","null","
                <div class=""stimulus-container"">
                    <img src=""images/causal_sequence/coin_causal/coin_causal_1.png"" class=""exp-image"">
                    <div class=""question-area""></div> 
                </div>","null","","","","","","","","","","","",""
"","","","","","html-button-response","102","849404","0.0-102.0","EE23E3EFA83942B4987ED210A43E7944","019dac5c-3423-7f95-b004-fda66cbf0847","019dac5b-243f-7307-af64-a10f53f1ef70","","917","
                <div class=""stimulus-container"">
                    <img src=""images/causal_sequence/coin_causal/coin_causal_1.png"" class=""exp-image"">
                    <div class=""question-area"">
                        <p style=""font-size: 20px; font-weight: bold; margin: 0;"">Is there a person in this image?</p>
                    </div>
                </div>","0","main_experiment_trial","1","coin_causal","causal_sequence","chronological","","","","","","",""
"","","","","","html-keyboard-response","103","854413","0.0-103.0","EE23E3EFA83942B4987ED210A43E7944","019dac5c-3423-7f95-b004-fda66cbf0847","019dac5b-243f-7307-af64-a10f53f1ef70","","null","
                <div class=""stimulus-container"">
                    <img src=""images/causal_sequence/coin_causal/coin_causal_2.png"" class=""exp-image"">
                    <div class=""question-area""></div> 
                </div>","null","","","","","","","","","","","",""
"","","","","","html-button-response","104","855286","0.0-104.0","EE23E3EFA83942B4987ED210A43E7944","019dac5c-3423-7f95-b004-fda66cbf0847","019dac5b-243f-7307-af64-a10f53f1ef70","","872","
                <div class=""stimulus-container"">
                    <img src=""images/causal_sequence/coin_causal/coin_causal_2.png"" class=""exp-image"">
                    <div class=""question-area"">
                        <p style=""font-size: 20px; font-weight: bold; margin: 0;"">Is there a person in this image?</p>
                    </div>
                </div>","0","main_experiment_trial","2","coin_causal","causal_sequence","chronological","","","","","","",""
"","","","","","html-keyboard-response","105","860295","0.0-105.0","EE23E3EFA83942B4987ED210A43E7944","019dac5c-3423-7f95-b004-fda66cbf0847","019dac5b-243f-7307-af64-a10f53f1ef70","","null","
                <div class=""stimulus-container"">
                    <img src=""images/causal_sequence/coin_causal/coin_causal_3.png"" class=""exp-image"">
                    <div class=""question-area""></div> 
                </div>","null","","","","","","","","","","","",""
"","","","","","html-button-response","106","861271","0.0-106.0","EE23E3EFA83942B4987ED210A43E7944","019dac5c-3423-7f95-b004-fda66cbf0847","019dac5b-243f-7307-af64-a10f53f1ef70","","974","
                <div class=""stimulus-container"">
                    <img src=""images/causal_sequence/coin_causal/coin_causal_3.png"" class=""exp-image"">
                    <div class=""question-area"">
                        <p style=""font-size: 20px; font-weight: bold; margin: 0;"">Is there a person in this image?</p>
                    </div>
                </div>","0","main_experiment_trial","3","coin_causal","causal_sequence","chronological","","","","","","",""
"","","","","","html-keyboard-response","107","866273","0.0-107.0","EE23E3EFA83942B4987ED210A43E7944","019dac5c-3423-7f95-b004-fda66cbf0847","019dac5b-243f-7307-af64-a10f53f1ef70","","null","
                <div class=""stimulus-container"">
                    <img src=""images/causal_sequence/coin_causal/coin_causal_4.png"" class=""exp-image"">
                    <div class=""question-area""></div> 
                </div>","null","","","","","","","","","","","",""
"","","","","","html-button-response","108","867032","0.0-108.0","EE23E3EFA83942B4987ED210A43E7944","019dac5c-3423-7f95-b004-fda66cbf0847","019dac5b-243f-7307-af64-a10f53f1ef70","","758","
                <div class=""stimulus-container"">
                    <img src=""images/causal_sequence/coin_causal/coin_causal_4.png"" class=""exp-image"">
                    <div class=""question-area"">
                        <p style=""font-size: 20px; font-weight: bold; margin: 0;"">Is there a person in this image?</p>
                    </div>
                </div>","0","main_experiment_trial","4","coin_causal","causal_sequence","chronological","","","","","","",""
"","","","","","html-keyboard-response","109","872045","0.0-109.0","EE23E3EFA83942B4987ED210A43E7944","019dac5c-3423-7f95-b004-fda66cbf0847","019dac5b-243f-7307-af64-a10f53f1ef70","","null","
                <div class=""stimulus-container"">
                    <img src=""images/causal_sequence/coin_causal/coin_causal_5.png"" class=""exp-image"">
                    <div class=""question-area""></div> 
                </div>","null","","","","","","","","","","","",""
"","","","","","html-button-response","110","872725","0.0-110.0","EE23E3EFA83942B4987ED210A43E7944","019dac5c-3423-7f95-b004-fda66cbf0847","019dac5b-243f-7307-af64-a10f53f1ef70","","679","
                <div class=""stimulus-container"">
                    <img src=""images/causal_sequence/coin_causal/coin_causal_5.png"" class=""exp-image"">
                    <div class=""question-area"">
                        <p style=""font-size: 20px; font-weight: bold; margin: 0;"">Is there a person in this image?</p>
                    </div>
                </div>","0","main_experiment_trial","5","coin_causal","causal_sequence","chronological","","","","","","",""
"","","","","","html-keyboard-response","111","877727","0.0-111.0","EE23E3EFA83942B4987ED210A43E7944","019dac5c-3423-7f95-b004-fda66cbf0847","019dac5b-243f-7307-af64-a10f53f1ef70","","null","
                <div class=""stimulus-container"">
                    <img src=""images/causal_sequence/coin_causal/coin_causal_6.png"" class=""exp-image"">
                    <div class=""question-area""></div> 
                </div>","null","","","","","","","","","","","",""
"","","","","","html-button-response","112","878507","0.0-112.0","EE23E3EFA83942B4987ED210A43E7944","019dac5c-3423-7f95-b004-fda66cbf0847","019dac5b-243f-7307-af64-a10f53f1ef70","","780","
                <div class=""stimulus-container"">
                    <img src=""images/causal_sequence/coin_causal/coin_causal_6.png"" class=""exp-image"">
                    <div class=""question-area"">
                        <p style=""font-size: 20px; font-weight: bold; margin: 0;"">Is there a person in this image?</p>
                    </div>
                </div>","0","main_experiment_trial","6","coin_causal","causal_sequence","chronological","","","","","","",""
"","","","","","html-keyboard-response","113","883522","0.0-113.0","EE23E3EFA83942B4987ED210A43E7944","019dac5c-3423-7f95-b004-fda66cbf0847","019dac5b-243f-7307-af64-a10f53f1ef70","","null","
                <div class=""stimulus-container"">
                    <img src=""images/causal_sequence/coin_causal/coin_causal_7.png"" class=""exp-image"">
                    <div class=""question-area""></div> 
                </div>","null","","","","","","","","","","","",""
"","","","","","html-button-response","114","884346","0.0-114.0","EE23E3EFA83942B4987ED210A43E7944","019dac5c-3423-7f95-b004-fda66cbf0847","019dac5b-243f-7307-af64-a10f53f1ef70","","823","
                <div class=""stimulus-container"">
                    <img src=""images/causal_sequence/coin_causal/coin_causal_7.png"" class=""exp-image"">
                    <div class=""question-area"">
                        <p style=""font-size: 20px; font-weight: bold; margin: 0;"">Is there a person in this image?</p>
                    </div>
                </div>","0","main_experiment_trial","7","coin_causal","causal_sequence","chronological","","","","","","",""
"","","","","","html-keyboard-response","115","889353","0.0-115.0","EE23E3EFA83942B4987ED210A43E7944","019dac5c-3423-7f95-b004-fda66cbf0847","019dac5b-243f-7307-af64-a10f53f1ef70","","null","
                <div class=""stimulus-container"">
                    <img src=""images/causal_sequence/coin_causal/coin_causal_8.png"" class=""exp-image"">
                    <div class=""question-area""></div> 
                </div>","null","","","","","","","","","","","",""
"","","","","","html-button-response","116","890266","0.0-116.0","EE23E3EFA83942B4987ED210A43E7944","019dac5c-3423-7f95-b004-fda66cbf0847","019dac5b-243f-7307-af64-a10f53f1ef70","","912","
                <div class=""stimulus-container"">
                    <img src=""images/causal_sequence/coin_causal/coin_causal_8.png"" class=""exp-image"">
                    <div class=""question-area"">
                        <p style=""font-size: 20px; font-weight: bold; margin: 0;"">Is there a person in this image?</p>
                    </div>
                </div>","0","main_experiment_trial","8","coin_causal","causal_sequence","chronological","","","","","","",""
"","","","","","html-keyboard-response","117","895272","0.0-117.0","EE23E3EFA83942B4987ED210A43E7944","019dac5c-3423-7f95-b004-fda66cbf0847","019dac5b-243f-7307-af64-a10f53f1ef70","","null","
                <div class=""stimulus-container"">
                    <img src=""images/causal_sequence/coin_causal/coin_causal_9.png"" class=""exp-image"">
                    <div class=""question-area""></div> 
                </div>","null","","","","","","","","","","","",""
"","","","","","html-button-response","118","896479","0.0-118.0","EE23E3EFA83942B4987ED210A43E7944","019dac5c-3423-7f95-b004-fda66cbf0847","019dac5b-243f-7307-af64-a10f53f1ef70","","1206","
                <div class=""stimulus-container"">
                    <img src=""images/causal_sequence/coin_causal/coin_causal_9.png"" class=""exp-image"">
                    <div class=""question-area"">
                        <p style=""font-size: 20px; font-weight: bold; margin: 0;"">Is there a person in this image?</p>
                    </div>
                </div>","0","main_experiment_trial","9","coin_causal","causal_sequence","chronological","","","","","","",""
"","","","","","html-keyboard-response","119","901482","0.0-119.0","EE23E3EFA83942B4987ED210A43E7944","019dac5c-3423-7f95-b004-fda66cbf0847","019dac5b-243f-7307-af64-a10f53f1ef70","","null","
                <div class=""stimulus-container"">
                    <img src=""images/causal_sequence/coin_causal/coin_causal_ten.png"" class=""exp-image"">
                    <div class=""question-area""></div> 
                </div>","null","","","","","","","","","","","",""
"","","","","","html-button-response","120","902571","0.0-120.0","EE23E3EFA83942B4987ED210A43E7944","019dac5c-3423-7f95-b004-fda66cbf0847","019dac5b-243f-7307-af64-a10f53f1ef70","","1088","
                <div class=""stimulus-container"">
                    <img src=""images/causal_sequence/coin_causal/coin_causal_ten.png"" class=""exp-image"">
                    <div class=""question-area"">
                        <p style=""font-size: 20px; font-weight: bold; margin: 0;"">Is there a person in this image?</p>
                    </div>
                </div>","0","main_experiment_trial","ten","coin_causal","causal_sequence","chronological","","","","","","",""
"","","","","","html-keyboard-response","121","907574","0.0-121.0","EE23E3EFA83942B4987ED210A43E7944","019dac5c-3423-7f95-b004-fda66cbf0847","019dac5b-243f-7307-af64-a10f53f1ef70","","null","<div style=""background-color: white; width: 100vw; height: 100vh;""></div>","null","","","","","","","","","","","",""
"","","","","","html-keyboard-response","122","912583","0.0-122.0","EE23E3EFA83942B4987ED210A43E7944","019dac5c-3423-7f95-b004-fda66cbf0847","019dac5b-243f-7307-af64-a10f53f1ef70","","null","
                <div class=""stimulus-container"">
                    <img src=""images/semantic_sequence/housework_semantic/housework_semantic_1.png"" class=""exp-image"">
                    <div class=""question-area""></div> 
                </div>","null","","","","","","","","","","","",""
"","","","","","html-button-response","123","914949","0.0-123.0","EE23E3EFA83942B4987ED210A43E7944","019dac5c-3423-7f95-b004-fda66cbf0847","019dac5b-243f-7307-af64-a10f53f1ef70","","2365","
                <div class=""stimulus-container"">
                    <img src=""images/semantic_sequence/housework_semantic/housework_semantic_1.png"" class=""exp-image"">
                    <div class=""question-area"">
                        <p style=""font-size: 20px; font-weight: bold; margin: 0;"">Is there a person in this image?</p>
                    </div>
                </div>","0","main_experiment_trial","1","housework_semantic","semantic_sequence","chronological","","","","","","",""
"","","","","","html-keyboard-response","124","919963","0.0-124.0","EE23E3EFA83942B4987ED210A43E7944","019dac5c-3423-7f95-b004-fda66cbf0847","019dac5b-243f-7307-af64-a10f53f1ef70","","null","
                <div class=""stimulus-container"">
                    <img src=""images/semantic_sequence/housework_semantic/housework_semantic_2.png"" class=""exp-image"">
                    <div class=""question-area""></div> 
                </div>","null","","","","","","","","","","","",""
"","","","","","html-button-response","125","920893","0.0-125.0","EE23E3EFA83942B4987ED210A43E7944","019dac5c-3423-7f95-b004-fda66cbf0847","019dac5b-243f-7307-af64-a10f53f1ef70","","929","
                <div class=""stimulus-container"">
                    <img src=""images/semantic_sequence/housework_semantic/housework_semantic_2.png"" class=""exp-image"">
                    <div class=""question-area"">
                        <p style=""font-size: 20px; font-weight: bold; margin: 0;"">Is there a person in this image?</p>
                    </div>
                </div>","0","main_experiment_trial","2","housework_semantic","semantic_sequence","chronological","","","","","","",""
"","","","","","html-keyboard-response","126","925904","0.0-126.0","EE23E3EFA83942B4987ED210A43E7944","019dac5c-3423-7f95-b004-fda66cbf0847","019dac5b-243f-7307-af64-a10f53f1ef70","","null","
                <div class=""stimulus-container"">
                    <img src=""images/semantic_sequence/housework_semantic/housework_semantic_3.png"" class=""exp-image"">
                    <div class=""question-area""></div> 
                </div>","null","","","","","","","","","","","",""
"","","","","","html-button-response","127","926841","0.0-127.0","EE23E3EFA83942B4987ED210A43E7944","019dac5c-3423-7f95-b004-fda66cbf0847","019dac5b-243f-7307-af64-a10f53f1ef70","","935","
                <div class=""stimulus-container"">
                    <img src=""images/semantic_sequence/housework_semantic/housework_semantic_3.png"" class=""exp-image"">
                    <div class=""question-area"">
                        <p style=""font-size: 20px; font-weight: bold; margin: 0;"">Is there a person in this image?</p>
                    </div>
                </div>","0","main_experiment_trial","3","housework_semantic","semantic_sequence","chronological","","","","","","",""
"","","","","","html-keyboard-response","128","931843","0.0-128.0","EE23E3EFA83942B4987ED210A43E7944","019dac5c-3423-7f95-b004-fda66cbf0847","019dac5b-243f-7307-af64-a10f53f1ef70","","null","
                <div class=""stimulus-container"">
                    <img src=""images/semantic_sequence/housework_semantic/housework_semantic_4.png"" class=""exp-image"">
                    <div class=""question-area""></div> 
                </div>","null","","","","","","","","","","","",""
"","","","","","html-button-response","129","932928","0.0-129.0","EE23E3EFA83942B4987ED210A43E7944","019dac5c-3423-7f95-b004-fda66cbf0847","019dac5b-243f-7307-af64-a10f53f1ef70","","1085","
                <div class=""stimulus-container"">
                    <img src=""images/semantic_sequence/housework_semantic/housework_semantic_4.png"" class=""exp-image"">
                    <div class=""question-area"">
                        <p style=""font-size: 20px; font-weight: bold; margin: 0;"">Is there a person in this image?</p>
                    </div>
                </div>","0","main_experiment_trial","4","housework_semantic","semantic_sequence","chronological","","","","","","",""
"","","","","","html-keyboard-response","130","937930","0.0-130.0","EE23E3EFA83942B4987ED210A43E7944","019dac5c-3423-7f95-b004-fda66cbf0847","019dac5b-243f-7307-af64-a10f53f1ef70","","null","
                <div class=""stimulus-container"">
                    <img src=""images/semantic_sequence/housework_semantic/housework_semantic_5.png"" class=""exp-image"">
                    <div class=""question-area""></div> 
                </div>","null","","","","","","","","","","","",""
"","","","","","html-button-response","131","939168","0.0-131.0","EE23E3EFA83942B4987ED210A43E7944","019dac5c-3423-7f95-b004-fda66cbf0847","019dac5b-243f-7307-af64-a10f53f1ef70","","1236","
                <div class=""stimulus-container"">
                    <img src=""images/semantic_sequence/housework_semantic/housework_semantic_5.png"" class=""exp-image"">
                    <div class=""question-area"">
                        <p style=""font-size: 20px; font-weight: bold; margin: 0;"">Is there a person in this image?</p>
                    </div>
                </div>","0","main_experiment_trial","5","housework_semantic","semantic_sequence","chronological","","","","","","",""
"","","","","","html-keyboard-response","132","944172","0.0-132.0","EE23E3EFA83942B4987ED210A43E7944","019dac5c-3423-7f95-b004-fda66cbf0847","019dac5b-243f-7307-af64-a10f53f1ef70","","null","
                <div class=""stimulus-container"">
                    <img src=""images/semantic_sequence/housework_semantic/housework_semantic_6.png"" class=""exp-image"">
                    <div class=""question-area""></div> 
                </div>","null","","","","","","","","","","","",""
"","","","","","html-button-response","133","944853","0.0-133.0","EE23E3EFA83942B4987ED210A43E7944","019dac5c-3423-7f95-b004-fda66cbf0847","019dac5b-243f-7307-af64-a10f53f1ef70","","680","
                <div class=""stimulus-container"">
                    <img src=""images/semantic_sequence/housework_semantic/housework_semantic_6.png"" class=""exp-image"">
                    <div class=""question-area"">
                        <p style=""font-size: 20px; font-weight: bold; margin: 0;"">Is there a person in this image?</p>
                    </div>
                </div>","0","main_experiment_trial","6","housework_semantic","semantic_sequence","chronological","","","","","","",""
"","","","","","html-keyboard-response","134","949854","0.0-134.0","EE23E3EFA83942B4987ED210A43E7944","019dac5c-3423-7f95-b004-fda66cbf0847","019dac5b-243f-7307-af64-a10f53f1ef70","","null","
                <div class=""stimulus-container"">
                    <img src=""images/semantic_sequence/housework_semantic/housework_semantic_7.png"" class=""exp-image"">
                    <div class=""question-area""></div> 
                </div>","null","","","","","","","","","","","",""
"","","","","","html-button-response","135","950907","0.0-135.0","EE23E3EFA83942B4987ED210A43E7944","019dac5c-3423-7f95-b004-fda66cbf0847","019dac5b-243f-7307-af64-a10f53f1ef70","","1051","
                <div class=""stimulus-container"">
                    <img src=""images/semantic_sequence/housework_semantic/housework_semantic_7.png"" class=""exp-image"">
                    <div class=""question-area"">
                        <p style=""font-size: 20px; font-weight: bold; margin: 0;"">Is there a person in this image?</p>
                    </div>
                </div>","0","main_experiment_trial","7","housework_semantic","semantic_sequence","chronological","","","","","","",""
"","","","","","html-keyboard-response","136","955908","0.0-136.0","EE23E3EFA83942B4987ED210A43E7944","019dac5c-3423-7f95-b004-fda66cbf0847","019dac5b-243f-7307-af64-a10f53f1ef70","","null","
                <div class=""stimulus-container"">
                    <img src=""images/semantic_sequence/housework_semantic/housework_semantic_8.png"" class=""exp-image"">
                    <div class=""question-area""></div> 
                </div>","null","","","","","","","","","","","",""
"","","","","","html-button-response","137","956695","0.0-137.0","EE23E3EFA83942B4987ED210A43E7944","019dac5c-3423-7f95-b004-fda66cbf0847","019dac5b-243f-7307-af64-a10f53f1ef70","","786","
                <div class=""stimulus-container"">
                    <img src=""images/semantic_sequence/housework_semantic/housework_semantic_8.png"" class=""exp-image"">
                    <div class=""question-area"">
                        <p style=""font-size: 20px; font-weight: bold; margin: 0;"">Is there a person in this image?</p>
                    </div>
                </div>","0","main_experiment_trial","8","housework_semantic","semantic_sequence","chronological","","","","","","",""
"","","","","","html-keyboard-response","138","961700","0.0-138.0","EE23E3EFA83942B4987ED210A43E7944","019dac5c-3423-7f95-b004-fda66cbf0847","019dac5b-243f-7307-af64-a10f53f1ef70","","null","
                <div class=""stimulus-container"">
                    <img src=""images/semantic_sequence/housework_semantic/housework_semantic_9.png"" class=""exp-image"">
                    <div class=""question-area""></div> 
                </div>","null","","","","","","","","","","","",""
"","","","","","html-button-response","139","962645","0.0-139.0","EE23E3EFA83942B4987ED210A43E7944","019dac5c-3423-7f95-b004-fda66cbf0847","019dac5b-243f-7307-af64-a10f53f1ef70","","944","
                <div class=""stimulus-container"">
                    <img src=""images/semantic_sequence/housework_semantic/housework_semantic_9.png"" class=""exp-image"">
                    <div class=""question-area"">
                        <p style=""font-size: 20px; font-weight: bold; margin: 0;"">Is there a person in this image?</p>
                    </div>
                </div>","0","main_experiment_trial","9","housework_semantic","semantic_sequence","chronological","","","","","","",""
"","","","","","html-keyboard-response","140","967653","0.0-140.0","EE23E3EFA83942B4987ED210A43E7944","019dac5c-3423-7f95-b004-fda66cbf0847","019dac5b-243f-7307-af64-a10f53f1ef70","","null","
                <div class=""stimulus-container"">
                    <img src=""images/semantic_sequence/housework_semantic/housework_semantic_ten.png"" class=""exp-image"">
                    <div class=""question-area""></div> 
                </div>","null","","","","","","","","","","","",""
"","","","","","html-button-response","141","969384","0.0-141.0","EE23E3EFA83942B4987ED210A43E7944","019dac5c-3423-7f95-b004-fda66cbf0847","019dac5b-243f-7307-af64-a10f53f1ef70","","1730","
                <div class=""stimulus-container"">
                    <img src=""images/semantic_sequence/housework_semantic/housework_semantic_ten.png"" class=""exp-image"">
                    <div class=""question-area"">
                        <p style=""font-size: 20px; font-weight: bold; margin: 0;"">Is there a person in this image?</p>
                    </div>
                </div>","0","main_experiment_trial","ten","housework_semantic","semantic_sequence","chronological","","","","","","",""
"","","","","","html-keyboard-response","142","974388","0.0-142.0","EE23E3EFA83942B4987ED210A43E7944","019dac5c-3423-7f95-b004-fda66cbf0847","019dac5b-243f-7307-af64-a10f53f1ef70","","null","<div style=""background-color: white; width: 100vw; height: 100vh;""></div>","null","","","","","","","","","","","",""
"","","","","","html-keyboard-response","143","979396","0.0-143.0","EE23E3EFA83942B4987ED210A43E7944","019dac5c-3423-7f95-b004-fda66cbf0847","019dac5b-243f-7307-af64-a10f53f1ef70","","null","
                <div class=""stimulus-container"">
                    <img src=""images/semantic_sequence/kitchen_operations_semantic/kitchen_operations_semantic_1.png"" class=""exp-image"">
                    <div class=""question-area""></div> 
                </div>","null","","","","","","","","","","","",""
"","","","","","html-button-response","144","980515","0.0-144.0","EE23E3EFA83942B4987ED210A43E7944","019dac5c-3423-7f95-b004-fda66cbf0847","019dac5b-243f-7307-af64-a10f53f1ef70","","1118","
                <div class=""stimulus-container"">
                    <img src=""images/semantic_sequence/kitchen_operations_semantic/kitchen_operations_semantic_1.png"" class=""exp-image"">
                    <div class=""question-area"">
                        <p style=""font-size: 20px; font-weight: bold; margin: 0;"">Is there a person in this image?</p>
                    </div>
                </div>","0","main_experiment_trial","1","kitchen_operations_semantic","semantic_sequence","chronological","","","","","","",""
"","","","","","html-keyboard-response","145","985527","0.0-145.0","EE23E3EFA83942B4987ED210A43E7944","019dac5c-3423-7f95-b004-fda66cbf0847","019dac5b-243f-7307-af64-a10f53f1ef70","","null","
                <div class=""stimulus-container"">
                    <img src=""images/semantic_sequence/kitchen_operations_semantic/kitchen_operations_semantic_2.png"" class=""exp-image"">
                    <div class=""question-area""></div> 
                </div>","null","","","","","","","","","","","",""
"","","","","","html-button-response","146","987723","0.0-146.0","EE23E3EFA83942B4987ED210A43E7944","019dac5c-3423-7f95-b004-fda66cbf0847","019dac5b-243f-7307-af64-a10f53f1ef70","","2195","
                <div class=""stimulus-container"">
                    <img src=""images/semantic_sequence/kitchen_operations_semantic/kitchen_operations_semantic_2.png"" class=""exp-image"">
                    <div class=""question-area"">
                        <p style=""font-size: 20px; font-weight: bold; margin: 0;"">Is there a person in this image?</p>
                    </div>
                </div>","0","main_experiment_trial","2","kitchen_operations_semantic","semantic_sequence","chronological","","","","","","",""
"","","","","","html-keyboard-response","147","992729","0.0-147.0","EE23E3EFA83942B4987ED210A43E7944","019dac5c-3423-7f95-b004-fda66cbf0847","019dac5b-243f-7307-af64-a10f53f1ef70","","null","
                <div class=""stimulus-container"">
                    <img src=""images/semantic_sequence/kitchen_operations_semantic/kitchen_operations_semantic_3.png"" class=""exp-image"">
                    <div class=""question-area""></div> 
                </div>","null","","","","","","","","","","","",""
"","","","","","html-button-response","148","994551","0.0-148.0","EE23E3EFA83942B4987ED210A43E7944","019dac5c-3423-7f95-b004-fda66cbf0847","019dac5b-243f-7307-af64-a10f53f1ef70","","1821","
                <div class=""stimulus-container"">
                    <img src=""images/semantic_sequence/kitchen_operations_semantic/kitchen_operations_semantic_3.png"" class=""exp-image"">
                    <div class=""question-area"">
                        <p style=""font-size: 20px; font-weight: bold; margin: 0;"">Is there a person in this image?</p>
                    </div>
                </div>","0","main_experiment_trial","3","kitchen_operations_semantic","semantic_sequence","chronological","","","","","","",""
"","","","","","html-keyboard-response","149","999560","0.0-149.0","EE23E3EFA83942B4987ED210A43E7944","019dac5c-3423-7f95-b004-fda66cbf0847","019dac5b-243f-7307-af64-a10f53f1ef70","","null","
                <div class=""stimulus-container"">
                    <img src=""images/semantic_sequence/kitchen_operations_semantic/kitchen_operations_semantic_4.png"" class=""exp-image"">
                    <div class=""question-area""></div> 
                </div>","null","","","","","","","","","","","",""
"","","","","","html-button-response","150","1000922","0.0-150.0","EE23E3EFA83942B4987ED210A43E7944","019dac5c-3423-7f95-b004-fda66cbf0847","019dac5b-243f-7307-af64-a10f53f1ef70","","1360","
                <div class=""stimulus-container"">
                    <img src=""images/semantic_sequence/kitchen_operations_semantic/kitchen_operations_semantic_4.png"" class=""exp-image"">
                    <div class=""question-area"">
                        <p style=""font-size: 20px; font-weight: bold; margin: 0;"">Is there a person in this image?</p>
                    </div>
                </div>","0","main_experiment_trial","4","kitchen_operations_semantic","semantic_sequence","chronological","","","","","","",""
"","","","","","html-keyboard-response","151","1005924","0.0-151.0","EE23E3EFA83942B4987ED210A43E7944","019dac5c-3423-7f95-b004-fda66cbf0847","019dac5b-243f-7307-af64-a10f53f1ef70","","null","
                <div class=""stimulus-container"">
                    <img src=""images/semantic_sequence/kitchen_operations_semantic/kitchen_operations_semantic_5.png"" class=""exp-image"">
                    <div class=""question-area""></div> 
                </div>","null","","","","","","","","","","","",""
"","","","","","html-button-response","152","1006928","0.0-152.0","EE23E3EFA83942B4987ED210A43E7944","019dac5c-3423-7f95-b004-fda66cbf0847","019dac5b-243f-7307-af64-a10f53f1ef70","","1002","
                <div class=""stimulus-container"">
                    <img src=""images/semantic_sequence/kitchen_operations_semantic/kitchen_operations_semantic_5.png"" class=""exp-image"">
                    <div class=""question-area"">
                        <p style=""font-size: 20px; font-weight: bold; margin: 0;"">Is there a person in this image?</p>
                    </div>
                </div>","0","main_experiment_trial","5","kitchen_operations_semantic","semantic_sequence","chronological","","","","","","",""
"","","","","","html-keyboard-response","153","1011940","0.0-153.0","EE23E3EFA83942B4987ED210A43E7944","019dac5c-3423-7f95-b004-fda66cbf0847","019dac5b-243f-7307-af64-a10f53f1ef70","","null","
                <div class=""stimulus-container"">
                    <img src=""images/semantic_sequence/kitchen_operations_semantic/kitchen_operations_semantic_6.png"" class=""exp-image"">
                    <div class=""question-area""></div> 
                </div>","null","","","","","","","","","","","",""
"","","","","","html-button-response","154","1012835","0.0-154.0","EE23E3EFA83942B4987ED210A43E7944","019dac5c-3423-7f95-b004-fda66cbf0847","019dac5b-243f-7307-af64-a10f53f1ef70","","894","
                <div class=""stimulus-container"">
                    <img src=""images/semantic_sequence/kitchen_operations_semantic/kitchen_operations_semantic_6.png"" class=""exp-image"">
                    <div class=""question-area"">
                        <p style=""font-size: 20px; font-weight: bold; margin: 0;"">Is there a person in this image?</p>
                    </div>
                </div>","0","main_experiment_trial","6","kitchen_operations_semantic","semantic_sequence","chronological","","","","","","",""
"","","","","","html-keyboard-response","155","1017836","0.0-155.0","EE23E3EFA83942B4987ED210A43E7944","019dac5c-3423-7f95-b004-fda66cbf0847","019dac5b-243f-7307-af64-a10f53f1ef70","","null","
                <div class=""stimulus-container"">
                    <img src=""images/semantic_sequence/kitchen_operations_semantic/kitchen_operations_semantic_7.png"" class=""exp-image"">
                    <div class=""question-area""></div> 
                </div>","null","","","","","","","","","","","",""
"","","","","","html-button-response","156","1019939","0.0-156.0","EE23E3EFA83942B4987ED210A43E7944","019dac5c-3423-7f95-b004-fda66cbf0847","019dac5b-243f-7307-af64-a10f53f1ef70","","2101","
                <div class=""stimulus-container"">
                    <img src=""images/semantic_sequence/kitchen_operations_semantic/kitchen_operations_semantic_7.png"" class=""exp-image"">
                    <div class=""question-area"">
                        <p style=""font-size: 20px; font-weight: bold; margin: 0;"">Is there a person in this image?</p>
                    </div>
                </div>","0","main_experiment_trial","7","kitchen_operations_semantic","semantic_sequence","chronological","","","","","","",""
"","","","","","html-keyboard-response","157","1024948","0.0-157.0","EE23E3EFA83942B4987ED210A43E7944","019dac5c-3423-7f95-b004-fda66cbf0847","019dac5b-243f-7307-af64-a10f53f1ef70","","null","
                <div class=""stimulus-container"">
                    <img src=""images/semantic_sequence/kitchen_operations_semantic/kitchen_operations_semantic_8.png"" class=""exp-image"">
                    <div class=""question-area""></div> 
                </div>","null","","","","","","","","","","","",""
"","","","","","html-button-response","158","1027953","0.0-158.0","EE23E3EFA83942B4987ED210A43E7944","019dac5c-3423-7f95-b004-fda66cbf0847","019dac5b-243f-7307-af64-a10f53f1ef70","","null","
                <div class=""stimulus-container"">
                    <img src=""images/semantic_sequence/kitchen_operations_semantic/kitchen_operations_semantic_8.png"" class=""exp-image"">
                    <div class=""question-area"">
                        <p style=""font-size: 20px; font-weight: bold; margin: 0;"">Is there a person in this image?</p>
                    </div>
                </div>","null","main_experiment_trial","8","kitchen_operations_semantic","semantic_sequence","chronological","","","","","","",""
"","","","","","html-keyboard-response","159","1032966","0.0-159.0","EE23E3EFA83942B4987ED210A43E7944","019dac5c-3423-7f95-b004-fda66cbf0847","019dac5b-243f-7307-af64-a10f53f1ef70","","null","
                <div class=""stimulus-container"">
                    <img src=""images/semantic_sequence/kitchen_operations_semantic/kitchen_operations_semantic_9.png"" class=""exp-image"">
                    <div class=""question-area""></div> 
                </div>","null","","","","","","","","","","","",""
"","","","","","html-button-response","160","1034017","0.0-160.0","EE23E3EFA83942B4987ED210A43E7944","019dac5c-3423-7f95-b004-fda66cbf0847","019dac5b-243f-7307-af64-a10f53f1ef70","","1050","
                <div class=""stimulus-container"">
                    <img src=""images/semantic_sequence/kitchen_operations_semantic/kitchen_operations_semantic_9.png"" class=""exp-image"">
                    <div class=""question-area"">
                        <p style=""font-size: 20px; font-weight: bold; margin: 0;"">Is there a person in this image?</p>
                    </div>
                </div>","0","main_experiment_trial","9","kitchen_operations_semantic","semantic_sequence","chronological","","","","","","",""
"","","","","","html-keyboard-response","161","1039018","0.0-161.0","EE23E3EFA83942B4987ED210A43E7944","019dac5c-3423-7f95-b004-fda66cbf0847","019dac5b-243f-7307-af64-a10f53f1ef70","","null","
                <div class=""stimulus-container"">
                    <img src=""images/semantic_sequence/kitchen_operations_semantic/kitchen_operations_semantic_ten.png"" class=""exp-image"">
                    <div class=""question-area""></div> 
                </div>","null","","","","","","","","","","","",""
"","","","","","html-button-response","162","1040326","0.0-162.0","EE23E3EFA83942B4987ED210A43E7944","019dac5c-3423-7f95-b004-fda66cbf0847","019dac5b-243f-7307-af64-a10f53f1ef70","","1307","
                <div class=""stimulus-container"">
                    <img src=""images/semantic_sequence/kitchen_operations_semantic/kitchen_operations_semantic_ten.png"" class=""exp-image"">
                    <div class=""question-area"">
                        <p style=""font-size: 20px; font-weight: bold; margin: 0;"">Is there a person in this image?</p>
                    </div>
                </div>","0","main_experiment_trial","ten","kitchen_operations_semantic","semantic_sequence","chronological","","","","","","",""
"","","","","","html-keyboard-response","163","1045337","0.0-163.0","EE23E3EFA83942B4987ED210A43E7944","019dac5c-3423-7f95-b004-fda66cbf0847","019dac5b-243f-7307-af64-a10f53f1ef70","","null","<div style=""background-color: white; width: 100vw; height: 100vh;""></div>","null","","","","","","","","","","","",""
"","","","","","html-keyboard-response","164","1050348","0.0-164.0","EE23E3EFA83942B4987ED210A43E7944","019dac5c-3423-7f95-b004-fda66cbf0847","019dac5b-243f-7307-af64-a10f53f1ef70","","null","
                <div class=""stimulus-container"">
                    <img src=""images/semantic_sequence/self_care_activities_semantic/self_care_activities_semantic_1.png"" class=""exp-image"">
                    <div class=""question-area""></div> 
                </div>","null","","","","","","","","","","","",""
"","","","","","html-button-response","165","1051809","0.0-165.0","EE23E3EFA83942B4987ED210A43E7944","019dac5c-3423-7f95-b004-fda66cbf0847","019dac5b-243f-7307-af64-a10f53f1ef70","","1460","
                <div class=""stimulus-container"">
                    <img src=""images/semantic_sequence/self_care_activities_semantic/self_care_activities_semantic_1.png"" class=""exp-image"">
                    <div class=""question-area"">
                        <p style=""font-size: 20px; font-weight: bold; margin: 0;"">Is there a person in this image?</p>
                    </div>
                </div>","0","main_experiment_trial","1","self_care_activities_semantic","semantic_sequence","chronological","","","","","","",""
"","","","","","html-keyboard-response","166","1056825","0.0-166.0","EE23E3EFA83942B4987ED210A43E7944","019dac5c-3423-7f95-b004-fda66cbf0847","019dac5b-243f-7307-af64-a10f53f1ef70","","null","
                <div class=""stimulus-container"">
                    <img src=""images/semantic_sequence/self_care_activities_semantic/self_care_activities_semantic_2.png"" class=""exp-image"">
                    <div class=""question-area""></div> 
                </div>","null","","","","","","","","","","","",""
"","","","","","html-button-response","167","1057428","0.0-167.0","EE23E3EFA83942B4987ED210A43E7944","019dac5c-3423-7f95-b004-fda66cbf0847","019dac5b-243f-7307-af64-a10f53f1ef70","","602","
                <div class=""stimulus-container"">
                    <img src=""images/semantic_sequence/self_care_activities_semantic/self_care_activities_semantic_2.png"" class=""exp-image"">
                    <div class=""question-area"">
                        <p style=""font-size: 20px; font-weight: bold; margin: 0;"">Is there a person in this image?</p>
                    </div>
                </div>","0","main_experiment_trial","2","self_care_activities_semantic","semantic_sequence","chronological","","","","","","",""
"","","","","","html-keyboard-response","168","1062444","0.0-168.0","EE23E3EFA83942B4987ED210A43E7944","019dac5c-3423-7f95-b004-fda66cbf0847","019dac5b-243f-7307-af64-a10f53f1ef70","","null","
                <div class=""stimulus-container"">
                    <img src=""images/semantic_sequence/self_care_activities_semantic/self_care_activities_semantic_3.png"" class=""exp-image"">
                    <div class=""question-area""></div> 
                </div>","null","","","","","","","","","","","",""
"","","","","","html-button-response","169","1063586","0.0-169.0","EE23E3EFA83942B4987ED210A43E7944","019dac5c-3423-7f95-b004-fda66cbf0847","019dac5b-243f-7307-af64-a10f53f1ef70","","1141","
                <div class=""stimulus-container"">
                    <img src=""images/semantic_sequence/self_care_activities_semantic/self_care_activities_semantic_3.png"" class=""exp-image"">
                    <div class=""question-area"">
                        <p style=""font-size: 20px; font-weight: bold; margin: 0;"">Is there a person in this image?</p>
                    </div>
                </div>","0","main_experiment_trial","3","self_care_activities_semantic","semantic_sequence","chronological","","","","","","",""
"","","","","","html-keyboard-response","170","1068594","0.0-170.0","EE23E3EFA83942B4987ED210A43E7944","019dac5c-3423-7f95-b004-fda66cbf0847","019dac5b-243f-7307-af64-a10f53f1ef70","","null","
                <div class=""stimulus-container"">
                    <img src=""images/semantic_sequence/self_care_activities_semantic/self_care_activities_semantic_4.png"" class=""exp-image"">
                    <div class=""question-area""></div> 
                </div>","null","","","","","","","","","","","",""
"","","","","","html-button-response","171","1070070","0.0-171.0","EE23E3EFA83942B4987ED210A43E7944","019dac5c-3423-7f95-b004-fda66cbf0847","019dac5b-243f-7307-af64-a10f53f1ef70","","1475","
                <div class=""stimulus-container"">
                    <img src=""images/semantic_sequence/self_care_activities_semantic/self_care_activities_semantic_4.png"" class=""exp-image"">
                    <div class=""question-area"">
                        <p style=""font-size: 20px; font-weight: bold; margin: 0;"">Is there a person in this image?</p>
                    </div>
                </div>","0","main_experiment_trial","4","self_care_activities_semantic","semantic_sequence","chronological","","","","","","",""
"","","","","","html-keyboard-response","172","1075077","0.0-172.0","EE23E3EFA83942B4987ED210A43E7944","019dac5c-3423-7f95-b004-fda66cbf0847","019dac5b-243f-7307-af64-a10f53f1ef70","","null","
                <div class=""stimulus-container"">
                    <img src=""images/semantic_sequence/self_care_activities_semantic/self_care_activities_semantic_5.png"" class=""exp-image"">
                    <div class=""question-area""></div> 
                </div>","null","","","","","","","","","","","",""
"","","","","","html-button-response","173","1077432","0.0-173.0","EE23E3EFA83942B4987ED210A43E7944","019dac5c-3423-7f95-b004-fda66cbf0847","019dac5b-243f-7307-af64-a10f53f1ef70","","2355","
                <div class=""stimulus-container"">
                    <img src=""images/semantic_sequence/self_care_activities_semantic/self_care_activities_semantic_5.png"" class=""exp-image"">
                    <div class=""question-area"">
                        <p style=""font-size: 20px; font-weight: bold; margin: 0;"">Is there a person in this image?</p>
                    </div>
                </div>","0","main_experiment_trial","5","self_care_activities_semantic","semantic_sequence","chronological","","","","","","",""
"","","","","","html-keyboard-response","174","1082440","0.0-174.0","EE23E3EFA83942B4987ED210A43E7944","019dac5c-3423-7f95-b004-fda66cbf0847","019dac5b-243f-7307-af64-a10f53f1ef70","","null","
                <div class=""stimulus-container"">
                    <img src=""images/semantic_sequence/self_care_activities_semantic/self_care_activities_semantic_6.png"" class=""exp-image"">
                    <div class=""question-area""></div> 
                </div>","null","","","","","","","","","","","",""
"","","","","","html-button-response","175","1084331","0.0-175.0","EE23E3EFA83942B4987ED210A43E7944","019dac5c-3423-7f95-b004-fda66cbf0847","019dac5b-243f-7307-af64-a10f53f1ef70","","1890","
                <div class=""stimulus-container"">
                    <img src=""images/semantic_sequence/self_care_activities_semantic/self_care_activities_semantic_6.png"" class=""exp-image"">
                    <div class=""question-area"">
                        <p style=""font-size: 20px; font-weight: bold; margin: 0;"">Is there a person in this image?</p>
                    </div>
                </div>","0","main_experiment_trial","6","self_care_activities_semantic","semantic_sequence","chronological","","","","","","",""
"","","","","","html-keyboard-response","176","1089341","0.0-176.0","EE23E3EFA83942B4987ED210A43E7944","019dac5c-3423-7f95-b004-fda66cbf0847","019dac5b-243f-7307-af64-a10f53f1ef70","","null","
                <div class=""stimulus-container"">
