"success","timeout","failed_images","failed_audio","failed_video","trial_type","trial_index","time_elapsed","internal_node_id","subject_id","study_id","session_id","view_history","rt","stimulus","response","task","image_index","folder","sequence_type","valuable_image_index","reward_type","lucky_X","chosen_image_index","valuable_folder","neutral_folder","correct_choice"
"true","false","[]","[]","[]","preload","0","1778","0.0-0.0","D6C205933CD040E9A042F0C275CD4C0D","019ceda5-819b-7438-88a7-86093240bd28","019ceda4-7502-7cd5-b642-b8a83a30c71c","","","","","","","","","","","","","","",""
"","","","","","instructions","1","26694","0.0-1.0","D6C205933CD040E9A042F0C275CD4C0D","019ceda5-819b-7438-88a7-86093240bd28","019ceda4-7502-7cd5-b642-b8a83a30c71c","[{""page_index"":0,""viewing_time"":24915}]","24916","","","","","","","","","","","","",""
"","","","","","instructions","2","29019","0.0-2.0","D6C205933CD040E9A042F0C275CD4C0D","019ceda5-819b-7438-88a7-86093240bd28","019ceda4-7502-7cd5-b642-b8a83a30c71c","[{""page_index"":0,""viewing_time"":2324}]","2324","","","","","","","","","","","","",""
"true","","","","","fullscreen","3","32652","0.0-3.0","D6C205933CD040E9A042F0C275CD4C0D","019ceda5-819b-7438-88a7-86093240bd28","019ceda4-7502-7cd5-b642-b8a83a30c71c","","2628","","","","","","","","","","","","",""
"","","","","","instructions","4","69166","0.0-4.0","D6C205933CD040E9A042F0C275CD4C0D","019ceda5-819b-7438-88a7-86093240bd28","019ceda4-7502-7cd5-b642-b8a83a30c71c","[{""page_index"":0,""viewing_time"":36514}]","36514","","","","","","","","","","","","",""
"","","","","","instructions","5","78525","0.0-5.0","D6C205933CD040E9A042F0C275CD4C0D","019ceda5-819b-7438-88a7-86093240bd28","019ceda4-7502-7cd5-b642-b8a83a30c71c","[{""page_index"":0,""viewing_time"":9357}]","9358","","","","","","","","","","","","",""
"","","","","","html-keyboard-response","6","82533","0.0-6.0","D6C205933CD040E9A042F0C275CD4C0D","019ceda5-819b-7438-88a7-86093240bd28","019ceda4-7502-7cd5-b642-b8a83a30c71c","","null","
                <div class=""stimulus-container"">
                    <img src=""images/instructions/movie_1.png"" class=""exp-image"">
                    <div class=""question-area""></div> 
                </div>","null","","","","","","","","","","",""
"","","","","","html-button-response","7","83881","0.0-7.0","D6C205933CD040E9A042F0C275CD4C0D","019ceda5-819b-7438-88a7-86093240bd28","019ceda4-7502-7cd5-b642-b8a83a30c71c","","1345","
                <div class=""stimulus-container"">
                    <img src=""images/instructions/movie_1.png"" class=""exp-image"">
                    <div class=""question-area"">
                        <p style=""font-size: 20px; font-weight: bold; margin: 0;"">Was there a person in this image?</p>
                    </div>
                </div>","0","example_question","1","","","","","","","","",""
"","","","","","html-keyboard-response","8","87884","0.0-8.0","D6C205933CD040E9A042F0C275CD4C0D","019ceda5-819b-7438-88a7-86093240bd28","019ceda4-7502-7cd5-b642-b8a83a30c71c","","null","
                <div class=""stimulus-container"">
                    <img src=""images/instructions/movie_2.png"" class=""exp-image"">
                    <div class=""question-area""></div> 
                </div>","null","","","","","","","","","","",""
"","","","","","html-button-response","9","88708","0.0-9.0","D6C205933CD040E9A042F0C275CD4C0D","019ceda5-819b-7438-88a7-86093240bd28","019ceda4-7502-7cd5-b642-b8a83a30c71c","","823","
                <div class=""stimulus-container"">
                    <img src=""images/instructions/movie_2.png"" class=""exp-image"">
                    <div class=""question-area"">
                        <p style=""font-size: 20px; font-weight: bold; margin: 0;"">Was there a person in this image?</p>
                    </div>
                </div>","0","example_question","2","","","","","","","","",""
"","","","","","html-keyboard-response","10","92712","0.0-10.0","D6C205933CD040E9A042F0C275CD4C0D","019ceda5-819b-7438-88a7-86093240bd28","019ceda4-7502-7cd5-b642-b8a83a30c71c","","null","
                <div class=""stimulus-container"">
                    <img src=""images/instructions/movie_3.png"" class=""exp-image"">
                    <div class=""question-area""></div> 
                </div>","null","","","","","","","","","","",""
"","","","","","html-button-response","11","94143","0.0-11.0","D6C205933CD040E9A042F0C275CD4C0D","019ceda5-819b-7438-88a7-86093240bd28","019ceda4-7502-7cd5-b642-b8a83a30c71c","","1429","
                <div class=""stimulus-container"">
                    <img src=""images/instructions/movie_3.png"" class=""exp-image"">
                    <div class=""question-area"">
                        <p style=""font-size: 20px; font-weight: bold; margin: 0;"">Was there a person in this image?</p>
                    </div>
                </div>","0","example_question","3","","","","","","","","",""
"","","","","","html-keyboard-response","12","98144","0.0-12.0","D6C205933CD040E9A042F0C275CD4C0D","019ceda5-819b-7438-88a7-86093240bd28","019ceda4-7502-7cd5-b642-b8a83a30c71c","","null","
                <div class=""stimulus-container"">
                    <img src=""images/instructions/movie_4.png"" class=""exp-image"">
                    <div class=""question-area""></div> 
                </div>","null","","","","","","","","","","",""
"","","","","","html-button-response","13","99531","0.0-13.0","D6C205933CD040E9A042F0C275CD4C0D","019ceda5-819b-7438-88a7-86093240bd28","019ceda4-7502-7cd5-b642-b8a83a30c71c","","1386","
                <div class=""stimulus-container"">
                    <img src=""images/instructions/movie_4.png"" class=""exp-image"">
                    <div class=""question-area"">
                        <p style=""font-size: 20px; font-weight: bold; margin: 0;"">Was there a person in this image?</p>
                    </div>
                </div>","0","example_question","4","","","","","","","","",""
"","","","","","instructions","14","101148","0.0-14.0","D6C205933CD040E9A042F0C275CD4C0D","019ceda5-819b-7438-88a7-86093240bd28","019ceda4-7502-7cd5-b642-b8a83a30c71c","[{""page_index"":0,""viewing_time"":1616}]","1616","","","","","","","","","","","","",""
"","","","","","instructions","15","104799","0.0-15.0","D6C205933CD040E9A042F0C275CD4C0D","019ceda5-819b-7438-88a7-86093240bd28","019ceda4-7502-7cd5-b642-b8a83a30c71c","[{""page_index"":0,""viewing_time"":3651}]","3651","","","","","","","","","","","","",""
"","","","","","html-keyboard-response","16","105801","0.0-16.0","D6C205933CD040E9A042F0C275CD4C0D","019ceda5-819b-7438-88a7-86093240bd28","019ceda4-7502-7cd5-b642-b8a83a30c71c","","null","<div style=""background-color: white; width: 100vw; height: 100vh;""></div>","null","","","","","","","","","","",""
"","","","","","html-keyboard-response","17","110803","0.0-17.0","D6C205933CD040E9A042F0C275CD4C0D","019ceda5-819b-7438-88a7-86093240bd28","019ceda4-7502-7cd5-b642-b8a83a30c71c","","null","
                <div class=""stimulus-container"">
                    <img src=""images/schematic_sequence/supermarket_scheme/supermarket_scheme_1.png"" class=""exp-image"">
                    <div class=""question-area""></div> 
                </div>","null","","","","","","","","","","",""
"","","","","","html-button-response","18","112150","0.0-18.0","D6C205933CD040E9A042F0C275CD4C0D","019ceda5-819b-7438-88a7-86093240bd28","019ceda4-7502-7cd5-b642-b8a83a30c71c","","1345","
                <div class=""stimulus-container"">
                    <img src=""images/schematic_sequence/supermarket_scheme/supermarket_scheme_1.png"" class=""exp-image"">
                    <div class=""question-area"">
                        <p style=""font-size: 20px; font-weight: bold; margin: 0;"">Is there a person in this image?</p>
                    </div>
                </div>","1","main_experiment_trial","1","supermarket_scheme","schematic_sequence","","","","","","",""
"","","","","","html-keyboard-response","19","117152","0.0-19.0","D6C205933CD040E9A042F0C275CD4C0D","019ceda5-819b-7438-88a7-86093240bd28","019ceda4-7502-7cd5-b642-b8a83a30c71c","","null","
                <div class=""stimulus-container"">
                    <img src=""images/schematic_sequence/supermarket_scheme/supermarket_scheme_2.png"" class=""exp-image"">
                    <div class=""question-area""></div> 
                </div>","null","","","","","","","","","","",""
"","","","","","html-button-response","20","119067","0.0-20.0","D6C205933CD040E9A042F0C275CD4C0D","019ceda5-819b-7438-88a7-86093240bd28","019ceda4-7502-7cd5-b642-b8a83a30c71c","","1913","
                <div class=""stimulus-container"">
                    <img src=""images/schematic_sequence/supermarket_scheme/supermarket_scheme_2.png"" class=""exp-image"">
                    <div class=""question-area"">
                        <p style=""font-size: 20px; font-weight: bold; margin: 0;"">Is there a person in this image?</p>
                    </div>
                </div>","1","main_experiment_trial","2","supermarket_scheme","schematic_sequence","","","","","","",""
"","","","","","html-keyboard-response","21","124068","0.0-21.0","D6C205933CD040E9A042F0C275CD4C0D","019ceda5-819b-7438-88a7-86093240bd28","019ceda4-7502-7cd5-b642-b8a83a30c71c","","null","
                <div class=""stimulus-container"">
                    <img src=""images/schematic_sequence/supermarket_scheme/supermarket_scheme_3.png"" class=""exp-image"">
                    <div class=""question-area""></div> 
                </div>","null","","","","","","","","","","",""
"","","","","","html-button-response","22","127071","0.0-22.0","D6C205933CD040E9A042F0C275CD4C0D","019ceda5-819b-7438-88a7-86093240bd28","019ceda4-7502-7cd5-b642-b8a83a30c71c","","null","
                <div class=""stimulus-container"">
                    <img src=""images/schematic_sequence/supermarket_scheme/supermarket_scheme_3.png"" class=""exp-image"">
                    <div class=""question-area"">
                        <p style=""font-size: 20px; font-weight: bold; margin: 0;"">Is there a person in this image?</p>
                    </div>
                </div>","null","main_experiment_trial","3","supermarket_scheme","schematic_sequence","","","","","","",""
"","","","","","html-keyboard-response","23","132073","0.0-23.0","D6C205933CD040E9A042F0C275CD4C0D","019ceda5-819b-7438-88a7-86093240bd28","019ceda4-7502-7cd5-b642-b8a83a30c71c","","null","
                <div class=""stimulus-container"">
                    <img src=""images/schematic_sequence/supermarket_scheme/supermarket_scheme_4.png"" class=""exp-image"">
                    <div class=""question-area""></div> 
                </div>","null","","","","","","","","","","",""
"","","","","","html-button-response","24","133261","0.0-24.0","D6C205933CD040E9A042F0C275CD4C0D","019ceda5-819b-7438-88a7-86093240bd28","019ceda4-7502-7cd5-b642-b8a83a30c71c","","1187","
                <div class=""stimulus-container"">
                    <img src=""images/schematic_sequence/supermarket_scheme/supermarket_scheme_4.png"" class=""exp-image"">
                    <div class=""question-area"">
                        <p style=""font-size: 20px; font-weight: bold; margin: 0;"">Is there a person in this image?</p>
                    </div>
                </div>","0","main_experiment_trial","4","supermarket_scheme","schematic_sequence","","","","","","",""
"","","","","","html-keyboard-response","25","138265","0.0-25.0","D6C205933CD040E9A042F0C275CD4C0D","019ceda5-819b-7438-88a7-86093240bd28","019ceda4-7502-7cd5-b642-b8a83a30c71c","","null","
                <div class=""stimulus-container"">
                    <img src=""images/schematic_sequence/supermarket_scheme/supermarket_scheme_5.png"" class=""exp-image"">
                    <div class=""question-area""></div> 
                </div>","null","","","","","","","","","","",""
"","","","","","html-button-response","26","139898","0.0-26.0","D6C205933CD040E9A042F0C275CD4C0D","019ceda5-819b-7438-88a7-86093240bd28","019ceda4-7502-7cd5-b642-b8a83a30c71c","","1632","
                <div class=""stimulus-container"">
                    <img src=""images/schematic_sequence/supermarket_scheme/supermarket_scheme_5.png"" class=""exp-image"">
                    <div class=""question-area"">
                        <p style=""font-size: 20px; font-weight: bold; margin: 0;"">Is there a person in this image?</p>
                    </div>
                </div>","1","main_experiment_trial","5","supermarket_scheme","schematic_sequence","","","","","","",""
"","","","","","html-keyboard-response","27","144901","0.0-27.0","D6C205933CD040E9A042F0C275CD4C0D","019ceda5-819b-7438-88a7-86093240bd28","019ceda4-7502-7cd5-b642-b8a83a30c71c","","null","
                <div class=""stimulus-container"">
                    <img src=""images/schematic_sequence/supermarket_scheme/supermarket_scheme_6.png"" class=""exp-image"">
                    <div class=""question-area""></div> 
                </div>","null","","","","","","","","","","",""
"","","","","","html-button-response","28","146302","0.0-28.0","D6C205933CD040E9A042F0C275CD4C0D","019ceda5-819b-7438-88a7-86093240bd28","019ceda4-7502-7cd5-b642-b8a83a30c71c","","1400","
                <div class=""stimulus-container"">
                    <img src=""images/schematic_sequence/supermarket_scheme/supermarket_scheme_6.png"" class=""exp-image"">
                    <div class=""question-area"">
                        <p style=""font-size: 20px; font-weight: bold; margin: 0;"">Is there a person in this image?</p>
                    </div>
                </div>","0","main_experiment_trial","6","supermarket_scheme","schematic_sequence","","","","","","",""
"","","","","","html-keyboard-response","29","151305","0.0-29.0","D6C205933CD040E9A042F0C275CD4C0D","019ceda5-819b-7438-88a7-86093240bd28","019ceda4-7502-7cd5-b642-b8a83a30c71c","","null","
                <div class=""stimulus-container"">
                    <img src=""images/schematic_sequence/supermarket_scheme/supermarket_scheme_7.png"" class=""exp-image"">
                    <div class=""question-area""></div> 
                </div>","null","","","","","","","","","","",""
"","","","","","html-button-response","30","151976","0.0-30.0","D6C205933CD040E9A042F0C275CD4C0D","019ceda5-819b-7438-88a7-86093240bd28","019ceda4-7502-7cd5-b642-b8a83a30c71c","","670","
                <div class=""stimulus-container"">
                    <img src=""images/schematic_sequence/supermarket_scheme/supermarket_scheme_7.png"" class=""exp-image"">
                    <div class=""question-area"">
                        <p style=""font-size: 20px; font-weight: bold; margin: 0;"">Is there a person in this image?</p>
                    </div>
                </div>","0","main_experiment_trial","7","supermarket_scheme","schematic_sequence","","","","","","",""
"","","","","","html-keyboard-response","31","156978","0.0-31.0","D6C205933CD040E9A042F0C275CD4C0D","019ceda5-819b-7438-88a7-86093240bd28","019ceda4-7502-7cd5-b642-b8a83a30c71c","","null","
                <div class=""stimulus-container"">
                    <img src=""images/schematic_sequence/supermarket_scheme/supermarket_scheme_8.png"" class=""exp-image"">
                    <div class=""question-area""></div> 
                </div>","null","","","","","","","","","","",""
"","","","","","html-button-response","32","158049","0.0-32.0","D6C205933CD040E9A042F0C275CD4C0D","019ceda5-819b-7438-88a7-86093240bd28","019ceda4-7502-7cd5-b642-b8a83a30c71c","","1070","
                <div class=""stimulus-container"">
                    <img src=""images/schematic_sequence/supermarket_scheme/supermarket_scheme_8.png"" class=""exp-image"">
                    <div class=""question-area"">
                        <p style=""font-size: 20px; font-weight: bold; margin: 0;"">Is there a person in this image?</p>
                    </div>
                </div>","0","main_experiment_trial","8","supermarket_scheme","schematic_sequence","","","","","","",""
"","","","","","html-keyboard-response","33","163051","0.0-33.0","D6C205933CD040E9A042F0C275CD4C0D","019ceda5-819b-7438-88a7-86093240bd28","019ceda4-7502-7cd5-b642-b8a83a30c71c","","null","
                <div class=""stimulus-container"">
                    <img src=""images/schematic_sequence/supermarket_scheme/supermarket_scheme_9.png"" class=""exp-image"">
                    <div class=""question-area""></div> 
                </div>","null","","","","","","","","","","",""
"","","","","","html-button-response","34","163834","0.0-34.0","D6C205933CD040E9A042F0C275CD4C0D","019ceda5-819b-7438-88a7-86093240bd28","019ceda4-7502-7cd5-b642-b8a83a30c71c","","782","
                <div class=""stimulus-container"">
                    <img src=""images/schematic_sequence/supermarket_scheme/supermarket_scheme_9.png"" class=""exp-image"">
                    <div class=""question-area"">
                        <p style=""font-size: 20px; font-weight: bold; margin: 0;"">Is there a person in this image?</p>
                    </div>
                </div>","0","main_experiment_trial","9","supermarket_scheme","schematic_sequence","","","","","","",""
"","","","","","html-keyboard-response","35","168836","0.0-35.0","D6C205933CD040E9A042F0C275CD4C0D","019ceda5-819b-7438-88a7-86093240bd28","019ceda4-7502-7cd5-b642-b8a83a30c71c","","null","
                <div class=""stimulus-container"">
                    <img src=""images/schematic_sequence/supermarket_scheme/supermarket_scheme_ten.png"" class=""exp-image"">
                    <div class=""question-area""></div> 
                </div>","null","","","","","","","","","","",""
"","","","","","html-button-response","36","170131","0.0-36.0","D6C205933CD040E9A042F0C275CD4C0D","019ceda5-819b-7438-88a7-86093240bd28","019ceda4-7502-7cd5-b642-b8a83a30c71c","","1295","
                <div class=""stimulus-container"">
                    <img src=""images/schematic_sequence/supermarket_scheme/supermarket_scheme_ten.png"" class=""exp-image"">
                    <div class=""question-area"">
                        <p style=""font-size: 20px; font-weight: bold; margin: 0;"">Is there a person in this image?</p>
                    </div>
                </div>","1","main_experiment_trial","ten","supermarket_scheme","schematic_sequence","","","","","","",""
"","","","","","html-keyboard-response","37","171133","0.0-37.0","D6C205933CD040E9A042F0C275CD4C0D","019ceda5-819b-7438-88a7-86093240bd28","019ceda4-7502-7cd5-b642-b8a83a30c71c","","null","<div style=""background-color: white; width: 100vw; height: 100vh;""></div>","null","","","","","","","","","","",""
"","","","","","html-keyboard-response","38","176136","0.0-38.0","D6C205933CD040E9A042F0C275CD4C0D","019ceda5-819b-7438-88a7-86093240bd28","019ceda4-7502-7cd5-b642-b8a83a30c71c","","null","
                <div class=""stimulus-container"">
                    <img src=""images/schematic_sequence/dinner_party_scheme/dinner_party_scheme_1.png"" class=""exp-image"">
                    <div class=""question-area""></div> 
                </div>","null","","","","","","","","","","",""
"","","","","","html-button-response","39","176880","0.0-39.0","D6C205933CD040E9A042F0C275CD4C0D","019ceda5-819b-7438-88a7-86093240bd28","019ceda4-7502-7cd5-b642-b8a83a30c71c","","743","
                <div class=""stimulus-container"">
                    <img src=""images/schematic_sequence/dinner_party_scheme/dinner_party_scheme_1.png"" class=""exp-image"">
                    <div class=""question-area"">
                        <p style=""font-size: 20px; font-weight: bold; margin: 0;"">Is there a person in this image?</p>
                    </div>
                </div>","0","main_experiment_trial","1","dinner_party_scheme","schematic_sequence","","","","","","",""
"","","","","","html-keyboard-response","40","181881","0.0-40.0","D6C205933CD040E9A042F0C275CD4C0D","019ceda5-819b-7438-88a7-86093240bd28","019ceda4-7502-7cd5-b642-b8a83a30c71c","","null","
                <div class=""stimulus-container"">
                    <img src=""images/schematic_sequence/dinner_party_scheme/dinner_party_scheme_2.png"" class=""exp-image"">
                    <div class=""question-area""></div> 
                </div>","null","","","","","","","","","","",""
"","","","","","html-button-response","41","182602","0.0-41.0","D6C205933CD040E9A042F0C275CD4C0D","019ceda5-819b-7438-88a7-86093240bd28","019ceda4-7502-7cd5-b642-b8a83a30c71c","","720","
                <div class=""stimulus-container"">
                    <img src=""images/schematic_sequence/dinner_party_scheme/dinner_party_scheme_2.png"" class=""exp-image"">
                    <div class=""question-area"">
                        <p style=""font-size: 20px; font-weight: bold; margin: 0;"">Is there a person in this image?</p>
                    </div>
                </div>","0","main_experiment_trial","2","dinner_party_scheme","schematic_sequence","","","","","","",""
"","","","","","html-keyboard-response","42","187605","0.0-42.0","D6C205933CD040E9A042F0C275CD4C0D","019ceda5-819b-7438-88a7-86093240bd28","019ceda4-7502-7cd5-b642-b8a83a30c71c","","null","
                <div class=""stimulus-container"">
                    <img src=""images/schematic_sequence/dinner_party_scheme/dinner_party_scheme_3.png"" class=""exp-image"">
                    <div class=""question-area""></div> 
                </div>","null","","","","","","","","","","",""
"","","","","","html-button-response","43","188022","0.0-43.0","D6C205933CD040E9A042F0C275CD4C0D","019ceda5-819b-7438-88a7-86093240bd28","019ceda4-7502-7cd5-b642-b8a83a30c71c","","417","
                <div class=""stimulus-container"">
                    <img src=""images/schematic_sequence/dinner_party_scheme/dinner_party_scheme_3.png"" class=""exp-image"">
                    <div class=""question-area"">
                        <p style=""font-size: 20px; font-weight: bold; margin: 0;"">Is there a person in this image?</p>
                    </div>
                </div>","0","main_experiment_trial","3","dinner_party_scheme","schematic_sequence","","","","","","",""
"","","","","","html-keyboard-response","44","193025","0.0-44.0","D6C205933CD040E9A042F0C275CD4C0D","019ceda5-819b-7438-88a7-86093240bd28","019ceda4-7502-7cd5-b642-b8a83a30c71c","","null","
                <div class=""stimulus-container"">
                    <img src=""images/schematic_sequence/dinner_party_scheme/dinner_party_scheme_4.png"" class=""exp-image"">
                    <div class=""question-area""></div> 
                </div>","null","","","","","","","","","","",""
"","","","","","html-button-response","45","194681","0.0-45.0","D6C205933CD040E9A042F0C275CD4C0D","019ceda5-819b-7438-88a7-86093240bd28","019ceda4-7502-7cd5-b642-b8a83a30c71c","","1655","
                <div class=""stimulus-container"">
                    <img src=""images/schematic_sequence/dinner_party_scheme/dinner_party_scheme_4.png"" class=""exp-image"">
                    <div class=""question-area"">
                        <p style=""font-size: 20px; font-weight: bold; margin: 0;"">Is there a person in this image?</p>
                    </div>
                </div>","0","main_experiment_trial","4","dinner_party_scheme","schematic_sequence","","","","","","",""
"","","","","","html-keyboard-response","46","199683","0.0-46.0","D6C205933CD040E9A042F0C275CD4C0D","019ceda5-819b-7438-88a7-86093240bd28","019ceda4-7502-7cd5-b642-b8a83a30c71c","","null","
                <div class=""stimulus-container"">
                    <img src=""images/schematic_sequence/dinner_party_scheme/dinner_party_scheme_5.png"" class=""exp-image"">
                    <div class=""question-area""></div> 
                </div>","null","","","","","","","","","","",""
"","","","","","html-button-response","47","200172","0.0-47.0","D6C205933CD040E9A042F0C275CD4C0D","019ceda5-819b-7438-88a7-86093240bd28","019ceda4-7502-7cd5-b642-b8a83a30c71c","","487","
                <div class=""stimulus-container"">
                    <img src=""images/schematic_sequence/dinner_party_scheme/dinner_party_scheme_5.png"" class=""exp-image"">
                    <div class=""question-area"">
                        <p style=""font-size: 20px; font-weight: bold; margin: 0;"">Is there a person in this image?</p>
                    </div>
                </div>","0","main_experiment_trial","5","dinner_party_scheme","schematic_sequence","","","","","","",""
"","","","","","html-keyboard-response","48","205175","0.0-48.0","D6C205933CD040E9A042F0C275CD4C0D","019ceda5-819b-7438-88a7-86093240bd28","019ceda4-7502-7cd5-b642-b8a83a30c71c","","null","
                <div class=""stimulus-container"">
                    <img src=""images/schematic_sequence/dinner_party_scheme/dinner_party_scheme_6.png"" class=""exp-image"">
                    <div class=""question-area""></div> 
                </div>","null","","","","","","","","","","",""
"","","","","","html-button-response","49","205763","0.0-49.0","D6C205933CD040E9A042F0C275CD4C0D","019ceda5-819b-7438-88a7-86093240bd28","019ceda4-7502-7cd5-b642-b8a83a30c71c","","586","
                <div class=""stimulus-container"">
                    <img src=""images/schematic_sequence/dinner_party_scheme/dinner_party_scheme_6.png"" class=""exp-image"">
                    <div class=""question-area"">
                        <p style=""font-size: 20px; font-weight: bold; margin: 0;"">Is there a person in this image?</p>
                    </div>
                </div>","0","main_experiment_trial","6","dinner_party_scheme","schematic_sequence","","","","","","",""
"","","","","","html-keyboard-response","50","210766","0.0-50.0","D6C205933CD040E9A042F0C275CD4C0D","019ceda5-819b-7438-88a7-86093240bd28","019ceda4-7502-7cd5-b642-b8a83a30c71c","","null","
                <div class=""stimulus-container"">
                    <img src=""images/schematic_sequence/dinner_party_scheme/dinner_party_scheme_7.png"" class=""exp-image"">
                    <div class=""question-area""></div> 
                </div>","null","","","","","","","","","","",""
"","","","","","html-button-response","51","211196","0.0-51.0","D6C205933CD040E9A042F0C275CD4C0D","019ceda5-819b-7438-88a7-86093240bd28","019ceda4-7502-7cd5-b642-b8a83a30c71c","","428","
                <div class=""stimulus-container"">
                    <img src=""images/schematic_sequence/dinner_party_scheme/dinner_party_scheme_7.png"" class=""exp-image"">
                    <div class=""question-area"">
                        <p style=""font-size: 20px; font-weight: bold; margin: 0;"">Is there a person in this image?</p>
                    </div>
                </div>","0","main_experiment_trial","7","dinner_party_scheme","schematic_sequence","","","","","","",""
"","","","","","html-keyboard-response","52","216198","0.0-52.0","D6C205933CD040E9A042F0C275CD4C0D","019ceda5-819b-7438-88a7-86093240bd28","019ceda4-7502-7cd5-b642-b8a83a30c71c","","null","
                <div class=""stimulus-container"">
                    <img src=""images/schematic_sequence/dinner_party_scheme/dinner_party_scheme_8.png"" class=""exp-image"">
                    <div class=""question-area""></div> 
                </div>","null","","","","","","","","","","",""
"","","","","","html-button-response","53","216665","0.0-53.0","D6C205933CD040E9A042F0C275CD4C0D","019ceda5-819b-7438-88a7-86093240bd28","019ceda4-7502-7cd5-b642-b8a83a30c71c","","466","
                <div class=""stimulus-container"">
                    <img src=""images/schematic_sequence/dinner_party_scheme/dinner_party_scheme_8.png"" class=""exp-image"">
                    <div class=""question-area"">
                        <p style=""font-size: 20px; font-weight: bold; margin: 0;"">Is there a person in this image?</p>
                    </div>
                </div>","0","main_experiment_trial","8","dinner_party_scheme","schematic_sequence","","","","","","",""
"","","","","","html-keyboard-response","54","221667","0.0-54.0","D6C205933CD040E9A042F0C275CD4C0D","019ceda5-819b-7438-88a7-86093240bd28","019ceda4-7502-7cd5-b642-b8a83a30c71c","","null","
                <div class=""stimulus-container"">
                    <img src=""images/schematic_sequence/dinner_party_scheme/dinner_party_scheme_9.png"" class=""exp-image"">
                    <div class=""question-area""></div> 
                </div>","null","","","","","","","","","","",""
"","","","","","html-button-response","55","222395","0.0-55.0","D6C205933CD040E9A042F0C275CD4C0D","019ceda5-819b-7438-88a7-86093240bd28","019ceda4-7502-7cd5-b642-b8a83a30c71c","","726","
                <div class=""stimulus-container"">
                    <img src=""images/schematic_sequence/dinner_party_scheme/dinner_party_scheme_9.png"" class=""exp-image"">
                    <div class=""question-area"">
                        <p style=""font-size: 20px; font-weight: bold; margin: 0;"">Is there a person in this image?</p>
                    </div>
                </div>","0","main_experiment_trial","9","dinner_party_scheme","schematic_sequence","","","","","","",""
"","","","","","html-keyboard-response","56","227397","0.0-56.0","D6C205933CD040E9A042F0C275CD4C0D","019ceda5-819b-7438-88a7-86093240bd28","019ceda4-7502-7cd5-b642-b8a83a30c71c","","null","
                <div class=""stimulus-container"">
                    <img src=""images/schematic_sequence/dinner_party_scheme/dinner_party_scheme_ten.png"" class=""exp-image"">
                    <div class=""question-area""></div> 
                </div>","null","","","","","","","","","","",""
"","","","","","html-button-response","57","227793","0.0-57.0","D6C205933CD040E9A042F0C275CD4C0D","019ceda5-819b-7438-88a7-86093240bd28","019ceda4-7502-7cd5-b642-b8a83a30c71c","","394","
                <div class=""stimulus-container"">
                    <img src=""images/schematic_sequence/dinner_party_scheme/dinner_party_scheme_ten.png"" class=""exp-image"">
                    <div class=""question-area"">
                        <p style=""font-size: 20px; font-weight: bold; margin: 0;"">Is there a person in this image?</p>
                    </div>
                </div>","0","main_experiment_trial","ten","dinner_party_scheme","schematic_sequence","","","","","","",""
"","","","","","html-keyboard-response","58","228795","0.0-58.0","D6C205933CD040E9A042F0C275CD4C0D","019ceda5-819b-7438-88a7-86093240bd28","019ceda4-7502-7cd5-b642-b8a83a30c71c","","null","<div style=""background-color: white; width: 100vw; height: 100vh;""></div>","null","","","","","","","","","","",""
"","","","","","html-keyboard-response","59","233798","0.0-59.0","D6C205933CD040E9A042F0C275CD4C0D","019ceda5-819b-7438-88a7-86093240bd28","019ceda4-7502-7cd5-b642-b8a83a30c71c","","null","
                <div class=""stimulus-container"">
                    <img src=""images/causal_sequence/saving_a_cat_causal/saving_a_cat_causal_1.png"" class=""exp-image"">
                    <div class=""question-area""></div> 
                </div>","null","","","","","","","","","","",""
"","","","","","html-button-response","60","234597","0.0-60.0","D6C205933CD040E9A042F0C275CD4C0D","019ceda5-819b-7438-88a7-86093240bd28","019ceda4-7502-7cd5-b642-b8a83a30c71c","","798","
                <div class=""stimulus-container"">
                    <img src=""images/causal_sequence/saving_a_cat_causal/saving_a_cat_causal_1.png"" class=""exp-image"">
                    <div class=""question-area"">
                        <p style=""font-size: 20px; font-weight: bold; margin: 0;"">Is there a person in this image?</p>
                    </div>
                </div>","0","main_experiment_trial","1","saving_a_cat_causal","causal_sequence","","","","","","",""
"","","","","","html-keyboard-response","61","239599","0.0-61.0","D6C205933CD040E9A042F0C275CD4C0D","019ceda5-819b-7438-88a7-86093240bd28","019ceda4-7502-7cd5-b642-b8a83a30c71c","","null","
                <div class=""stimulus-container"">
                    <img src=""images/causal_sequence/saving_a_cat_causal/saving_a_cat_causal_2.png"" class=""exp-image"">
                    <div class=""question-area""></div> 
                </div>","null","","","","","","","","","","",""
"","","","","","html-button-response","62","240602","0.0-62.0","D6C205933CD040E9A042F0C275CD4C0D","019ceda5-819b-7438-88a7-86093240bd28","019ceda4-7502-7cd5-b642-b8a83a30c71c","","1002","
                <div class=""stimulus-container"">
                    <img src=""images/causal_sequence/saving_a_cat_causal/saving_a_cat_causal_2.png"" class=""exp-image"">
                    <div class=""question-area"">
                        <p style=""font-size: 20px; font-weight: bold; margin: 0;"">Is there a person in this image?</p>
                    </div>
                </div>","1","main_experiment_trial","2","saving_a_cat_causal","causal_sequence","","","","","","",""
"","","","","","html-keyboard-response","63","245605","0.0-63.0","D6C205933CD040E9A042F0C275CD4C0D","019ceda5-819b-7438-88a7-86093240bd28","019ceda4-7502-7cd5-b642-b8a83a30c71c","","null","
                <div class=""stimulus-container"">
                    <img src=""images/causal_sequence/saving_a_cat_causal/saving_a_cat_causal_3.png"" class=""exp-image"">
                    <div class=""question-area""></div> 
                </div>","null","","","","","","","","","","",""
"","","","","","html-button-response","64","246633","0.0-64.0","D6C205933CD040E9A042F0C275CD4C0D","019ceda5-819b-7438-88a7-86093240bd28","019ceda4-7502-7cd5-b642-b8a83a30c71c","","1026","
                <div class=""stimulus-container"">
                    <img src=""images/causal_sequence/saving_a_cat_causal/saving_a_cat_causal_3.png"" class=""exp-image"">
                    <div class=""question-area"">
                        <p style=""font-size: 20px; font-weight: bold; margin: 0;"">Is there a person in this image?</p>
                    </div>
                </div>","1","main_experiment_trial","3","saving_a_cat_causal","causal_sequence","","","","","","",""
"","","","","","html-keyboard-response","65","251635","0.0-65.0","D6C205933CD040E9A042F0C275CD4C0D","019ceda5-819b-7438-88a7-86093240bd28","019ceda4-7502-7cd5-b642-b8a83a30c71c","","null","
                <div class=""stimulus-container"">
                    <img src=""images/causal_sequence/saving_a_cat_causal/saving_a_cat_causal_4.png"" class=""exp-image"">
                    <div class=""question-area""></div> 
                </div>","null","","","","","","","","","","",""
"","","","","","html-button-response","66","252344","0.0-66.0","D6C205933CD040E9A042F0C275CD4C0D","019ceda5-819b-7438-88a7-86093240bd28","019ceda4-7502-7cd5-b642-b8a83a30c71c","","707","
                <div class=""stimulus-container"">
                    <img src=""images/causal_sequence/saving_a_cat_causal/saving_a_cat_causal_4.png"" class=""exp-image"">
                    <div class=""question-area"">
                        <p style=""font-size: 20px; font-weight: bold; margin: 0;"">Is there a person in this image?</p>
                    </div>
                </div>","0","main_experiment_trial","4","saving_a_cat_causal","causal_sequence","","","","","","",""
"","","","","","html-keyboard-response","67","257346","0.0-67.0","D6C205933CD040E9A042F0C275CD4C0D","019ceda5-819b-7438-88a7-86093240bd28","019ceda4-7502-7cd5-b642-b8a83a30c71c","","null","
                <div class=""stimulus-container"">
                    <img src=""images/causal_sequence/saving_a_cat_causal/saving_a_cat_causal_5.png"" class=""exp-image"">
                    <div class=""question-area""></div> 
                </div>","null","","","","","","","","","","",""
"","","","","","html-button-response","68","257883","0.0-68.0","D6C205933CD040E9A042F0C275CD4C0D","019ceda5-819b-7438-88a7-86093240bd28","019ceda4-7502-7cd5-b642-b8a83a30c71c","","536","
                <div class=""stimulus-container"">
                    <img src=""images/causal_sequence/saving_a_cat_causal/saving_a_cat_causal_5.png"" class=""exp-image"">
                    <div class=""question-area"">
                        <p style=""font-size: 20px; font-weight: bold; margin: 0;"">Is there a person in this image?</p>
                    </div>
                </div>","0","main_experiment_trial","5","saving_a_cat_causal","causal_sequence","","","","","","",""
"","","","","","html-keyboard-response","69","262885","0.0-69.0","D6C205933CD040E9A042F0C275CD4C0D","019ceda5-819b-7438-88a7-86093240bd28","019ceda4-7502-7cd5-b642-b8a83a30c71c","","null","
                <div class=""stimulus-container"">
                    <img src=""images/causal_sequence/saving_a_cat_causal/saving_a_cat_causal_6.png"" class=""exp-image"">
                    <div class=""question-area""></div> 
                </div>","null","","","","","","","","","","",""
"","","","","","html-button-response","70","263599","0.0-70.0","D6C205933CD040E9A042F0C275CD4C0D","019ceda5-819b-7438-88a7-86093240bd28","019ceda4-7502-7cd5-b642-b8a83a30c71c","","713","
                <div class=""stimulus-container"">
                    <img src=""images/causal_sequence/saving_a_cat_causal/saving_a_cat_causal_6.png"" class=""exp-image"">
                    <div class=""question-area"">
                        <p style=""font-size: 20px; font-weight: bold; margin: 0;"">Is there a person in this image?</p>
                    </div>
                </div>","0","main_experiment_trial","6","saving_a_cat_causal","causal_sequence","","","","","","",""
"","","","","","html-keyboard-response","71","268601","0.0-71.0","D6C205933CD040E9A042F0C275CD4C0D","019ceda5-819b-7438-88a7-86093240bd28","019ceda4-7502-7cd5-b642-b8a83a30c71c","","null","
                <div class=""stimulus-container"">
                    <img src=""images/causal_sequence/saving_a_cat_causal/saving_a_cat_causal_7.png"" class=""exp-image"">
                    <div class=""question-area""></div> 
                </div>","null","","","","","","","","","","",""
"","","","","","html-button-response","72","269563","0.0-72.0","D6C205933CD040E9A042F0C275CD4C0D","019ceda5-819b-7438-88a7-86093240bd28","019ceda4-7502-7cd5-b642-b8a83a30c71c","","960","
                <div class=""stimulus-container"">
                    <img src=""images/causal_sequence/saving_a_cat_causal/saving_a_cat_causal_7.png"" class=""exp-image"">
                    <div class=""question-area"">
                        <p style=""font-size: 20px; font-weight: bold; margin: 0;"">Is there a person in this image?</p>
                    </div>
                </div>","0","main_experiment_trial","7","saving_a_cat_causal","causal_sequence","","","","","","",""
"","","","","","html-keyboard-response","73","274565","0.0-73.0","D6C205933CD040E9A042F0C275CD4C0D","019ceda5-819b-7438-88a7-86093240bd28","019ceda4-7502-7cd5-b642-b8a83a30c71c","","null","
                <div class=""stimulus-container"">
                    <img src=""images/causal_sequence/saving_a_cat_causal/saving_a_cat_causal_8.png"" class=""exp-image"">
                    <div class=""question-area""></div> 
                </div>","null","","","","","","","","","","",""
"","","","","","html-button-response","74","275352","0.0-74.0","D6C205933CD040E9A042F0C275CD4C0D","019ceda5-819b-7438-88a7-86093240bd28","019ceda4-7502-7cd5-b642-b8a83a30c71c","","786","
                <div class=""stimulus-container"">
                    <img src=""images/causal_sequence/saving_a_cat_causal/saving_a_cat_causal_8.png"" class=""exp-image"">
                    <div class=""question-area"">
                        <p style=""font-size: 20px; font-weight: bold; margin: 0;"">Is there a person in this image?</p>
                    </div>
                </div>","0","main_experiment_trial","8","saving_a_cat_causal","causal_sequence","","","","","","",""
"","","","","","html-keyboard-response","75","280355","0.0-75.0","D6C205933CD040E9A042F0C275CD4C0D","019ceda5-819b-7438-88a7-86093240bd28","019ceda4-7502-7cd5-b642-b8a83a30c71c","","null","
                <div class=""stimulus-container"">
                    <img src=""images/causal_sequence/saving_a_cat_causal/saving_a_cat_causal_9.png"" class=""exp-image"">
                    <div class=""question-area""></div> 
                </div>","null","","","","","","","","","","",""
"","","","","","html-button-response","76","280866","0.0-76.0","D6C205933CD040E9A042F0C275CD4C0D","019ceda5-819b-7438-88a7-86093240bd28","019ceda4-7502-7cd5-b642-b8a83a30c71c","","510","
                <div class=""stimulus-container"">
                    <img src=""images/causal_sequence/saving_a_cat_causal/saving_a_cat_causal_9.png"" class=""exp-image"">
                    <div class=""question-area"">
                        <p style=""font-size: 20px; font-weight: bold; margin: 0;"">Is there a person in this image?</p>
                    </div>
                </div>","0","main_experiment_trial","9","saving_a_cat_causal","causal_sequence","","","","","","",""
"","","","","","html-keyboard-response","77","285868","0.0-77.0","D6C205933CD040E9A042F0C275CD4C0D","019ceda5-819b-7438-88a7-86093240bd28","019ceda4-7502-7cd5-b642-b8a83a30c71c","","null","
                <div class=""stimulus-container"">
                    <img src=""images/causal_sequence/saving_a_cat_causal/saving_a_cat_causal_ten.png"" class=""exp-image"">
                    <div class=""question-area""></div> 
                </div>","null","","","","","","","","","","",""
"","","","","","html-button-response","78","287897","0.0-78.0","D6C205933CD040E9A042F0C275CD4C0D","019ceda5-819b-7438-88a7-86093240bd28","019ceda4-7502-7cd5-b642-b8a83a30c71c","","2028","
                <div class=""stimulus-container"">
                    <img src=""images/causal_sequence/saving_a_cat_causal/saving_a_cat_causal_ten.png"" class=""exp-image"">
                    <div class=""question-area"">
                        <p style=""font-size: 20px; font-weight: bold; margin: 0;"">Is there a person in this image?</p>
                    </div>
                </div>","0","main_experiment_trial","ten","saving_a_cat_causal","causal_sequence","","","","","","",""
"","","","","","html-keyboard-response","79","288900","0.0-79.0","D6C205933CD040E9A042F0C275CD4C0D","019ceda5-819b-7438-88a7-86093240bd28","019ceda4-7502-7cd5-b642-b8a83a30c71c","","null","<div style=""background-color: white; width: 100vw; height: 100vh;""></div>","null","","","","","","","","","","",""
"","","","","","html-keyboard-response","80","293903","0.0-80.0","D6C205933CD040E9A042F0C275CD4C0D","019ceda5-819b-7438-88a7-86093240bd28","019ceda4-7502-7cd5-b642-b8a83a30c71c","","null","
                <div class=""stimulus-container"">
                    <img src=""images/causal_sequence/coin_causal/coin_causal_1.png"" class=""exp-image"">
                    <div class=""question-area""></div> 
                </div>","null","","","","","","","","","","",""
"","","","","","html-button-response","81","294799","0.0-81.0","D6C205933CD040E9A042F0C275CD4C0D","019ceda5-819b-7438-88a7-86093240bd28","019ceda4-7502-7cd5-b642-b8a83a30c71c","","896","
                <div class=""stimulus-container"">
                    <img src=""images/causal_sequence/coin_causal/coin_causal_1.png"" class=""exp-image"">
                    <div class=""question-area"">
                        <p style=""font-size: 20px; font-weight: bold; margin: 0;"">Is there a person in this image?</p>
                    </div>
                </div>","0","main_experiment_trial","1","coin_causal","causal_sequence","","","","","","",""
"","","","","","html-keyboard-response","82","299802","0.0-82.0","D6C205933CD040E9A042F0C275CD4C0D","019ceda5-819b-7438-88a7-86093240bd28","019ceda4-7502-7cd5-b642-b8a83a30c71c","","null","
                <div class=""stimulus-container"">
                    <img src=""images/causal_sequence/coin_causal/coin_causal_2.png"" class=""exp-image"">
                    <div class=""question-area""></div> 
                </div>","null","","","","","","","","","","",""
"","","","","","html-button-response","83","301256","0.0-83.0","D6C205933CD040E9A042F0C275CD4C0D","019ceda5-819b-7438-88a7-86093240bd28","019ceda4-7502-7cd5-b642-b8a83a30c71c","","1453","
                <div class=""stimulus-container"">
                    <img src=""images/causal_sequence/coin_causal/coin_causal_2.png"" class=""exp-image"">
                    <div class=""question-area"">
                        <p style=""font-size: 20px; font-weight: bold; margin: 0;"">Is there a person in this image?</p>
                    </div>
                </div>","0","main_experiment_trial","2","coin_causal","causal_sequence","","","","","","",""
"","","","","","html-keyboard-response","84","306259","0.0-84.0","D6C205933CD040E9A042F0C275CD4C0D","019ceda5-819b-7438-88a7-86093240bd28","019ceda4-7502-7cd5-b642-b8a83a30c71c","","null","
                <div class=""stimulus-container"">
                    <img src=""images/causal_sequence/coin_causal/coin_causal_3.png"" class=""exp-image"">
                    <div class=""question-area""></div> 
                </div>","null","","","","","","","","","","",""
"","","","","","html-button-response","85","307028","0.0-85.0","D6C205933CD040E9A042F0C275CD4C0D","019ceda5-819b-7438-88a7-86093240bd28","019ceda4-7502-7cd5-b642-b8a83a30c71c","","768","
                <div class=""stimulus-container"">
                    <img src=""images/causal_sequence/coin_causal/coin_causal_3.png"" class=""exp-image"">
                    <div class=""question-area"">
                        <p style=""font-size: 20px; font-weight: bold; margin: 0;"">Is there a person in this image?</p>
                    </div>
                </div>","0","main_experiment_trial","3","coin_causal","causal_sequence","","","","","","",""
"","","","","","html-keyboard-response","86","312031","0.0-86.0","D6C205933CD040E9A042F0C275CD4C0D","019ceda5-819b-7438-88a7-86093240bd28","019ceda4-7502-7cd5-b642-b8a83a30c71c","","null","
                <div class=""stimulus-container"">
                    <img src=""images/causal_sequence/coin_causal/coin_causal_4.png"" class=""exp-image"">
                    <div class=""question-area""></div> 
                </div>","null","","","","","","","","","","",""
"","","","","","html-button-response","87","313138","0.0-87.0","D6C205933CD040E9A042F0C275CD4C0D","019ceda5-819b-7438-88a7-86093240bd28","019ceda4-7502-7cd5-b642-b8a83a30c71c","","1105","
                <div class=""stimulus-container"">
                    <img src=""images/causal_sequence/coin_causal/coin_causal_4.png"" class=""exp-image"">
                    <div class=""question-area"">
                        <p style=""font-size: 20px; font-weight: bold; margin: 0;"">Is there a person in this image?</p>
                    </div>
                </div>","0","main_experiment_trial","4","coin_causal","causal_sequence","","","","","","",""
"","","","","","html-keyboard-response","88","318141","0.0-88.0","D6C205933CD040E9A042F0C275CD4C0D","019ceda5-819b-7438-88a7-86093240bd28","019ceda4-7502-7cd5-b642-b8a83a30c71c","","null","
                <div class=""stimulus-container"">
                    <img src=""images/causal_sequence/coin_causal/coin_causal_5.png"" class=""exp-image"">
                    <div class=""question-area""></div> 
                </div>","null","","","","","","","","","","",""
"","","","","","html-button-response","89","319913","0.0-89.0","D6C205933CD040E9A042F0C275CD4C0D","019ceda5-819b-7438-88a7-86093240bd28","019ceda4-7502-7cd5-b642-b8a83a30c71c","","1771","
                <div class=""stimulus-container"">
                    <img src=""images/causal_sequence/coin_causal/coin_causal_5.png"" class=""exp-image"">
                    <div class=""question-area"">
                        <p style=""font-size: 20px; font-weight: bold; margin: 0;"">Is there a person in this image?</p>
                    </div>
                </div>","0","main_experiment_trial","5","coin_causal","causal_sequence","","","","","","",""
"","","","","","html-keyboard-response","90","324920","0.0-90.0","D6C205933CD040E9A042F0C275CD4C0D","019ceda5-819b-7438-88a7-86093240bd28","019ceda4-7502-7cd5-b642-b8a83a30c71c","","null","
                <div class=""stimulus-container"">
                    <img src=""images/causal_sequence/coin_causal/coin_causal_6.png"" class=""exp-image"">
                    <div class=""question-area""></div> 
                </div>","null","","","","","","","","","","",""
"","","","","","html-button-response","91","326590","0.0-91.0","D6C205933CD040E9A042F0C275CD4C0D","019ceda5-819b-7438-88a7-86093240bd28","019ceda4-7502-7cd5-b642-b8a83a30c71c","","1667","
                <div class=""stimulus-container"">
                    <img src=""images/causal_sequence/coin_causal/coin_causal_6.png"" class=""exp-image"">
                    <div class=""question-area"">
                        <p style=""font-size: 20px; font-weight: bold; margin: 0;"">Is there a person in this image?</p>
                    </div>
                </div>","0","main_experiment_trial","6","coin_causal","causal_sequence","","","","","","",""
"","","","","","html-keyboard-response","92","331596","0.0-92.0","D6C205933CD040E9A042F0C275CD4C0D","019ceda5-819b-7438-88a7-86093240bd28","019ceda4-7502-7cd5-b642-b8a83a30c71c","","null","
                <div class=""stimulus-container"">
                    <img src=""images/causal_sequence/coin_causal/coin_causal_7.png"" class=""exp-image"">
                    <div class=""question-area""></div> 
                </div>","null","","","","","","","","","","",""
"","","","","","html-button-response","93","332369","0.0-93.0","D6C205933CD040E9A042F0C275CD4C0D","019ceda5-819b-7438-88a7-86093240bd28","019ceda4-7502-7cd5-b642-b8a83a30c71c","","772","
                <div class=""stimulus-container"">
                    <img src=""images/causal_sequence/coin_causal/coin_causal_7.png"" class=""exp-image"">
                    <div class=""question-area"">
                        <p style=""font-size: 20px; font-weight: bold; margin: 0;"">Is there a person in this image?</p>
                    </div>
                </div>","1","main_experiment_trial","7","coin_causal","causal_sequence","","","","","","",""
"","","","","","html-keyboard-response","94","337374","0.0-94.0","D6C205933CD040E9A042F0C275CD4C0D","019ceda5-819b-7438-88a7-86093240bd28","019ceda4-7502-7cd5-b642-b8a83a30c71c","","null","
                <div class=""stimulus-container"">
                    <img src=""images/causal_sequence/coin_causal/coin_causal_8.png"" class=""exp-image"">
                    <div class=""question-area""></div> 
                </div>","null","","","","","","","","","","",""
"","","","","","html-button-response","95","338301","0.0-95.0","D6C205933CD040E9A042F0C275CD4C0D","019ceda5-819b-7438-88a7-86093240bd28","019ceda4-7502-7cd5-b642-b8a83a30c71c","","925","
                <div class=""stimulus-container"">
                    <img src=""images/causal_sequence/coin_causal/coin_causal_8.png"" class=""exp-image"">
                    <div class=""question-area"">
                        <p style=""font-size: 20px; font-weight: bold; margin: 0;"">Is there a person in this image?</p>
                    </div>
                </div>","0","main_experiment_trial","8","coin_causal","causal_sequence","","","","","","",""
"","","","","","html-keyboard-response","96","343305","0.0-96.0","D6C205933CD040E9A042F0C275CD4C0D","019ceda5-819b-7438-88a7-86093240bd28","019ceda4-7502-7cd5-b642-b8a83a30c71c","","null","
                <div class=""stimulus-container"">
                    <img src=""images/causal_sequence/coin_causal/coin_causal_9.png"" class=""exp-image"">
                    <div class=""question-area""></div> 
                </div>","null","","","","","","","","","","",""
"","","","","","html-button-response","97","344696","0.0-97.0","D6C205933CD040E9A042F0C275CD4C0D","019ceda5-819b-7438-88a7-86093240bd28","019ceda4-7502-7cd5-b642-b8a83a30c71c","","1389","
                <div class=""stimulus-container"">
                    <img src=""images/causal_sequence/coin_causal/coin_causal_9.png"" class=""exp-image"">
                    <div class=""question-area"">
                        <p style=""font-size: 20px; font-weight: bold; margin: 0;"">Is there a person in this image?</p>
                    </div>
                </div>","0","main_experiment_trial","9","coin_causal","causal_sequence","","","","","","",""
"","","","","","html-keyboard-response","98","349699","0.0-98.0","D6C205933CD040E9A042F0C275CD4C0D","019ceda5-819b-7438-88a7-86093240bd28","019ceda4-7502-7cd5-b642-b8a83a30c71c","","null","
                <div class=""stimulus-container"">
                    <img src=""images/causal_sequence/coin_causal/coin_causal_ten.png"" class=""exp-image"">
                    <div class=""question-area""></div> 
                </div>","null","","","","","","","","","","",""
"","","","","","html-button-response","99","351379","0.0-99.0","D6C205933CD040E9A042F0C275CD4C0D","019ceda5-819b-7438-88a7-86093240bd28","019ceda4-7502-7cd5-b642-b8a83a30c71c","","1678","
                <div class=""stimulus-container"">
                    <img src=""images/causal_sequence/coin_causal/coin_causal_ten.png"" class=""exp-image"">
                    <div class=""question-area"">
                        <p style=""font-size: 20px; font-weight: bold; margin: 0;"">Is there a person in this image?</p>
                    </div>
                </div>","0","main_experiment_trial","ten","coin_causal","causal_sequence","","","","","","",""
"","","","","","html-keyboard-response","100","352382","0.0-100.0","D6C205933CD040E9A042F0C275CD4C0D","019ceda5-819b-7438-88a7-86093240bd28","019ceda4-7502-7cd5-b642-b8a83a30c71c","","null","<div style=""background-color: white; width: 100vw; height: 100vh;""></div>","null","","","","","","","","","","",""
"","","","","","html-keyboard-response","101","357385","0.0-101.0","D6C205933CD040E9A042F0C275CD4C0D","019ceda5-819b-7438-88a7-86093240bd28","019ceda4-7502-7cd5-b642-b8a83a30c71c","","null","
                <div class=""stimulus-container"">
                    <img src=""images/schematic_sequence/interview_scheme/interview_scheme_1.png"" class=""exp-image"">
                    <div class=""question-area""></div> 
                </div>","null","","","","","","","","","","",""
"","","","","","html-button-response","102","359305","0.0-102.0","D6C205933CD040E9A042F0C275CD4C0D","019ceda5-819b-7438-88a7-86093240bd28","019ceda4-7502-7cd5-b642-b8a83a30c71c","","1918","
                <div class=""stimulus-container"">
                    <img src=""images/schematic_sequence/interview_scheme/interview_scheme_1.png"" class=""exp-image"">
                    <div class=""question-area"">
                        <p style=""font-size: 20px; font-weight: bold; margin: 0;"">Is there a person in this image?</p>
                    </div>
                </div>","1","main_experiment_trial","1","interview_scheme","schematic_sequence","","","","","","",""
"","","","","","html-keyboard-response","103","364308","0.0-103.0","D6C205933CD040E9A042F0C275CD4C0D","019ceda5-819b-7438-88a7-86093240bd28","019ceda4-7502-7cd5-b642-b8a83a30c71c","","null","
                <div class=""stimulus-container"">
                    <img src=""images/schematic_sequence/interview_scheme/interview_scheme_2.png"" class=""exp-image"">
                    <div class=""question-area""></div> 
                </div>","null","","","","","","","","","","",""
"","","","","","html-button-response","104","365353","0.0-104.0","D6C205933CD040E9A042F0C275CD4C0D","019ceda5-819b-7438-88a7-86093240bd28","019ceda4-7502-7cd5-b642-b8a83a30c71c","","1043","
                <div class=""stimulus-container"">
                    <img src=""images/schematic_sequence/interview_scheme/interview_scheme_2.png"" class=""exp-image"">
                    <div class=""question-area"">
                        <p style=""font-size: 20px; font-weight: bold; margin: 0;"">Is there a person in this image?</p>
                    </div>
                </div>","0","main_experiment_trial","2","interview_scheme","schematic_sequence","","","","","","",""
"","","","","","html-keyboard-response","105","370356","0.0-105.0","D6C205933CD040E9A042F0C275CD4C0D","019ceda5-819b-7438-88a7-86093240bd28","019ceda4-7502-7cd5-b642-b8a83a30c71c","","null","
                <div class=""stimulus-container"">
                    <img src=""images/schematic_sequence/interview_scheme/interview_scheme_3.png"" class=""exp-image"">
                    <div class=""question-area""></div> 
                </div>","null","","","","","","","","","","",""
"","","","","","html-button-response","106","371669","0.0-106.0","D6C205933CD040E9A042F0C275CD4C0D","019ceda5-819b-7438-88a7-86093240bd28","019ceda4-7502-7cd5-b642-b8a83a30c71c","","1312","
                <div class=""stimulus-container"">
                    <img src=""images/schematic_sequence/interview_scheme/interview_scheme_3.png"" class=""exp-image"">
                    <div class=""question-area"">
                        <p style=""font-size: 20px; font-weight: bold; margin: 0;"">Is there a person in this image?</p>
                    </div>
                </div>","1","main_experiment_trial","3","interview_scheme","schematic_sequence","","","","","","",""
"","","","","","html-keyboard-response","107","376672","0.0-107.0","D6C205933CD040E9A042F0C275CD4C0D","019ceda5-819b-7438-88a7-86093240bd28","019ceda4-7502-7cd5-b642-b8a83a30c71c","","null","
                <div class=""stimulus-container"">
                    <img src=""images/schematic_sequence/interview_scheme/interview_scheme_4.png"" class=""exp-image"">
                    <div class=""question-area""></div> 
                </div>","null","","","","","","","","","","",""
"","","","","","html-button-response","108","378010","0.0-108.0","D6C205933CD040E9A042F0C275CD4C0D","019ceda5-819b-7438-88a7-86093240bd28","019ceda4-7502-7cd5-b642-b8a83a30c71c","","1337","
                <div class=""stimulus-container"">
                    <img src=""images/schematic_sequence/interview_scheme/interview_scheme_4.png"" class=""exp-image"">
                    <div class=""question-area"">
                        <p style=""font-size: 20px; font-weight: bold; margin: 0;"">Is there a person in this image?</p>
                    </div>
                </div>","1","main_experiment_trial","4","interview_scheme","schematic_sequence","","","","","","",""
"","","","","","html-keyboard-response","109","383013","0.0-109.0","D6C205933CD040E9A042F0C275CD4C0D","019ceda5-819b-7438-88a7-86093240bd28","019ceda4-7502-7cd5-b642-b8a83a30c71c","","null","
                <div class=""stimulus-container"">
                    <img src=""images/schematic_sequence/interview_scheme/interview_scheme_5.png"" class=""exp-image"">
                    <div class=""question-area""></div> 
                </div>","null","","","","","","","","","","",""
"","","","","","html-button-response","110","383761","0.0-110.0","D6C205933CD040E9A042F0C275CD4C0D","019ceda5-819b-7438-88a7-86093240bd28","019ceda4-7502-7cd5-b642-b8a83a30c71c","","746","
                <div class=""stimulus-container"">
                    <img src=""images/schematic_sequence/interview_scheme/interview_scheme_5.png"" class=""exp-image"">
                    <div class=""question-area"">
                        <p style=""font-size: 20px; font-weight: bold; margin: 0;"">Is there a person in this image?</p>
                    </div>
                </div>","0","main_experiment_trial","5","interview_scheme","schematic_sequence","","","","","","",""
"","","","","","html-keyboard-response","111","388764","0.0-111.0","D6C205933CD040E9A042F0C275CD4C0D","019ceda5-819b-7438-88a7-86093240bd28","019ceda4-7502-7cd5-b642-b8a83a30c71c","","null","
                <div class=""stimulus-container"">
                    <img src=""images/schematic_sequence/interview_scheme/interview_scheme_6.png"" class=""exp-image"">
                    <div class=""question-area""></div> 
                </div>","null","","","","","","","","","","",""
"","","","","","html-button-response","112","390002","0.0-112.0","D6C205933CD040E9A042F0C275CD4C0D","019ceda5-819b-7438-88a7-86093240bd28","019ceda4-7502-7cd5-b642-b8a83a30c71c","","1237","
                <div class=""stimulus-container"">
                    <img src=""images/schematic_sequence/interview_scheme/interview_scheme_6.png"" class=""exp-image"">
                    <div class=""question-area"">
                        <p style=""font-size: 20px; font-weight: bold; margin: 0;"">Is there a person in this image?</p>
                    </div>
                </div>","0","main_experiment_trial","6","interview_scheme","schematic_sequence","","","","","","",""
"","","","","","html-keyboard-response","113","395005","0.0-113.0","D6C205933CD040E9A042F0C275CD4C0D","019ceda5-819b-7438-88a7-86093240bd28","019ceda4-7502-7cd5-b642-b8a83a30c71c","","null","
                <div class=""stimulus-container"">
                    <img src=""images/schematic_sequence/interview_scheme/interview_scheme_7.png"" class=""exp-image"">
                    <div class=""question-area""></div> 
                </div>","null","","","","","","","","","","",""
"","","","","","html-button-response","114","395955","0.0-114.0","D6C205933CD040E9A042F0C275CD4C0D","019ceda5-819b-7438-88a7-86093240bd28","019ceda4-7502-7cd5-b642-b8a83a30c71c","","949","
                <div class=""stimulus-container"">
                    <img src=""images/schematic_sequence/interview_scheme/interview_scheme_7.png"" class=""exp-image"">
                    <div class=""question-area"">
                        <p style=""font-size: 20px; font-weight: bold; margin: 0;"">Is there a person in this image?</p>
                    </div>
                </div>","0","main_experiment_trial","7","interview_scheme","schematic_sequence","","","","","","",""
"","","","","","html-keyboard-response","115","400958","0.0-115.0","D6C205933CD040E9A042F0C275CD4C0D","019ceda5-819b-7438-88a7-86093240bd28","019ceda4-7502-7cd5-b642-b8a83a30c71c","","null","
                <div class=""stimulus-container"">
                    <img src=""images/schematic_sequence/interview_scheme/interview_scheme_8.png"" class=""exp-image"">
                    <div class=""question-area""></div> 
                </div>","null","","","","","","","","","","",""
"","","","","","html-button-response","116","402470","0.0-116.0","D6C205933CD040E9A042F0C275CD4C0D","019ceda5-819b-7438-88a7-86093240bd28","019ceda4-7502-7cd5-b642-b8a83a30c71c","","1511","
                <div class=""stimulus-container"">
                    <img src=""images/schematic_sequence/interview_scheme/interview_scheme_8.png"" class=""exp-image"">
                    <div class=""question-area"">
                        <p style=""font-size: 20px; font-weight: bold; margin: 0;"">Is there a person in this image?</p>
                    </div>
                </div>","0","main_experiment_trial","8","interview_scheme","schematic_sequence","","","","","","",""
"","","","","","html-keyboard-response","117","407473","0.0-117.0","D6C205933CD040E9A042F0C275CD4C0D","019ceda5-819b-7438-88a7-86093240bd28","019ceda4-7502-7cd5-b642-b8a83a30c71c","","null","
                <div class=""stimulus-container"">
                    <img src=""images/schematic_sequence/interview_scheme/interview_scheme_9.png"" class=""exp-image"">
                    <div class=""question-area""></div> 
                </div>","null","","","","","","","","","","",""
"","","","","","html-button-response","118","407941","0.0-118.0","D6C205933CD040E9A042F0C275CD4C0D","019ceda5-819b-7438-88a7-86093240bd28","019ceda4-7502-7cd5-b642-b8a83a30c71c","","467","
                <div class=""stimulus-container"">
                    <img src=""images/schematic_sequence/interview_scheme/interview_scheme_9.png"" class=""exp-image"">
                    <div class=""question-area"">
                        <p style=""font-size: 20px; font-weight: bold; margin: 0;"">Is there a person in this image?</p>
                    </div>
                </div>","0","main_experiment_trial","9","interview_scheme","schematic_sequence","","","","","","",""
"","","","","","html-keyboard-response","119","412944","0.0-119.0","D6C205933CD040E9A042F0C275CD4C0D","019ceda5-819b-7438-88a7-86093240bd28","019ceda4-7502-7cd5-b642-b8a83a30c71c","","null","
                <div class=""stimulus-container"">
                    <img src=""images/schematic_sequence/interview_scheme/interview_scheme_ten.png"" class=""exp-image"">
                    <div class=""question-area""></div> 
                </div>","null","","","","","","","","","","",""
"","","","","","html-button-response","120","414468","0.0-120.0","D6C205933CD040E9A042F0C275CD4C0D","019ceda5-819b-7438-88a7-86093240bd28","019ceda4-7502-7cd5-b642-b8a83a30c71c","","1523","
                <div class=""stimulus-container"">
                    <img src=""images/schematic_sequence/interview_scheme/interview_scheme_ten.png"" class=""exp-image"">
                    <div class=""question-area"">
                        <p style=""font-size: 20px; font-weight: bold; margin: 0;"">Is there a person in this image?</p>
                    </div>
                </div>","0","main_experiment_trial","ten","interview_scheme","schematic_sequence","","","","","","",""
"","","","","","html-keyboard-response","121","415470","0.0-121.0","D6C205933CD040E9A042F0C275CD4C0D","019ceda5-819b-7438-88a7-86093240bd28","019ceda4-7502-7cd5-b642-b8a83a30c71c","","null","<div style=""background-color: white; width: 100vw; height: 100vh;""></div>","null","","","","","","","","","","",""
"","","","","","html-keyboard-response","122","420474","0.0-122.0","D6C205933CD040E9A042F0C275CD4C0D","019ceda5-819b-7438-88a7-86093240bd28","019ceda4-7502-7cd5-b642-b8a83a30c71c","","null","
                <div class=""stimulus-container"">
                    <img src=""images/causal_sequence/dog_causal/dog_causal_1.png"" class=""exp-image"">
                    <div class=""question-area""></div> 
                </div>","null","","","","","","","","","","",""
"","","","","","html-button-response","123","421402","0.0-123.0","D6C205933CD040E9A042F0C275CD4C0D","019ceda5-819b-7438-88a7-86093240bd28","019ceda4-7502-7cd5-b642-b8a83a30c71c","","927","
                <div class=""stimulus-container"">
                    <img src=""images/causal_sequence/dog_causal/dog_causal_1.png"" class=""exp-image"">
                    <div class=""question-area"">
                        <p style=""font-size: 20px; font-weight: bold; margin: 0;"">Is there a person in this image?</p>
                    </div>
                </div>","0","main_experiment_trial","1","dog_causal","causal_sequence","","","","","","",""
"","","","","","html-keyboard-response","124","426404","0.0-124.0","D6C205933CD040E9A042F0C275CD4C0D","019ceda5-819b-7438-88a7-86093240bd28","019ceda4-7502-7cd5-b642-b8a83a30c71c","","null","
                <div class=""stimulus-container"">
                    <img src=""images/causal_sequence/dog_causal/dog_causal_2.png"" class=""exp-image"">
                    <div class=""question-area""></div> 
                </div>","null","","","","","","","","","","",""
"","","","","","html-button-response","125","427561","0.0-125.0","D6C205933CD040E9A042F0C275CD4C0D","019ceda5-819b-7438-88a7-86093240bd28","019ceda4-7502-7cd5-b642-b8a83a30c71c","","1156","
                <div class=""stimulus-container"">
                    <img src=""images/causal_sequence/dog_causal/dog_causal_2.png"" class=""exp-image"">
                    <div class=""question-area"">
                        <p style=""font-size: 20px; font-weight: bold; margin: 0;"">Is there a person in this image?</p>
                    </div>
                </div>","0","main_experiment_trial","2","dog_causal","causal_sequence","","","","","","",""
"","","","","","html-keyboard-response","126","432563","0.0-126.0","D6C205933CD040E9A042F0C275CD4C0D","019ceda5-819b-7438-88a7-86093240bd28","019ceda4-7502-7cd5-b642-b8a83a30c71c","","null","
                <div class=""stimulus-container"">
                    <img src=""images/causal_sequence/dog_causal/dog_causal_3.png"" class=""exp-image"">
                    <div class=""question-area""></div> 
                </div>","null","","","","","","","","","","",""
"","","","","","html-button-response","127","433929","0.0-127.0","D6C205933CD040E9A042F0C275CD4C0D","019ceda5-819b-7438-88a7-86093240bd28","019ceda4-7502-7cd5-b642-b8a83a30c71c","","1365","
                <div class=""stimulus-container"">
                    <img src=""images/causal_sequence/dog_causal/dog_causal_3.png"" class=""exp-image"">
                    <div class=""question-area"">
                        <p style=""font-size: 20px; font-weight: bold; margin: 0;"">Is there a person in this image?</p>
                    </div>
                </div>","0","main_experiment_trial","3","dog_causal","causal_sequence","","","","","","",""
"","","","","","html-keyboard-response","128","438931","0.0-128.0","D6C205933CD040E9A042F0C275CD4C0D","019ceda5-819b-7438-88a7-86093240bd28","019ceda4-7502-7cd5-b642-b8a83a30c71c","","null","
                <div class=""stimulus-container"">
                    <img src=""images/causal_sequence/dog_causal/dog_causal_4.png"" class=""exp-image"">
                    <div class=""question-area""></div> 
                </div>","null","","","","","","","","","","",""
"","","","","","html-button-response","129","440699","0.0-129.0","D6C205933CD040E9A042F0C275CD4C0D","019ceda5-819b-7438-88a7-86093240bd28","019ceda4-7502-7cd5-b642-b8a83a30c71c","","1766","
                <div class=""stimulus-container"">
                    <img src=""images/causal_sequence/dog_causal/dog_causal_4.png"" class=""exp-image"">
                    <div class=""question-area"">
                        <p style=""font-size: 20px; font-weight: bold; margin: 0;"">Is there a person in this image?</p>
                    </div>
                </div>","0","main_experiment_trial","4","dog_causal","causal_sequence","","","","","","",""
"","","","","","html-keyboard-response","130","445702","0.0-130.0","D6C205933CD040E9A042F0C275CD4C0D","019ceda5-819b-7438-88a7-86093240bd28","019ceda4-7502-7cd5-b642-b8a83a30c71c","","null","
                <div class=""stimulus-container"">
                    <img src=""images/causal_sequence/dog_causal/dog_causal_5.png"" class=""exp-image"">
                    <div class=""question-area""></div> 
                </div>","null","","","","","","","","","","",""
"","","","","","html-button-response","131","448684","0.0-131.0","D6C205933CD040E9A042F0C275CD4C0D","019ceda5-819b-7438-88a7-86093240bd28","019ceda4-7502-7cd5-b642-b8a83a30c71c","","2981","
                <div class=""stimulus-container"">
                    <img src=""images/causal_sequence/dog_causal/dog_causal_5.png"" class=""exp-image"">
                    <div class=""question-area"">
                        <p style=""font-size: 20px; font-weight: bold; margin: 0;"">Is there a person in this image?</p>
                    </div>
                </div>","0","main_experiment_trial","5","dog_causal","causal_sequence","","","","","","",""
"","","","","","html-keyboard-response","132","453687","0.0-132.0","D6C205933CD040E9A042F0C275CD4C0D","019ceda5-819b-7438-88a7-86093240bd28","019ceda4-7502-7cd5-b642-b8a83a30c71c","","null","
                <div class=""stimulus-container"">
                    <img src=""images/causal_sequence/dog_causal/dog_causal_6.png"" class=""exp-image"">
                    <div class=""question-area""></div> 
                </div>","null","","","","","","","","","","",""
"","","","","","html-button-response","133","454794","0.0-133.0","D6C205933CD040E9A042F0C275CD4C0D","019ceda5-819b-7438-88a7-86093240bd28","019ceda4-7502-7cd5-b642-b8a83a30c71c","","1106","
                <div class=""stimulus-container"">
                    <img src=""images/causal_sequence/dog_causal/dog_causal_6.png"" class=""exp-image"">
                    <div class=""question-area"">
                        <p style=""font-size: 20px; font-weight: bold; margin: 0;"">Is there a person in this image?</p>
                    </div>
                </div>","0","main_experiment_trial","6","dog_causal","causal_sequence","","","","","","",""
"","","","","","html-keyboard-response","134","459797","0.0-134.0","D6C205933CD040E9A042F0C275CD4C0D","019ceda5-819b-7438-88a7-86093240bd28","019ceda4-7502-7cd5-b642-b8a83a30c71c","","null","
                <div class=""stimulus-container"">
                    <img src=""images/causal_sequence/dog_causal/dog_causal_7.png"" class=""exp-image"">
                    <div class=""question-area""></div> 
                </div>","null","","","","","","","","","","",""
"","","","","","html-button-response","135","462799","0.0-135.0","D6C205933CD040E9A042F0C275CD4C0D","019ceda5-819b-7438-88a7-86093240bd28","019ceda4-7502-7cd5-b642-b8a83a30c71c","","null","
                <div class=""stimulus-container"">
                    <img src=""images/causal_sequence/dog_causal/dog_causal_7.png"" class=""exp-image"">
                    <div class=""question-area"">
                        <p style=""font-size: 20px; font-weight: bold; margin: 0;"">Is there a person in this image?</p>
                    </div>
                </div>","null","main_experiment_trial","7","dog_causal","causal_sequence","","","","","","",""
"","","","","","html-keyboard-response","136","467801","0.0-136.0","D6C205933CD040E9A042F0C275CD4C0D","019ceda5-819b-7438-88a7-86093240bd28","019ceda4-7502-7cd5-b642-b8a83a30c71c","","null","
                <div class=""stimulus-container"">
                    <img src=""images/causal_sequence/dog_causal/dog_causal_8.png"" class=""exp-image"">
                    <div class=""question-area""></div> 
                </div>","null","","","","","","","","","","",""
"","","","","","html-button-response","137","468288","0.0-137.0","D6C205933CD040E9A042F0C275CD4C0D","019ceda5-819b-7438-88a7-86093240bd28","019ceda4-7502-7cd5-b642-b8a83a30c71c","","486","
                <div class=""stimulus-container"">
                    <img src=""images/causal_sequence/dog_causal/dog_causal_8.png"" class=""exp-image"">
                    <div class=""question-area"">
                        <p style=""font-size: 20px; font-weight: bold; margin: 0;"">Is there a person in this image?</p>
                    </div>
                </div>","0","main_experiment_trial","8","dog_causal","causal_sequence","","","","","","",""
"","","","","","html-keyboard-response","138","473290","0.0-138.0","D6C205933CD040E9A042F0C275CD4C0D","019ceda5-819b-7438-88a7-86093240bd28","019ceda4-7502-7cd5-b642-b8a83a30c71c","","null","
                <div class=""stimulus-container"">
                    <img src=""images/causal_sequence/dog_causal/dog_causal_9.png"" class=""exp-image"">
                    <div class=""question-area""></div> 
                </div>","null","","","","","","","","","","",""
"","","","","","html-button-response","139","474242","0.0-139.0","D6C205933CD040E9A042F0C275CD4C0D","019ceda5-819b-7438-88a7-86093240bd28","019ceda4-7502-7cd5-b642-b8a83a30c71c","","950","
                <div class=""stimulus-container"">
                    <img src=""images/causal_sequence/dog_causal/dog_causal_9.png"" class=""exp-image"">
                    <div class=""question-area"">
                        <p style=""font-size: 20px; font-weight: bold; margin: 0;"">Is there a person in this image?</p>
                    </div>
                </div>","0","main_experiment_trial","9","dog_causal","causal_sequence","","","","","","",""
"","","","","","html-keyboard-response","140","479244","0.0-140.0","D6C205933CD040E9A042F0C275CD4C0D","019ceda5-819b-7438-88a7-86093240bd28","019ceda4-7502-7cd5-b642-b8a83a30c71c","","null","
                <div class=""stimulus-container"">
                    <img src=""images/causal_sequence/dog_causal/dog_causal_ten.png"" class=""exp-image"">
                    <div class=""question-area""></div> 
                </div>","null","","","","","","","","","","",""
"","","","","","html-button-response","141","480106","0.0-141.0","D6C205933CD040E9A042F0C275CD4C0D","019ceda5-819b-7438-88a7-86093240bd28","019ceda4-7502-7cd5-b642-b8a83a30c71c","","861","
                <div class=""stimulus-container"">
                    <img src=""images/causal_sequence/dog_causal/dog_causal_ten.png"" class=""exp-image"">
                    <div class=""question-area"">
                        <p style=""font-size: 20px; font-weight: bold; margin: 0;"">Is there a person in this image?</p>
                    </div>
                </div>","0","main_experiment_trial","ten","dog_causal","causal_sequence","","","","","","",""
"","","","","","html-keyboard-response","142","481108","0.0-142.0","D6C205933CD040E9A042F0C275CD4C0D","019ceda5-819b-7438-88a7-86093240bd28","019ceda4-7502-7cd5-b642-b8a83a30c71c","","null","<div style=""background-color: white; width: 100vw; height: 100vh;""></div>","null","","","","","","","","","","",""
"","","","","","html-keyboard-response","143","486111","0.0-143.0","D6C205933CD040E9A042F0C275CD4C0D","019ceda5-819b-7438-88a7-86093240bd28","019ceda4-7502-7cd5-b642-b8a83a30c71c","","null","
                <div class=""stimulus-container"">
                    <img src=""images/schematic_sequence/restaurant_scheme/restaurant_scheme_1.png"" class=""exp-image"">
                    <div class=""question-area""></div> 
                </div>","null","","","","","","","","","","",""
"","","","","","html-button-response","144","487589","0.0-144.0","D6C205933CD040E9A042F0C275CD4C0D","019ceda5-819b-7438-88a7-86093240bd28","019ceda4-7502-7cd5-b642-b8a83a30c71c","","1476","
                <div class=""stimulus-container"">
                    <img src=""images/schematic_sequence/restaurant_scheme/restaurant_scheme_1.png"" class=""exp-image"">
                    <div class=""question-area"">
                        <p style=""font-size: 20px; font-weight: bold; margin: 0;"">Is there a person in this image?</p>
                    </div>
                </div>","0","main_experiment_trial","1","restaurant_scheme","schematic_sequence","","","","","","",""
"","","","","","html-keyboard-response","145","492591","0.0-145.0","D6C205933CD040E9A042F0C275CD4C0D","019ceda5-819b-7438-88a7-86093240bd28","019ceda4-7502-7cd5-b642-b8a83a30c71c","","null","
                <div class=""stimulus-container"">
                    <img src=""images/schematic_sequence/restaurant_scheme/restaurant_scheme_2.png"" class=""exp-image"">
                    <div class=""question-area""></div> 
                </div>","null","","","","","","","","","","",""
"","","","","","html-button-response","146","493593","0.0-146.0","D6C205933CD040E9A042F0C275CD4C0D","019ceda5-819b-7438-88a7-86093240bd28","019ceda4-7502-7cd5-b642-b8a83a30c71c","","1001","
                <div class=""stimulus-container"">
                    <img src=""images/schematic_sequence/restaurant_scheme/restaurant_scheme_2.png"" class=""exp-image"">
                    <div class=""question-area"">
                        <p style=""font-size: 20px; font-weight: bold; margin: 0;"">Is there a person in this image?</p>
                    </div>
                </div>","1","main_experiment_trial","2","restaurant_scheme","schematic_sequence","","","","","","",""
"","","","","","html-keyboard-response","147","498596","0.0-147.0","D6C205933CD040E9A042F0C275CD4C0D","019ceda5-819b-7438-88a7-86093240bd28","019ceda4-7502-7cd5-b642-b8a83a30c71c","","null","
                <div class=""stimulus-container"">
                    <img src=""images/schematic_sequence/restaurant_scheme/restaurant_scheme_3.png"" class=""exp-image"">
                    <div class=""question-area""></div> 
                </div>","null","","","","","","","","","","",""
"","","","","","html-button-response","148","500044","0.0-148.0","D6C205933CD040E9A042F0C275CD4C0D","019ceda5-819b-7438-88a7-86093240bd28","019ceda4-7502-7cd5-b642-b8a83a30c71c","","1446","
                <div class=""stimulus-container"">
                    <img src=""images/schematic_sequence/restaurant_scheme/restaurant_scheme_3.png"" class=""exp-image"">
                    <div class=""question-area"">
                        <p style=""font-size: 20px; font-weight: bold; margin: 0;"">Is there a person in this image?</p>
                    </div>
                </div>","1","main_experiment_trial","3","restaurant_scheme","schematic_sequence","","","","","","",""
"","","","","","html-keyboard-response","149","505046","0.0-149.0","D6C205933CD040E9A042F0C275CD4C0D","019ceda5-819b-7438-88a7-86093240bd28","019ceda4-7502-7cd5-b642-b8a83a30c71c","","null","
                <div class=""stimulus-container"">
                    <img src=""images/schematic_sequence/restaurant_scheme/restaurant_scheme_4.png"" class=""exp-image"">
                    <div class=""question-area""></div> 
                </div>","null","","","","","","","","","","",""
"","","","","","html-button-response","150","505622","0.0-150.0","D6C205933CD040E9A042F0C275CD4C0D","019ceda5-819b-7438-88a7-86093240bd28","019ceda4-7502-7cd5-b642-b8a83a30c71c","","575","
                <div class=""stimulus-container"">
                    <img src=""images/schematic_sequence/restaurant_scheme/restaurant_scheme_4.png"" class=""exp-image"">
                    <div class=""question-area"">
                        <p style=""font-size: 20px; font-weight: bold; margin: 0;"">Is there a person in this image?</p>
                    </div>
                </div>","0","main_experiment_trial","4","restaurant_scheme","schematic_sequence","","","","","","",""
"","","","","","html-keyboard-response","151","510625","0.0-151.0","D6C205933CD040E9A042F0C275CD4C0D","019ceda5-819b-7438-88a7-86093240bd28","019ceda4-7502-7cd5-b642-b8a83a30c71c","","null","
                <div class=""stimulus-container"">
                    <img src=""images/schematic_sequence/restaurant_scheme/restaurant_scheme_5.png"" class=""exp-image"">
                    <div class=""question-area""></div> 
                </div>","null","","","","","","","","","","",""
"","","","","","html-button-response","152","511546","0.0-152.0","D6C205933CD040E9A042F0C275CD4C0D","019ceda5-819b-7438-88a7-86093240bd28","019ceda4-7502-7cd5-b642-b8a83a30c71c","","920","
                <div class=""stimulus-container"">
                    <img src=""images/schematic_sequence/restaurant_scheme/restaurant_scheme_5.png"" class=""exp-image"">
                    <div class=""question-area"">
                        <p style=""font-size: 20px; font-weight: bold; margin: 0;"">Is there a person in this image?</p>
                    </div>
                </div>","0","main_experiment_trial","5","restaurant_scheme","schematic_sequence","","","","","","",""
"","","","","","html-keyboard-response","153","516549","0.0-153.0","D6C205933CD040E9A042F0C275CD4C0D","019ceda5-819b-7438-88a7-86093240bd28","019ceda4-7502-7cd5-b642-b8a83a30c71c","","null","
                <div class=""stimulus-container"">
                    <img src=""images/schematic_sequence/restaurant_scheme/restaurant_scheme_6.png"" class=""exp-image"">
                    <div class=""question-area""></div> 
                </div>","null","","","","","","","","","","",""
"","","","","","html-button-response","154","517476","0.0-154.0","D6C205933CD040E9A042F0C275CD4C0D","019ceda5-819b-7438-88a7-86093240bd28","019ceda4-7502-7cd5-b642-b8a83a30c71c","","926","
                <div class=""stimulus-container"">
                    <img src=""images/schematic_sequence/restaurant_scheme/restaurant_scheme_6.png"" class=""exp-image"">
                    <div class=""question-area"">
                        <p style=""font-size: 20px; font-weight: bold; margin: 0;"">Is there a person in this image?</p>
                    </div>
                </div>","1","main_experiment_trial","6","restaurant_scheme","schematic_sequence","","","","","","",""
"","","","","","html-keyboard-response","155","522478","0.0-155.0","D6C205933CD040E9A042F0C275CD4C0D","019ceda5-819b-7438-88a7-86093240bd28","019ceda4-7502-7cd5-b642-b8a83a30c71c","","null","
                <div class=""stimulus-container"">
                    <img src=""images/schematic_sequence/restaurant_scheme/restaurant_scheme_7.png"" class=""exp-image"">
                    <div class=""question-area""></div> 
                </div>","null","","","","","","","","","","",""
"","","","","","html-button-response","156","524235","0.0-156.0","D6C205933CD040E9A042F0C275CD4C0D","019ceda5-819b-7438-88a7-86093240bd28","019ceda4-7502-7cd5-b642-b8a83a30c71c","","1756","
                <div class=""stimulus-container"">
                    <img src=""images/schematic_sequence/restaurant_scheme/restaurant_scheme_7.png"" class=""exp-image"">
                    <div class=""question-area"">
                        <p style=""font-size: 20px; font-weight: bold; margin: 0;"">Is there a person in this image?</p>
                    </div>
                </div>","1","main_experiment_trial","7","restaurant_scheme","schematic_sequence","","","","","","",""
"","","","","","html-keyboard-response","157","529238","0.0-157.0","D6C205933CD040E9A042F0C275CD4C0D","019ceda5-819b-7438-88a7-86093240bd28","019ceda4-7502-7cd5-b642-b8a83a30c71c","","null","
                <div class=""stimulus-container"">
                    <img src=""images/schematic_sequence/restaurant_scheme/restaurant_scheme_8.png"" class=""exp-image"">
                    <div class=""question-area""></div> 
                </div>","null","","","","","","","","","","",""
"","","","","","html-button-response","158","529796","0.0-158.0","D6C205933CD040E9A042F0C275CD4C0D","019ceda5-819b-7438-88a7-86093240bd28","019ceda4-7502-7cd5-b642-b8a83a30c71c","","557","
                <div class=""stimulus-container"">
                    <img src=""images/schematic_sequence/restaurant_scheme/restaurant_scheme_8.png"" class=""exp-image"">
                    <div class=""question-area"">
                        <p style=""font-size: 20px; font-weight: bold; margin: 0;"">Is there a person in this image?</p>
                    </div>
                </div>","0","main_experiment_trial","8","restaurant_scheme","schematic_sequence","","","","","","",""
"","","","","","html-keyboard-response","159","534799","0.0-159.0","D6C205933CD040E9A042F0C275CD4C0D","019ceda5-819b-7438-88a7-86093240bd28","019ceda4-7502-7cd5-b642-b8a83a30c71c","","null","
                <div class=""stimulus-container"">
                    <img src=""images/schematic_sequence/restaurant_scheme/restaurant_scheme_9.png"" class=""exp-image"">
                    <div class=""question-area""></div> 
                </div>","null","","","","","","","","","","",""
"","","","","","html-button-response","160","535828","0.0-160.0","D6C205933CD040E9A042F0C275CD4C0D","019ceda5-819b-7438-88a7-86093240bd28","019ceda4-7502-7cd5-b642-b8a83a30c71c","","1028","
                <div class=""stimulus-container"">
                    <img src=""images/schematic_sequence/restaurant_scheme/restaurant_scheme_9.png"" class=""exp-image"">
                    <div class=""question-area"">
                        <p style=""font-size: 20px; font-weight: bold; margin: 0;"">Is there a person in this image?</p>
                    </div>
                </div>","0","main_experiment_trial","9","restaurant_scheme","schematic_sequence","","","","","","",""
"","","","","","html-keyboard-response","161","540832","0.0-161.0","D6C205933CD040E9A042F0C275CD4C0D","019ceda5-819b-7438-88a7-86093240bd28","019ceda4-7502-7cd5-b642-b8a83a30c71c","","null","
                <div class=""stimulus-container"">
                    <img src=""images/schematic_sequence/restaurant_scheme/restaurant_scheme_ten.png"" class=""exp-image"">
                    <div class=""question-area""></div> 
                </div>","null","","","","","","","","","","",""
"","","","","","html-button-response","162","541323","0.0-162.0","D6C205933CD040E9A042F0C275CD4C0D","019ceda5-819b-7438-88a7-86093240bd28","019ceda4-7502-7cd5-b642-b8a83a30c71c","","490","
                <div class=""stimulus-container"">
                    <img src=""images/schematic_sequence/restaurant_scheme/restaurant_scheme_ten.png"" class=""exp-image"">
                    <div class=""question-area"">
                        <p style=""font-size: 20px; font-weight: bold; margin: 0;"">Is there a person in this image?</p>
                    </div>
                </div>","0","main_experiment_trial","ten","restaurant_scheme","schematic_sequence","","","","","","",""
"","","","","","html-keyboard-response","163","542326","0.0-163.0","D6C205933CD040E9A042F0C275CD4C0D","019ceda5-819b-7438-88a7-86093240bd28","019ceda4-7502-7cd5-b642-b8a83a30c71c","","null","<div style=""background-color: white; width: 100vw; height: 100vh;""></div>","null","","","","","","","","","","",""
"","","","","","html-keyboard-response","164","547328","0.0-164.0","D6C205933CD040E9A042F0C275CD4C0D","019ceda5-819b-7438-88a7-86093240bd28","019ceda4-7502-7cd5-b642-b8a83a30c71c","","null","
                <div class=""stimulus-container"">
                    <img src=""images/causal_sequence/package_causal/package_causal_1.png"" class=""exp-image"">
                    <div class=""question-area""></div> 
                </div>","null","","","","","","","","","","",""
"","","","","","html-button-response","165","547889","0.0-165.0","D6C205933CD040E9A042F0C275CD4C0D","019ceda5-819b-7438-88a7-86093240bd28","019ceda4-7502-7cd5-b642-b8a83a30c71c","","561","
                <div class=""stimulus-container"">
                    <img src=""images/causal_sequence/package_causal/package_causal_1.png"" class=""exp-image"">
                    <div class=""question-area"">
                        <p style=""font-size: 20px; font-weight: bold; margin: 0;"">Is there a person in this image?</p>
                    </div>
                </div>","0","main_experiment_trial","1","package_causal","causal_sequence","","","","","","",""
"","","","","","html-keyboard-response","166","552892","0.0-166.0","D6C205933CD040E9A042F0C275CD4C0D","019ceda5-819b-7438-88a7-86093240bd28","019ceda4-7502-7cd5-b642-b8a83a30c71c","","null","
                <div class=""stimulus-container"">
                    <img src=""images/causal_sequence/package_causal/package_causal_2.png"" class=""exp-image"">
                    <div class=""question-area""></div> 
                </div>","null","","","","","","","","","","",""
"","","","","","html-button-response","167","553357","0.0-167.0","D6C205933CD040E9A042F0C275CD4C0D","019ceda5-819b-7438-88a7-86093240bd28","019ceda4-7502-7cd5-b642-b8a83a30c71c","","464","
                <div class=""stimulus-container"">
                    <img src=""images/causal_sequence/package_causal/package_causal_2.png"" class=""exp-image"">
                    <div class=""question-area"">
                        <p style=""font-size: 20px; font-weight: bold; margin: 0;"">Is there a person in this image?</p>
                    </div>
                </div>","0","main_experiment_trial","2","package_causal","causal_sequence","","","","","","",""
"","","","","","html-keyboard-response","168","558359","0.0-168.0","D6C205933CD040E9A042F0C275CD4C0D","019ceda5-819b-7438-88a7-86093240bd28","019ceda4-7502-7cd5-b642-b8a83a30c71c","","null","
                <div class=""stimulus-container"">
                    <img src=""images/causal_sequence/package_causal/package_causal_3.png"" class=""exp-image"">
                    <div class=""question-area""></div> 
                </div>","null","","","","","","","","","","",""
"","","","","","html-button-response","169","559146","0.0-169.0","D6C205933CD040E9A042F0C275CD4C0D","019ceda5-819b-7438-88a7-86093240bd28","019ceda4-7502-7cd5-b642-b8a83a30c71c","","785","
                <div class=""stimulus-container"">
                    <img src=""images/causal_sequence/package_causal/package_causal_3.png"" class=""exp-image"">
                    <div class=""question-area"">
                        <p style=""font-size: 20px; font-weight: bold; margin: 0;"">Is there a person in this image?</p>
                    </div>
                </div>","0","main_experiment_trial","3","package_causal","causal_sequence","","","","","","",""
"","","","","","html-keyboard-response","170","564149","0.0-170.0","D6C205933CD040E9A042F0C275CD4C0D","019ceda5-819b-7438-88a7-86093240bd28","019ceda4-7502-7cd5-b642-b8a83a30c71c","","null","
                <div class=""stimulus-container"">
                    <img src=""images/causal_sequence/package_causal/package_causal_4.png"" class=""exp-image"">
                    <div class=""question-area""></div> 
                </div>","null","","","","","","","","","","",""
"","","","","","html-button-response","171","565234","0.0-171.0","D6C205933CD040E9A042F0C275CD4C0D","019ceda5-819b-7438-88a7-86093240bd28","019ceda4-7502-7cd5-b642-b8a83a30c71c","","1084","
                <div class=""stimulus-container"">
                    <img src=""images/causal_sequence/package_causal/package_causal_4.png"" class=""exp-image"">
                    <div class=""question-area"">
                        <p style=""font-size: 20px; font-weight: bold; margin: 0;"">Is there a person in this image?</p>
                    </div>
                </div>","1","main_experiment_trial","4","package_causal","causal_sequence","","","","","","",""
"","","","","","html-keyboard-response","172","570236","0.0-172.0","D6C205933CD040E9A042F0C275CD4C0D","019ceda5-819b-7438-88a7-86093240bd28","019ceda4-7502-7cd5-b642-b8a83a30c71c","","null","
                <div class=""stimulus-container"">
                    <img src=""images/causal_sequence/package_causal/package_causal_5.png"" class=""exp-image"">
                    <div class=""question-area""></div> 
                </div>","null","","","","","","","","","","",""
"","","","","","html-button-response","173","570989","0.0-173.0","D6C205933CD040E9A042F0C275CD4C0D","019ceda5-819b-7438-88a7-86093240bd28","019ceda4-7502-7cd5-b642-b8a83a30c71c","","752","
                <div class=""stimulus-container"">
                    <img src=""images/causal_sequence/package_causal/package_causal_5.png"" class=""exp-image"">
                    <div class=""question-area"">
                        <p style=""font-size: 20px; font-weight: bold; margin: 0;"">Is there a person in this image?</p>
                    </div>
                </div>","0","main_experiment_trial","5","package_causal","causal_sequence","","","","","","",""
"","","","","","html-keyboard-response","174","575991","0.0-174.0","D6C205933CD040E9A042F0C275CD4C0D","019ceda5-819b-7438-88a7-86093240bd28","019ceda4-7502-7cd5-b642-b8a83a30c71c","","null","
                <div class=""stimulus-container"">
                    <img src=""images/causal_sequence/package_causal/package_causal_6.png"" class=""exp-image"">
                    <div class=""question-area""></div> 
                </div>","null","","","","","","","","","","",""
"","","","","","html-button-response","175","577210","0.0-175.0","D6C205933CD040E9A042F0C275CD4C0D","019ceda5-819b-7438-88a7-86093240bd28","019ceda4-7502-7cd5-b642-b8a83a30c71c","","1218","
                <div class=""stimulus-container"">
                    <img src=""images/causal_sequence/package_causal/package_causal_6.png"" class=""exp-image"">
                    <div class=""question-area"">
                        <p style=""font-size: 20px; font-weight: bold; margin: 0;"">Is there a person in this image?</p>
                    </div>
                </div>","0","main_experiment_trial","6","package_causal","causal_sequence","","","","","","",""
"","","","","","html-keyboard-response","176","582212","0.0-176.0","D6C205933CD040E9A042F0C275CD4C0D","019ceda5-819b-7438-88a7-86093240bd28","019ceda4-7502-7cd5-b642-b8a83a30c71c","","null","
                <div class=""stimulus-container"">
                    <img src=""images/causal_sequence/package_causal/package_causal_7.png"" class=""exp-image"">
                    <div class=""question-area""></div> 
                </div>","null","","","","","","","","","","",""
"","","","","","html-button-response","177","583643","0.0-177.0","D6C205933CD040E9A042F0C275CD4C0D","019ceda5-819b-7438-88a7-86093240bd28","019ceda4-7502-7cd5-b642-b8a83a30c71c","","1430","
                <div class=""stimulus-container"">
                    <img src=""images/causal_sequence/package_causal/package_causal_7.png"" class=""exp-image"">
                    <div class=""question-area"">
                        <p style=""font-size: 20px; font-weight: bold; margin: 0;"">Is there a person in this image?</p>
                    </div>
                </div>","0","main_experiment_trial","7","package_causal","causal_sequence","","","","","","",""
"","","","","","html-keyboard-response","178","588646","0.0-178.0","D6C205933CD040E9A042F0C275CD4C0D","019ceda5-819b-7438-88a7-86093240bd28","019ceda4-7502-7cd5-b642-b8a83a30c71c","","null","
                <div class=""stimulus-container"">
                    <img src=""images/causal_sequence/package_causal/package_causal_8.png"" class=""exp-image"">
                    <div class=""question-area""></div> 
                </div>","null","","","","","","","","","","",""
"","","","","","html-button-response","179","590114","0.0-179.0","D6C205933CD040E9A042F0C275CD4C0D","019ceda5-819b-7438-88a7-86093240bd28","019ceda4-7502-7cd5-b642-b8a83a30c71c","","1467","
                <div class=""stimulus-container"">
                    <img src=""images/causal_sequence/package_causal/package_causal_8.png"" class=""exp-image"">
                    <div class=""question-area"">
                        <p style=""font-size: 20px; font-weight: bold; margin: 0;"">Is there a person in this image?</p>
                    </div>
                </div>","0","main_experiment_trial","8","package_causal","causal_sequence","","","","","","",""
"","","","","","html-keyboard-response","180","595117","0.0-180.0","D6C205933CD040E9A042F0C275CD4C0D","019ceda5-819b-7438-88a7-86093240bd28","019ceda4-7502-7cd5-b642-b8a83a30c71c","","null","
                <div class=""stimulus-container"">
                    <img src=""images/causal_sequence/package_causal/package_causal_9.png"" class=""exp-image"">
                    <div class=""question-area""></div> 
                </div>","null","","","","","","","","","","",""
"","","","","","html-button-response","181","596315","0.0-181.0","D6C205933CD040E9A042F0C275CD4C0D","019ceda5-819b-7438-88a7-86093240bd28","019ceda4-7502-7cd5-b642-b8a83a30c71c","","1197","
                <div class=""stimulus-container"">
                    <img src=""images/causal_sequence/package_causal/package_causal_9.png"" class=""exp-image"">
                    <div class=""question-area"">
                        <p style=""font-size: 20px; font-weight: bold; margin: 0;"">Is there a person in this image?</p>
