"success","timeout","failed_images","failed_audio","failed_video","trial_type","trial_index","time_elapsed","internal_node_id","subject_id","study_id","session_id","view_history","rt","stimulus","response","task","image_index","folder","sequence_type","valuable_image_index","reward_type","chosen_image_index","target_X","correct_choice"
"true","false","[]","[]","[]","preload","0","8200","0.0-0.0","1A1233DEF7974F538C801D5C621AA1F3","019cf86b-3862-7875-b3e4-0ab899a77f71","019cf855-66fc-7d76-a612-8313d2c5c123","","","","","","","","","","","","",""
"","","","","","instructions","1","11331","0.0-1.0","1A1233DEF7974F538C801D5C621AA1F3","019cf86b-3862-7875-b3e4-0ab899a77f71","019cf855-66fc-7d76-a612-8313d2c5c123","[{""page_index"":0,""viewing_time"":3130}]","3131","","","","","","","","","","",""
"","","","","","instructions","2","29541","0.0-2.0","1A1233DEF7974F538C801D5C621AA1F3","019cf86b-3862-7875-b3e4-0ab899a77f71","019cf855-66fc-7d76-a612-8313d2c5c123","[{""page_index"":0,""viewing_time"":18209}]","18209","","","","","","","","","","",""
"true","","","","","fullscreen","3","32644","0.0-3.0","1A1233DEF7974F538C801D5C621AA1F3","019cf86b-3862-7875-b3e4-0ab899a77f71","019cf855-66fc-7d76-a612-8313d2c5c123","","2099","","","","","","","","","","",""
"","","","","","instructions","4","40836","0.0-4.0","1A1233DEF7974F538C801D5C621AA1F3","019cf86b-3862-7875-b3e4-0ab899a77f71","019cf855-66fc-7d76-a612-8313d2c5c123","[{""page_index"":0,""viewing_time"":8190}]","8191","","","","","","","","","","",""
"","","","","","instructions","5","47727","0.0-5.0","1A1233DEF7974F538C801D5C621AA1F3","019cf86b-3862-7875-b3e4-0ab899a77f71","019cf855-66fc-7d76-a612-8313d2c5c123","[{""page_index"":0,""viewing_time"":6890}]","6890","","","","","","","","","","",""
"","","","","","html-keyboard-response","6","51730","0.0-6.0","1A1233DEF7974F538C801D5C621AA1F3","019cf86b-3862-7875-b3e4-0ab899a77f71","019cf855-66fc-7d76-a612-8313d2c5c123","","null","
                <div class=""stimulus-container"">
                    <img src=""images/instructions/movie_1.png"" class=""exp-image"">
                    <div class=""question-area""></div> 
                </div>","null","","","","","","","","",""
"","","","","","html-button-response","7","54651","0.0-7.0","1A1233DEF7974F538C801D5C621AA1F3","019cf86b-3862-7875-b3e4-0ab899a77f71","019cf855-66fc-7d76-a612-8313d2c5c123","","2918","
                <div class=""stimulus-container"">
                    <img src=""images/instructions/movie_1.png"" class=""exp-image"">
                    <div class=""question-area"">
                        <p style=""font-size: 20px; font-weight: bold; margin: 0;"">Was there a person in this image?</p>
                    </div>
                </div>","0","example_question","1","","","","","","",""
"","","","","","html-keyboard-response","8","58654","0.0-8.0","1A1233DEF7974F538C801D5C621AA1F3","019cf86b-3862-7875-b3e4-0ab899a77f71","019cf855-66fc-7d76-a612-8313d2c5c123","","null","
                <div class=""stimulus-container"">
                    <img src=""images/instructions/movie_2.png"" class=""exp-image"">
                    <div class=""question-area""></div> 
                </div>","null","","","","","","","","",""
"","","","","","html-button-response","9","60181","0.0-9.0","1A1233DEF7974F538C801D5C621AA1F3","019cf86b-3862-7875-b3e4-0ab899a77f71","019cf855-66fc-7d76-a612-8313d2c5c123","","1525","
                <div class=""stimulus-container"">
                    <img src=""images/instructions/movie_2.png"" class=""exp-image"">
                    <div class=""question-area"">
                        <p style=""font-size: 20px; font-weight: bold; margin: 0;"">Was there a person in this image?</p>
                    </div>
                </div>","0","example_question","2","","","","","","",""
"","","","","","html-keyboard-response","10","64184","0.0-10.0","1A1233DEF7974F538C801D5C621AA1F3","019cf86b-3862-7875-b3e4-0ab899a77f71","019cf855-66fc-7d76-a612-8313d2c5c123","","null","
                <div class=""stimulus-container"">
                    <img src=""images/instructions/movie_3.png"" class=""exp-image"">
                    <div class=""question-area""></div> 
                </div>","null","","","","","","","","",""
"","","","","","html-button-response","11","65229","0.0-11.0","1A1233DEF7974F538C801D5C621AA1F3","019cf86b-3862-7875-b3e4-0ab899a77f71","019cf855-66fc-7d76-a612-8313d2c5c123","","1043","
                <div class=""stimulus-container"">
                    <img src=""images/instructions/movie_3.png"" class=""exp-image"">
                    <div class=""question-area"">
                        <p style=""font-size: 20px; font-weight: bold; margin: 0;"">Was there a person in this image?</p>
                    </div>
                </div>","0","example_question","3","","","","","","",""
"","","","","","html-keyboard-response","12","69232","0.0-12.0","1A1233DEF7974F538C801D5C621AA1F3","019cf86b-3862-7875-b3e4-0ab899a77f71","019cf855-66fc-7d76-a612-8313d2c5c123","","null","
                <div class=""stimulus-container"">
                    <img src=""images/instructions/movie_4.png"" class=""exp-image"">
                    <div class=""question-area""></div> 
                </div>","null","","","","","","","","",""
"","","","","","html-button-response","13","70137","0.0-13.0","1A1233DEF7974F538C801D5C621AA1F3","019cf86b-3862-7875-b3e4-0ab899a77f71","019cf855-66fc-7d76-a612-8313d2c5c123","","904","
                <div class=""stimulus-container"">
                    <img src=""images/instructions/movie_4.png"" class=""exp-image"">
                    <div class=""question-area"">
                        <p style=""font-size: 20px; font-weight: bold; margin: 0;"">Was there a person in this image?</p>
                    </div>
                </div>","0","example_question","4","","","","","","",""
"","","","","","instructions","14","71877","0.0-14.0","1A1233DEF7974F538C801D5C621AA1F3","019cf86b-3862-7875-b3e4-0ab899a77f71","019cf855-66fc-7d76-a612-8313d2c5c123","[{""page_index"":0,""viewing_time"":1740}]","1740","","","","","","","","","","",""
"","","","","","instructions","15","77094","0.0-15.0","1A1233DEF7974F538C801D5C621AA1F3","019cf86b-3862-7875-b3e4-0ab899a77f71","019cf855-66fc-7d76-a612-8313d2c5c123","[{""page_index"":0,""viewing_time"":5216}]","5216","","","","","","","","","","",""
"","","","","","html-keyboard-response","16","78097","0.0-16.0","1A1233DEF7974F538C801D5C621AA1F3","019cf86b-3862-7875-b3e4-0ab899a77f71","019cf855-66fc-7d76-a612-8313d2c5c123","","null","<div style=""background-color: white; width: 100vw; height: 100vh;""></div>","null","","","","","","","","",""
"","","","","","html-keyboard-response","17","83100","0.0-17.0","1A1233DEF7974F538C801D5C621AA1F3","019cf86b-3862-7875-b3e4-0ab899a77f71","019cf855-66fc-7d76-a612-8313d2c5c123","","null","
                <div class=""stimulus-container"">
                    <img src=""images/schematic_sequence/supermarket_scheme/supermarket_scheme_1.png"" class=""exp-image"">
                    <div class=""question-area""></div> 
                </div>","null","","","","","","","","",""
"","","","","","html-button-response","18","84775","0.0-18.0","1A1233DEF7974F538C801D5C621AA1F3","019cf86b-3862-7875-b3e4-0ab899a77f71","019cf855-66fc-7d76-a612-8313d2c5c123","","1673","
                <div class=""stimulus-container"">
                    <img src=""images/schematic_sequence/supermarket_scheme/supermarket_scheme_1.png"" class=""exp-image"">
                    <div class=""question-area"">
                        <p style=""font-size: 20px; font-weight: bold; margin: 0;"">Is there a person in this image?</p>
                    </div>
                </div>","1","main_experiment_trial","1","supermarket_scheme","schematic_sequence","","","","",""
"","","","","","html-keyboard-response","19","89779","0.0-19.0","1A1233DEF7974F538C801D5C621AA1F3","019cf86b-3862-7875-b3e4-0ab899a77f71","019cf855-66fc-7d76-a612-8313d2c5c123","","null","
                <div class=""stimulus-container"">
                    <img src=""images/schematic_sequence/supermarket_scheme/supermarket_scheme_2.png"" class=""exp-image"">
                    <div class=""question-area""></div> 
                </div>","null","","","","","","","","",""
"","","","","","html-button-response","20","90760","0.0-20.0","1A1233DEF7974F538C801D5C621AA1F3","019cf86b-3862-7875-b3e4-0ab899a77f71","019cf855-66fc-7d76-a612-8313d2c5c123","","980","
                <div class=""stimulus-container"">
                    <img src=""images/schematic_sequence/supermarket_scheme/supermarket_scheme_2.png"" class=""exp-image"">
                    <div class=""question-area"">
                        <p style=""font-size: 20px; font-weight: bold; margin: 0;"">Is there a person in this image?</p>
                    </div>
                </div>","1","main_experiment_trial","2","supermarket_scheme","schematic_sequence","","","","",""
"","","","","","html-keyboard-response","21","95763","0.0-21.0","1A1233DEF7974F538C801D5C621AA1F3","019cf86b-3862-7875-b3e4-0ab899a77f71","019cf855-66fc-7d76-a612-8313d2c5c123","","null","
                <div class=""stimulus-container"">
                    <img src=""images/schematic_sequence/supermarket_scheme/supermarket_scheme_3.png"" class=""exp-image"">
                    <div class=""question-area""></div> 
                </div>","null","","","","","","","","",""
"","","","","","html-button-response","22","97054","0.0-22.0","1A1233DEF7974F538C801D5C621AA1F3","019cf86b-3862-7875-b3e4-0ab899a77f71","019cf855-66fc-7d76-a612-8313d2c5c123","","1289","
                <div class=""stimulus-container"">
                    <img src=""images/schematic_sequence/supermarket_scheme/supermarket_scheme_3.png"" class=""exp-image"">
                    <div class=""question-area"">
                        <p style=""font-size: 20px; font-weight: bold; margin: 0;"">Is there a person in this image?</p>
                    </div>
                </div>","1","main_experiment_trial","3","supermarket_scheme","schematic_sequence","","","","",""
"","","","","","html-keyboard-response","23","102058","0.0-23.0","1A1233DEF7974F538C801D5C621AA1F3","019cf86b-3862-7875-b3e4-0ab899a77f71","019cf855-66fc-7d76-a612-8313d2c5c123","","null","
                <div class=""stimulus-container"">
                    <img src=""images/schematic_sequence/supermarket_scheme/supermarket_scheme_4.png"" class=""exp-image"">
                    <div class=""question-area""></div> 
                </div>","null","","","","","","","","",""
"","","","","","html-button-response","24","103190","0.0-24.0","1A1233DEF7974F538C801D5C621AA1F3","019cf86b-3862-7875-b3e4-0ab899a77f71","019cf855-66fc-7d76-a612-8313d2c5c123","","1130","
                <div class=""stimulus-container"">
                    <img src=""images/schematic_sequence/supermarket_scheme/supermarket_scheme_4.png"" class=""exp-image"">
                    <div class=""question-area"">
                        <p style=""font-size: 20px; font-weight: bold; margin: 0;"">Is there a person in this image?</p>
                    </div>
                </div>","0","main_experiment_trial","4","supermarket_scheme","schematic_sequence","","","","",""
"","","","","","html-keyboard-response","25","108193","0.0-25.0","1A1233DEF7974F538C801D5C621AA1F3","019cf86b-3862-7875-b3e4-0ab899a77f71","019cf855-66fc-7d76-a612-8313d2c5c123","","null","
                <div class=""stimulus-container"">
                    <img src=""images/schematic_sequence/supermarket_scheme/supermarket_scheme_5.png"" class=""exp-image"">
                    <div class=""question-area""></div> 
                </div>","null","","","","","","","","",""
"","","","","","html-button-response","26","109745","0.0-26.0","1A1233DEF7974F538C801D5C621AA1F3","019cf86b-3862-7875-b3e4-0ab899a77f71","019cf855-66fc-7d76-a612-8313d2c5c123","","1551","
                <div class=""stimulus-container"">
                    <img src=""images/schematic_sequence/supermarket_scheme/supermarket_scheme_5.png"" class=""exp-image"">
                    <div class=""question-area"">
                        <p style=""font-size: 20px; font-weight: bold; margin: 0;"">Is there a person in this image?</p>
                    </div>
                </div>","1","main_experiment_trial","5","supermarket_scheme","schematic_sequence","","","","",""
"","","","","","html-keyboard-response","27","114748","0.0-27.0","1A1233DEF7974F538C801D5C621AA1F3","019cf86b-3862-7875-b3e4-0ab899a77f71","019cf855-66fc-7d76-a612-8313d2c5c123","","null","
                <div class=""stimulus-container"">
                    <img src=""images/schematic_sequence/supermarket_scheme/supermarket_scheme_6.png"" class=""exp-image"">
                    <div class=""question-area""></div> 
                </div>","null","","","","","","","","",""
"","","","","","html-button-response","28","115769","0.0-28.0","1A1233DEF7974F538C801D5C621AA1F3","019cf86b-3862-7875-b3e4-0ab899a77f71","019cf855-66fc-7d76-a612-8313d2c5c123","","1020","
                <div class=""stimulus-container"">
                    <img src=""images/schematic_sequence/supermarket_scheme/supermarket_scheme_6.png"" class=""exp-image"">
                    <div class=""question-area"">
                        <p style=""font-size: 20px; font-weight: bold; margin: 0;"">Is there a person in this image?</p>
                    </div>
                </div>","0","main_experiment_trial","6","supermarket_scheme","schematic_sequence","","","","",""
"","","","","","html-keyboard-response","29","120772","0.0-29.0","1A1233DEF7974F538C801D5C621AA1F3","019cf86b-3862-7875-b3e4-0ab899a77f71","019cf855-66fc-7d76-a612-8313d2c5c123","","null","
                <div class=""stimulus-container"">
                    <img src=""images/schematic_sequence/supermarket_scheme/supermarket_scheme_7.png"" class=""exp-image"">
                    <div class=""question-area""></div> 
                </div>","null","","","","","","","","",""
"","","","","","html-button-response","30","122073","0.0-30.0","1A1233DEF7974F538C801D5C621AA1F3","019cf86b-3862-7875-b3e4-0ab899a77f71","019cf855-66fc-7d76-a612-8313d2c5c123","","1300","
                <div class=""stimulus-container"">
                    <img src=""images/schematic_sequence/supermarket_scheme/supermarket_scheme_7.png"" class=""exp-image"">
                    <div class=""question-area"">
                        <p style=""font-size: 20px; font-weight: bold; margin: 0;"">Is there a person in this image?</p>
                    </div>
                </div>","0","main_experiment_trial","7","supermarket_scheme","schematic_sequence","","","","",""
"","","","","","html-keyboard-response","31","127076","0.0-31.0","1A1233DEF7974F538C801D5C621AA1F3","019cf86b-3862-7875-b3e4-0ab899a77f71","019cf855-66fc-7d76-a612-8313d2c5c123","","null","
                <div class=""stimulus-container"">
                    <img src=""images/schematic_sequence/supermarket_scheme/supermarket_scheme_8.png"" class=""exp-image"">
                    <div class=""question-area""></div> 
                </div>","null","","","","","","","","",""
"","","","","","html-button-response","32","128096","0.0-32.0","1A1233DEF7974F538C801D5C621AA1F3","019cf86b-3862-7875-b3e4-0ab899a77f71","019cf855-66fc-7d76-a612-8313d2c5c123","","1019","
                <div class=""stimulus-container"">
                    <img src=""images/schematic_sequence/supermarket_scheme/supermarket_scheme_8.png"" class=""exp-image"">
                    <div class=""question-area"">
                        <p style=""font-size: 20px; font-weight: bold; margin: 0;"">Is there a person in this image?</p>
                    </div>
                </div>","0","main_experiment_trial","8","supermarket_scheme","schematic_sequence","","","","",""
"","","","","","html-keyboard-response","33","133098","0.0-33.0","1A1233DEF7974F538C801D5C621AA1F3","019cf86b-3862-7875-b3e4-0ab899a77f71","019cf855-66fc-7d76-a612-8313d2c5c123","","null","
                <div class=""stimulus-container"">
                    <img src=""images/schematic_sequence/supermarket_scheme/supermarket_scheme_9.png"" class=""exp-image"">
                    <div class=""question-area""></div> 
                </div>","null","","","","","","","","",""
"","","","","","html-button-response","34","134279","0.0-34.0","1A1233DEF7974F538C801D5C621AA1F3","019cf86b-3862-7875-b3e4-0ab899a77f71","019cf855-66fc-7d76-a612-8313d2c5c123","","1180","
                <div class=""stimulus-container"">
                    <img src=""images/schematic_sequence/supermarket_scheme/supermarket_scheme_9.png"" class=""exp-image"">
                    <div class=""question-area"">
                        <p style=""font-size: 20px; font-weight: bold; margin: 0;"">Is there a person in this image?</p>
                    </div>
                </div>","0","main_experiment_trial","9","supermarket_scheme","schematic_sequence","","","","",""
"","","","","","html-keyboard-response","35","139283","0.0-35.0","1A1233DEF7974F538C801D5C621AA1F3","019cf86b-3862-7875-b3e4-0ab899a77f71","019cf855-66fc-7d76-a612-8313d2c5c123","","null","
                <div class=""stimulus-container"">
                    <img src=""images/schematic_sequence/supermarket_scheme/supermarket_scheme_ten.png"" class=""exp-image"">
                    <div class=""question-area""></div> 
                </div>","null","","","","","","","","",""
"","","","","","html-button-response","36","140385","0.0-36.0","1A1233DEF7974F538C801D5C621AA1F3","019cf86b-3862-7875-b3e4-0ab899a77f71","019cf855-66fc-7d76-a612-8313d2c5c123","","1101","
                <div class=""stimulus-container"">
                    <img src=""images/schematic_sequence/supermarket_scheme/supermarket_scheme_ten.png"" class=""exp-image"">
                    <div class=""question-area"">
                        <p style=""font-size: 20px; font-weight: bold; margin: 0;"">Is there a person in this image?</p>
                    </div>
                </div>","1","main_experiment_trial","ten","supermarket_scheme","schematic_sequence","","","","",""
"","","","","","html-keyboard-response","37","141386","0.0-37.0","1A1233DEF7974F538C801D5C621AA1F3","019cf86b-3862-7875-b3e4-0ab899a77f71","019cf855-66fc-7d76-a612-8313d2c5c123","","null","<div style=""background-color: white; width: 100vw; height: 100vh;""></div>","null","","","","","","","","",""
"","","","","","html-keyboard-response","38","146389","0.0-38.0","1A1233DEF7974F538C801D5C621AA1F3","019cf86b-3862-7875-b3e4-0ab899a77f71","019cf855-66fc-7d76-a612-8313d2c5c123","","null","
                <div class=""stimulus-container"">
                    <img src=""images/semantic_sequence/redecorating_a_house_semantic/redecorating_a_house_semantic_1.png"" class=""exp-image"">
                    <div class=""question-area""></div> 
                </div>","null","","","","","","","","",""
"","","","","","html-button-response","39","147294","0.0-39.0","1A1233DEF7974F538C801D5C621AA1F3","019cf86b-3862-7875-b3e4-0ab899a77f71","019cf855-66fc-7d76-a612-8313d2c5c123","","904","
                <div class=""stimulus-container"">
                    <img src=""images/semantic_sequence/redecorating_a_house_semantic/redecorating_a_house_semantic_1.png"" class=""exp-image"">
                    <div class=""question-area"">
                        <p style=""font-size: 20px; font-weight: bold; margin: 0;"">Is there a person in this image?</p>
                    </div>
                </div>","0","main_experiment_trial","1","redecorating_a_house_semantic","semantic_sequence","","","","",""
"","","","","","html-keyboard-response","40","152297","0.0-40.0","1A1233DEF7974F538C801D5C621AA1F3","019cf86b-3862-7875-b3e4-0ab899a77f71","019cf855-66fc-7d76-a612-8313d2c5c123","","null","
                <div class=""stimulus-container"">
                    <img src=""images/semantic_sequence/redecorating_a_house_semantic/redecorating_a_house_semantic_2.png"" class=""exp-image"">
                    <div class=""question-area""></div> 
                </div>","null","","","","","","","","",""
"","","","","","html-button-response","41","153445","0.0-41.0","1A1233DEF7974F538C801D5C621AA1F3","019cf86b-3862-7875-b3e4-0ab899a77f71","019cf855-66fc-7d76-a612-8313d2c5c123","","1147","
                <div class=""stimulus-container"">
                    <img src=""images/semantic_sequence/redecorating_a_house_semantic/redecorating_a_house_semantic_2.png"" class=""exp-image"">
                    <div class=""question-area"">
                        <p style=""font-size: 20px; font-weight: bold; margin: 0;"">Is there a person in this image?</p>
                    </div>
                </div>","0","main_experiment_trial","2","redecorating_a_house_semantic","semantic_sequence","","","","",""
"","","","","","html-keyboard-response","42","158448","0.0-42.0","1A1233DEF7974F538C801D5C621AA1F3","019cf86b-3862-7875-b3e4-0ab899a77f71","019cf855-66fc-7d76-a612-8313d2c5c123","","null","
                <div class=""stimulus-container"">
                    <img src=""images/semantic_sequence/redecorating_a_house_semantic/redecorating_a_house_semantic_3.png"" class=""exp-image"">
                    <div class=""question-area""></div> 
                </div>","null","","","","","","","","",""
"","","","","","html-button-response","43","159650","0.0-43.0","1A1233DEF7974F538C801D5C621AA1F3","019cf86b-3862-7875-b3e4-0ab899a77f71","019cf855-66fc-7d76-a612-8313d2c5c123","","1200","
                <div class=""stimulus-container"">
                    <img src=""images/semantic_sequence/redecorating_a_house_semantic/redecorating_a_house_semantic_3.png"" class=""exp-image"">
                    <div class=""question-area"">
                        <p style=""font-size: 20px; font-weight: bold; margin: 0;"">Is there a person in this image?</p>
                    </div>
                </div>","0","main_experiment_trial","3","redecorating_a_house_semantic","semantic_sequence","","","","",""
"","","","","","html-keyboard-response","44","164653","0.0-44.0","1A1233DEF7974F538C801D5C621AA1F3","019cf86b-3862-7875-b3e4-0ab899a77f71","019cf855-66fc-7d76-a612-8313d2c5c123","","null","
                <div class=""stimulus-container"">
                    <img src=""images/semantic_sequence/redecorating_a_house_semantic/redecorating_a_house_semantic_4.png"" class=""exp-image"">
                    <div class=""question-area""></div> 
                </div>","null","","","","","","","","",""
"","","","","","html-button-response","45","165805","0.0-45.0","1A1233DEF7974F538C801D5C621AA1F3","019cf86b-3862-7875-b3e4-0ab899a77f71","019cf855-66fc-7d76-a612-8313d2c5c123","","1150","
                <div class=""stimulus-container"">
                    <img src=""images/semantic_sequence/redecorating_a_house_semantic/redecorating_a_house_semantic_4.png"" class=""exp-image"">
                    <div class=""question-area"">
                        <p style=""font-size: 20px; font-weight: bold; margin: 0;"">Is there a person in this image?</p>
                    </div>
                </div>","0","main_experiment_trial","4","redecorating_a_house_semantic","semantic_sequence","","","","",""
"","","","","","html-keyboard-response","46","170808","0.0-46.0","1A1233DEF7974F538C801D5C621AA1F3","019cf86b-3862-7875-b3e4-0ab899a77f71","019cf855-66fc-7d76-a612-8313d2c5c123","","null","
                <div class=""stimulus-container"">
                    <img src=""images/semantic_sequence/redecorating_a_house_semantic/redecorating_a_house_semantic_5.png"" class=""exp-image"">
                    <div class=""question-area""></div> 
                </div>","null","","","","","","","","",""
"","","","","","html-button-response","47","171871","0.0-47.0","1A1233DEF7974F538C801D5C621AA1F3","019cf86b-3862-7875-b3e4-0ab899a77f71","019cf855-66fc-7d76-a612-8313d2c5c123","","1061","
                <div class=""stimulus-container"">
                    <img src=""images/semantic_sequence/redecorating_a_house_semantic/redecorating_a_house_semantic_5.png"" class=""exp-image"">
                    <div class=""question-area"">
                        <p style=""font-size: 20px; font-weight: bold; margin: 0;"">Is there a person in this image?</p>
                    </div>
                </div>","0","main_experiment_trial","5","redecorating_a_house_semantic","semantic_sequence","","","","",""
"","","","","","html-keyboard-response","48","176873","0.0-48.0","1A1233DEF7974F538C801D5C621AA1F3","019cf86b-3862-7875-b3e4-0ab899a77f71","019cf855-66fc-7d76-a612-8313d2c5c123","","null","
                <div class=""stimulus-container"">
                    <img src=""images/semantic_sequence/redecorating_a_house_semantic/redecorating_a_house_semantic_6.png"" class=""exp-image"">
                    <div class=""question-area""></div> 
                </div>","null","","","","","","","","",""
"","","","","","html-button-response","49","178181","0.0-49.0","1A1233DEF7974F538C801D5C621AA1F3","019cf86b-3862-7875-b3e4-0ab899a77f71","019cf855-66fc-7d76-a612-8313d2c5c123","","1306","
                <div class=""stimulus-container"">
                    <img src=""images/semantic_sequence/redecorating_a_house_semantic/redecorating_a_house_semantic_6.png"" class=""exp-image"">
                    <div class=""question-area"">
                        <p style=""font-size: 20px; font-weight: bold; margin: 0;"">Is there a person in this image?</p>
                    </div>
                </div>","0","main_experiment_trial","6","redecorating_a_house_semantic","semantic_sequence","","","","",""
"","","","","","html-keyboard-response","50","183184","0.0-50.0","1A1233DEF7974F538C801D5C621AA1F3","019cf86b-3862-7875-b3e4-0ab899a77f71","019cf855-66fc-7d76-a612-8313d2c5c123","","null","
                <div class=""stimulus-container"">
                    <img src=""images/semantic_sequence/redecorating_a_house_semantic/redecorating_a_house_semantic_7.png"" class=""exp-image"">
                    <div class=""question-area""></div> 
                </div>","null","","","","","","","","",""
"","","","","","html-button-response","51","184844","0.0-51.0","1A1233DEF7974F538C801D5C621AA1F3","019cf86b-3862-7875-b3e4-0ab899a77f71","019cf855-66fc-7d76-a612-8313d2c5c123","","1659","
                <div class=""stimulus-container"">
                    <img src=""images/semantic_sequence/redecorating_a_house_semantic/redecorating_a_house_semantic_7.png"" class=""exp-image"">
                    <div class=""question-area"">
                        <p style=""font-size: 20px; font-weight: bold; margin: 0;"">Is there a person in this image?</p>
                    </div>
                </div>","0","main_experiment_trial","7","redecorating_a_house_semantic","semantic_sequence","","","","",""
"","","","","","html-keyboard-response","52","189847","0.0-52.0","1A1233DEF7974F538C801D5C621AA1F3","019cf86b-3862-7875-b3e4-0ab899a77f71","019cf855-66fc-7d76-a612-8313d2c5c123","","null","
                <div class=""stimulus-container"">
                    <img src=""images/semantic_sequence/redecorating_a_house_semantic/redecorating_a_house_semantic_8.png"" class=""exp-image"">
                    <div class=""question-area""></div> 
                </div>","null","","","","","","","","",""
"","","","","","html-button-response","53","191283","0.0-53.0","1A1233DEF7974F538C801D5C621AA1F3","019cf86b-3862-7875-b3e4-0ab899a77f71","019cf855-66fc-7d76-a612-8313d2c5c123","","1435","
                <div class=""stimulus-container"">
                    <img src=""images/semantic_sequence/redecorating_a_house_semantic/redecorating_a_house_semantic_8.png"" class=""exp-image"">
                    <div class=""question-area"">
                        <p style=""font-size: 20px; font-weight: bold; margin: 0;"">Is there a person in this image?</p>
                    </div>
                </div>","0","main_experiment_trial","8","redecorating_a_house_semantic","semantic_sequence","","","","",""
"","","","","","html-keyboard-response","54","196287","0.0-54.0","1A1233DEF7974F538C801D5C621AA1F3","019cf86b-3862-7875-b3e4-0ab899a77f71","019cf855-66fc-7d76-a612-8313d2c5c123","","null","
                <div class=""stimulus-container"">
                    <img src=""images/semantic_sequence/redecorating_a_house_semantic/redecorating_a_house_semantic_9.png"" class=""exp-image"">
                    <div class=""question-area""></div> 
                </div>","null","","","","","","","","",""
"","","","","","html-button-response","55","197287","0.0-55.0","1A1233DEF7974F538C801D5C621AA1F3","019cf86b-3862-7875-b3e4-0ab899a77f71","019cf855-66fc-7d76-a612-8313d2c5c123","","999","
                <div class=""stimulus-container"">
                    <img src=""images/semantic_sequence/redecorating_a_house_semantic/redecorating_a_house_semantic_9.png"" class=""exp-image"">
                    <div class=""question-area"">
                        <p style=""font-size: 20px; font-weight: bold; margin: 0;"">Is there a person in this image?</p>
                    </div>
                </div>","0","main_experiment_trial","9","redecorating_a_house_semantic","semantic_sequence","","","","",""
"","","","","","html-keyboard-response","56","202289","0.0-56.0","1A1233DEF7974F538C801D5C621AA1F3","019cf86b-3862-7875-b3e4-0ab899a77f71","019cf855-66fc-7d76-a612-8313d2c5c123","","null","
                <div class=""stimulus-container"">
                    <img src=""images/semantic_sequence/redecorating_a_house_semantic/redecorating_a_house_semantic_ten.png"" class=""exp-image"">
                    <div class=""question-area""></div> 
                </div>","null","","","","","","","","",""
"","","","","","html-button-response","57","203227","0.0-57.0","1A1233DEF7974F538C801D5C621AA1F3","019cf86b-3862-7875-b3e4-0ab899a77f71","019cf855-66fc-7d76-a612-8313d2c5c123","","937","
                <div class=""stimulus-container"">
                    <img src=""images/semantic_sequence/redecorating_a_house_semantic/redecorating_a_house_semantic_ten.png"" class=""exp-image"">
                    <div class=""question-area"">
                        <p style=""font-size: 20px; font-weight: bold; margin: 0;"">Is there a person in this image?</p>
                    </div>
                </div>","0","main_experiment_trial","ten","redecorating_a_house_semantic","semantic_sequence","","","","",""
"","","","","","html-keyboard-response","58","204230","0.0-58.0","1A1233DEF7974F538C801D5C621AA1F3","019cf86b-3862-7875-b3e4-0ab899a77f71","019cf855-66fc-7d76-a612-8313d2c5c123","","null","<div style=""background-color: white; width: 100vw; height: 100vh;""></div>","null","","","","","","","","",""
"","","","","","html-keyboard-response","59","209233","0.0-59.0","1A1233DEF7974F538C801D5C621AA1F3","019cf86b-3862-7875-b3e4-0ab899a77f71","019cf855-66fc-7d76-a612-8313d2c5c123","","null","
                <div class=""stimulus-container"">
                    <img src=""images/semantic_sequence/exploring_nature_semantic/exploring_nature_semantic_1.png"" class=""exp-image"">
                    <div class=""question-area""></div> 
                </div>","null","","","","","","","","",""
"","","","","","html-button-response","60","210203","0.0-60.0","1A1233DEF7974F538C801D5C621AA1F3","019cf86b-3862-7875-b3e4-0ab899a77f71","019cf855-66fc-7d76-a612-8313d2c5c123","","968","
                <div class=""stimulus-container"">
                    <img src=""images/semantic_sequence/exploring_nature_semantic/exploring_nature_semantic_1.png"" class=""exp-image"">
                    <div class=""question-area"">
                        <p style=""font-size: 20px; font-weight: bold; margin: 0;"">Is there a person in this image?</p>
                    </div>
                </div>","0","main_experiment_trial","1","exploring_nature_semantic","semantic_sequence","","","","",""
"","","","","","html-keyboard-response","61","215205","0.0-61.0","1A1233DEF7974F538C801D5C621AA1F3","019cf86b-3862-7875-b3e4-0ab899a77f71","019cf855-66fc-7d76-a612-8313d2c5c123","","null","
                <div class=""stimulus-container"">
                    <img src=""images/semantic_sequence/exploring_nature_semantic/exploring_nature_semantic_2.png"" class=""exp-image"">
                    <div class=""question-area""></div> 
                </div>","null","","","","","","","","",""
"","","","","","html-button-response","62","216190","0.0-62.0","1A1233DEF7974F538C801D5C621AA1F3","019cf86b-3862-7875-b3e4-0ab899a77f71","019cf855-66fc-7d76-a612-8313d2c5c123","","983","
                <div class=""stimulus-container"">
                    <img src=""images/semantic_sequence/exploring_nature_semantic/exploring_nature_semantic_2.png"" class=""exp-image"">
                    <div class=""question-area"">
                        <p style=""font-size: 20px; font-weight: bold; margin: 0;"">Is there a person in this image?</p>
                    </div>
                </div>","0","main_experiment_trial","2","exploring_nature_semantic","semantic_sequence","","","","",""
"","","","","","html-keyboard-response","63","221192","0.0-63.0","1A1233DEF7974F538C801D5C621AA1F3","019cf86b-3862-7875-b3e4-0ab899a77f71","019cf855-66fc-7d76-a612-8313d2c5c123","","null","
                <div class=""stimulus-container"">
                    <img src=""images/semantic_sequence/exploring_nature_semantic/exploring_nature_semantic_3.png"" class=""exp-image"">
                    <div class=""question-area""></div> 
                </div>","null","","","","","","","","",""
"","","","","","html-button-response","64","221835","0.0-64.0","1A1233DEF7974F538C801D5C621AA1F3","019cf86b-3862-7875-b3e4-0ab899a77f71","019cf855-66fc-7d76-a612-8313d2c5c123","","642","
                <div class=""stimulus-container"">
                    <img src=""images/semantic_sequence/exploring_nature_semantic/exploring_nature_semantic_3.png"" class=""exp-image"">
                    <div class=""question-area"">
                        <p style=""font-size: 20px; font-weight: bold; margin: 0;"">Is there a person in this image?</p>
                    </div>
                </div>","0","main_experiment_trial","3","exploring_nature_semantic","semantic_sequence","","","","",""
"","","","","","html-keyboard-response","65","226837","0.0-65.0","1A1233DEF7974F538C801D5C621AA1F3","019cf86b-3862-7875-b3e4-0ab899a77f71","019cf855-66fc-7d76-a612-8313d2c5c123","","null","
                <div class=""stimulus-container"">
                    <img src=""images/semantic_sequence/exploring_nature_semantic/exploring_nature_semantic_4.png"" class=""exp-image"">
                    <div class=""question-area""></div> 
                </div>","null","","","","","","","","",""
"","","","","","html-button-response","66","227865","0.0-66.0","1A1233DEF7974F538C801D5C621AA1F3","019cf86b-3862-7875-b3e4-0ab899a77f71","019cf855-66fc-7d76-a612-8313d2c5c123","","1026","
                <div class=""stimulus-container"">
                    <img src=""images/semantic_sequence/exploring_nature_semantic/exploring_nature_semantic_4.png"" class=""exp-image"">
                    <div class=""question-area"">
                        <p style=""font-size: 20px; font-weight: bold; margin: 0;"">Is there a person in this image?</p>
                    </div>
                </div>","0","main_experiment_trial","4","exploring_nature_semantic","semantic_sequence","","","","",""
"","","","","","html-keyboard-response","67","232868","0.0-67.0","1A1233DEF7974F538C801D5C621AA1F3","019cf86b-3862-7875-b3e4-0ab899a77f71","019cf855-66fc-7d76-a612-8313d2c5c123","","null","
                <div class=""stimulus-container"">
                    <img src=""images/semantic_sequence/exploring_nature_semantic/exploring_nature_semantic_5.png"" class=""exp-image"">
                    <div class=""question-area""></div> 
                </div>","null","","","","","","","","",""
"","","","","","html-button-response","68","233613","0.0-68.0","1A1233DEF7974F538C801D5C621AA1F3","019cf86b-3862-7875-b3e4-0ab899a77f71","019cf855-66fc-7d76-a612-8313d2c5c123","","743","
                <div class=""stimulus-container"">
                    <img src=""images/semantic_sequence/exploring_nature_semantic/exploring_nature_semantic_5.png"" class=""exp-image"">
                    <div class=""question-area"">
                        <p style=""font-size: 20px; font-weight: bold; margin: 0;"">Is there a person in this image?</p>
                    </div>
                </div>","0","main_experiment_trial","5","exploring_nature_semantic","semantic_sequence","","","","",""
"","","","","","html-keyboard-response","69","238616","0.0-69.0","1A1233DEF7974F538C801D5C621AA1F3","019cf86b-3862-7875-b3e4-0ab899a77f71","019cf855-66fc-7d76-a612-8313d2c5c123","","null","
                <div class=""stimulus-container"">
                    <img src=""images/semantic_sequence/exploring_nature_semantic/exploring_nature_semantic_6.png"" class=""exp-image"">
                    <div class=""question-area""></div> 
                </div>","null","","","","","","","","",""
"","","","","","html-button-response","70","239762","0.0-70.0","1A1233DEF7974F538C801D5C621AA1F3","019cf86b-3862-7875-b3e4-0ab899a77f71","019cf855-66fc-7d76-a612-8313d2c5c123","","1145","
                <div class=""stimulus-container"">
                    <img src=""images/semantic_sequence/exploring_nature_semantic/exploring_nature_semantic_6.png"" class=""exp-image"">
                    <div class=""question-area"">
                        <p style=""font-size: 20px; font-weight: bold; margin: 0;"">Is there a person in this image?</p>
                    </div>
                </div>","0","main_experiment_trial","6","exploring_nature_semantic","semantic_sequence","","","","",""
"","","","","","html-keyboard-response","71","244765","0.0-71.0","1A1233DEF7974F538C801D5C621AA1F3","019cf86b-3862-7875-b3e4-0ab899a77f71","019cf855-66fc-7d76-a612-8313d2c5c123","","null","
                <div class=""stimulus-container"">
                    <img src=""images/semantic_sequence/exploring_nature_semantic/exploring_nature_semantic_7.png"" class=""exp-image"">
                    <div class=""question-area""></div> 
                </div>","null","","","","","","","","",""
"","","","","","html-button-response","72","245700","0.0-72.0","1A1233DEF7974F538C801D5C621AA1F3","019cf86b-3862-7875-b3e4-0ab899a77f71","019cf855-66fc-7d76-a612-8313d2c5c123","","934","
                <div class=""stimulus-container"">
                    <img src=""images/semantic_sequence/exploring_nature_semantic/exploring_nature_semantic_7.png"" class=""exp-image"">
                    <div class=""question-area"">
                        <p style=""font-size: 20px; font-weight: bold; margin: 0;"">Is there a person in this image?</p>
                    </div>
                </div>","0","main_experiment_trial","7","exploring_nature_semantic","semantic_sequence","","","","",""
"","","","","","html-keyboard-response","73","250703","0.0-73.0","1A1233DEF7974F538C801D5C621AA1F3","019cf86b-3862-7875-b3e4-0ab899a77f71","019cf855-66fc-7d76-a612-8313d2c5c123","","null","
                <div class=""stimulus-container"">
                    <img src=""images/semantic_sequence/exploring_nature_semantic/exploring_nature_semantic_8.png"" class=""exp-image"">
                    <div class=""question-area""></div> 
                </div>","null","","","","","","","","",""
"","","","","","html-button-response","74","251480","0.0-74.0","1A1233DEF7974F538C801D5C621AA1F3","019cf86b-3862-7875-b3e4-0ab899a77f71","019cf855-66fc-7d76-a612-8313d2c5c123","","776","
                <div class=""stimulus-container"">
                    <img src=""images/semantic_sequence/exploring_nature_semantic/exploring_nature_semantic_8.png"" class=""exp-image"">
                    <div class=""question-area"">
                        <p style=""font-size: 20px; font-weight: bold; margin: 0;"">Is there a person in this image?</p>
                    </div>
                </div>","0","main_experiment_trial","8","exploring_nature_semantic","semantic_sequence","","","","",""
"","","","","","html-keyboard-response","75","256483","0.0-75.0","1A1233DEF7974F538C801D5C621AA1F3","019cf86b-3862-7875-b3e4-0ab899a77f71","019cf855-66fc-7d76-a612-8313d2c5c123","","null","
                <div class=""stimulus-container"">
                    <img src=""images/semantic_sequence/exploring_nature_semantic/exploring_nature_semantic_9.png"" class=""exp-image"">
                    <div class=""question-area""></div> 
                </div>","null","","","","","","","","",""
"","","","","","html-button-response","76","257582","0.0-76.0","1A1233DEF7974F538C801D5C621AA1F3","019cf86b-3862-7875-b3e4-0ab899a77f71","019cf855-66fc-7d76-a612-8313d2c5c123","","1097","
                <div class=""stimulus-container"">
                    <img src=""images/semantic_sequence/exploring_nature_semantic/exploring_nature_semantic_9.png"" class=""exp-image"">
                    <div class=""question-area"">
                        <p style=""font-size: 20px; font-weight: bold; margin: 0;"">Is there a person in this image?</p>
                    </div>
                </div>","0","main_experiment_trial","9","exploring_nature_semantic","semantic_sequence","","","","",""
"","","","","","html-keyboard-response","77","262585","0.0-77.0","1A1233DEF7974F538C801D5C621AA1F3","019cf86b-3862-7875-b3e4-0ab899a77f71","019cf855-66fc-7d76-a612-8313d2c5c123","","null","
                <div class=""stimulus-container"">
                    <img src=""images/semantic_sequence/exploring_nature_semantic/exploring_nature_semantic_ten.png"" class=""exp-image"">
                    <div class=""question-area""></div> 
                </div>","null","","","","","","","","",""
"","","","","","html-button-response","78","263417","0.0-78.0","1A1233DEF7974F538C801D5C621AA1F3","019cf86b-3862-7875-b3e4-0ab899a77f71","019cf855-66fc-7d76-a612-8313d2c5c123","","831","
                <div class=""stimulus-container"">
                    <img src=""images/semantic_sequence/exploring_nature_semantic/exploring_nature_semantic_ten.png"" class=""exp-image"">
                    <div class=""question-area"">
                        <p style=""font-size: 20px; font-weight: bold; margin: 0;"">Is there a person in this image?</p>
                    </div>
                </div>","0","main_experiment_trial","ten","exploring_nature_semantic","semantic_sequence","","","","",""
"","","","","","html-keyboard-response","79","264420","0.0-79.0","1A1233DEF7974F538C801D5C621AA1F3","019cf86b-3862-7875-b3e4-0ab899a77f71","019cf855-66fc-7d76-a612-8313d2c5c123","","null","<div style=""background-color: white; width: 100vw; height: 100vh;""></div>","null","","","","","","","","",""
"","","","","","html-keyboard-response","80","269423","0.0-80.0","1A1233DEF7974F538C801D5C621AA1F3","019cf86b-3862-7875-b3e4-0ab899a77f71","019cf855-66fc-7d76-a612-8313d2c5c123","","null","
                <div class=""stimulus-container"">
                    <img src=""images/schematic_sequence/flight_scheme/flight_scheme_1.png"" class=""exp-image"">
                    <div class=""question-area""></div> 
                </div>","null","","","","","","","","",""
"","","","","","html-button-response","81","270836","0.0-81.0","1A1233DEF7974F538C801D5C621AA1F3","019cf86b-3862-7875-b3e4-0ab899a77f71","019cf855-66fc-7d76-a612-8313d2c5c123","","1411","
                <div class=""stimulus-container"">
                    <img src=""images/schematic_sequence/flight_scheme/flight_scheme_1.png"" class=""exp-image"">
                    <div class=""question-area"">
                        <p style=""font-size: 20px; font-weight: bold; margin: 0;"">Is there a person in this image?</p>
                    </div>
                </div>","0","main_experiment_trial","1","flight_scheme","schematic_sequence","","","","",""
"","","","","","html-keyboard-response","82","275839","0.0-82.0","1A1233DEF7974F538C801D5C621AA1F3","019cf86b-3862-7875-b3e4-0ab899a77f71","019cf855-66fc-7d76-a612-8313d2c5c123","","null","
                <div class=""stimulus-container"">
                    <img src=""images/schematic_sequence/flight_scheme/flight_scheme_2.png"" class=""exp-image"">
                    <div class=""question-area""></div> 
                </div>","null","","","","","","","","",""
"","","","","","html-button-response","83","277162","0.0-83.0","1A1233DEF7974F538C801D5C621AA1F3","019cf86b-3862-7875-b3e4-0ab899a77f71","019cf855-66fc-7d76-a612-8313d2c5c123","","1322","
                <div class=""stimulus-container"">
                    <img src=""images/schematic_sequence/flight_scheme/flight_scheme_2.png"" class=""exp-image"">
                    <div class=""question-area"">
                        <p style=""font-size: 20px; font-weight: bold; margin: 0;"">Is there a person in this image?</p>
                    </div>
                </div>","1","main_experiment_trial","2","flight_scheme","schematic_sequence","","","","",""
"","","","","","html-keyboard-response","84","282165","0.0-84.0","1A1233DEF7974F538C801D5C621AA1F3","019cf86b-3862-7875-b3e4-0ab899a77f71","019cf855-66fc-7d76-a612-8313d2c5c123","","null","
                <div class=""stimulus-container"">
                    <img src=""images/schematic_sequence/flight_scheme/flight_scheme_3.png"" class=""exp-image"">
                    <div class=""question-area""></div> 
                </div>","null","","","","","","","","",""
"","","","","","html-button-response","85","283232","0.0-85.0","1A1233DEF7974F538C801D5C621AA1F3","019cf86b-3862-7875-b3e4-0ab899a77f71","019cf855-66fc-7d76-a612-8313d2c5c123","","1065","
                <div class=""stimulus-container"">
                    <img src=""images/schematic_sequence/flight_scheme/flight_scheme_3.png"" class=""exp-image"">
                    <div class=""question-area"">
                        <p style=""font-size: 20px; font-weight: bold; margin: 0;"">Is there a person in this image?</p>
                    </div>
                </div>","0","main_experiment_trial","3","flight_scheme","schematic_sequence","","","","",""
"","","","","","html-keyboard-response","86","288235","0.0-86.0","1A1233DEF7974F538C801D5C621AA1F3","019cf86b-3862-7875-b3e4-0ab899a77f71","019cf855-66fc-7d76-a612-8313d2c5c123","","null","
                <div class=""stimulus-container"">
                    <img src=""images/schematic_sequence/flight_scheme/flight_scheme_4.png"" class=""exp-image"">
                    <div class=""question-area""></div> 
                </div>","null","","","","","","","","",""
"","","","","","html-button-response","87","289203","0.0-87.0","1A1233DEF7974F538C801D5C621AA1F3","019cf86b-3862-7875-b3e4-0ab899a77f71","019cf855-66fc-7d76-a612-8313d2c5c123","","967","
                <div class=""stimulus-container"">
                    <img src=""images/schematic_sequence/flight_scheme/flight_scheme_4.png"" class=""exp-image"">
                    <div class=""question-area"">
                        <p style=""font-size: 20px; font-weight: bold; margin: 0;"">Is there a person in this image?</p>
                    </div>
                </div>","0","main_experiment_trial","4","flight_scheme","schematic_sequence","","","","",""
"","","","","","html-keyboard-response","88","294206","0.0-88.0","1A1233DEF7974F538C801D5C621AA1F3","019cf86b-3862-7875-b3e4-0ab899a77f71","019cf855-66fc-7d76-a612-8313d2c5c123","","null","
                <div class=""stimulus-container"">
                    <img src=""images/schematic_sequence/flight_scheme/flight_scheme_5.png"" class=""exp-image"">
                    <div class=""question-area""></div> 
                </div>","null","","","","","","","","",""
"","","","","","html-button-response","89","294788","0.0-89.0","1A1233DEF7974F538C801D5C621AA1F3","019cf86b-3862-7875-b3e4-0ab899a77f71","019cf855-66fc-7d76-a612-8313d2c5c123","","581","
                <div class=""stimulus-container"">
                    <img src=""images/schematic_sequence/flight_scheme/flight_scheme_5.png"" class=""exp-image"">
                    <div class=""question-area"">
                        <p style=""font-size: 20px; font-weight: bold; margin: 0;"">Is there a person in this image?</p>
                    </div>
                </div>","0","main_experiment_trial","5","flight_scheme","schematic_sequence","","","","",""
"","","","","","html-keyboard-response","90","299792","0.0-90.0","1A1233DEF7974F538C801D5C621AA1F3","019cf86b-3862-7875-b3e4-0ab899a77f71","019cf855-66fc-7d76-a612-8313d2c5c123","","null","
                <div class=""stimulus-container"">
                    <img src=""images/schematic_sequence/flight_scheme/flight_scheme_6.png"" class=""exp-image"">
                    <div class=""question-area""></div> 
                </div>","null","","","","","","","","",""
"","","","","","html-button-response","91","300658","0.0-91.0","1A1233DEF7974F538C801D5C621AA1F3","019cf86b-3862-7875-b3e4-0ab899a77f71","019cf855-66fc-7d76-a612-8313d2c5c123","","864","
                <div class=""stimulus-container"">
                    <img src=""images/schematic_sequence/flight_scheme/flight_scheme_6.png"" class=""exp-image"">
                    <div class=""question-area"">
                        <p style=""font-size: 20px; font-weight: bold; margin: 0;"">Is there a person in this image?</p>
                    </div>
                </div>","1","main_experiment_trial","6","flight_scheme","schematic_sequence","","","","",""
"","","","","","html-keyboard-response","92","305660","0.0-92.0","1A1233DEF7974F538C801D5C621AA1F3","019cf86b-3862-7875-b3e4-0ab899a77f71","019cf855-66fc-7d76-a612-8313d2c5c123","","null","
                <div class=""stimulus-container"">
                    <img src=""images/schematic_sequence/flight_scheme/flight_scheme_7.png"" class=""exp-image"">
                    <div class=""question-area""></div> 
                </div>","null","","","","","","","","",""
"","","","","","html-button-response","93","308662","0.0-93.0","1A1233DEF7974F538C801D5C621AA1F3","019cf86b-3862-7875-b3e4-0ab899a77f71","019cf855-66fc-7d76-a612-8313d2c5c123","","null","
                <div class=""stimulus-container"">
                    <img src=""images/schematic_sequence/flight_scheme/flight_scheme_7.png"" class=""exp-image"">
                    <div class=""question-area"">
                        <p style=""font-size: 20px; font-weight: bold; margin: 0;"">Is there a person in this image?</p>
                    </div>
                </div>","null","main_experiment_trial","7","flight_scheme","schematic_sequence","","","","",""
"","","","","","html-keyboard-response","94","313664","0.0-94.0","1A1233DEF7974F538C801D5C621AA1F3","019cf86b-3862-7875-b3e4-0ab899a77f71","019cf855-66fc-7d76-a612-8313d2c5c123","","null","
                <div class=""stimulus-container"">
                    <img src=""images/schematic_sequence/flight_scheme/flight_scheme_8.png"" class=""exp-image"">
                    <div class=""question-area""></div> 
                </div>","null","","","","","","","","",""
"","","","","","html-button-response","95","314414","0.0-95.0","1A1233DEF7974F538C801D5C621AA1F3","019cf86b-3862-7875-b3e4-0ab899a77f71","019cf855-66fc-7d76-a612-8313d2c5c123","","748","
                <div class=""stimulus-container"">
                    <img src=""images/schematic_sequence/flight_scheme/flight_scheme_8.png"" class=""exp-image"">
                    <div class=""question-area"">
                        <p style=""font-size: 20px; font-weight: bold; margin: 0;"">Is there a person in this image?</p>
                    </div>
                </div>","1","main_experiment_trial","8","flight_scheme","schematic_sequence","","","","",""
"","","","","","html-keyboard-response","96","319417","0.0-96.0","1A1233DEF7974F538C801D5C621AA1F3","019cf86b-3862-7875-b3e4-0ab899a77f71","019cf855-66fc-7d76-a612-8313d2c5c123","","null","
                <div class=""stimulus-container"">
                    <img src=""images/schematic_sequence/flight_scheme/flight_scheme_9.png"" class=""exp-image"">
                    <div class=""question-area""></div> 
                </div>","null","","","","","","","","",""
"","","","","","html-button-response","97","320305","0.0-97.0","1A1233DEF7974F538C801D5C621AA1F3","019cf86b-3862-7875-b3e4-0ab899a77f71","019cf855-66fc-7d76-a612-8313d2c5c123","","887","
                <div class=""stimulus-container"">
                    <img src=""images/schematic_sequence/flight_scheme/flight_scheme_9.png"" class=""exp-image"">
                    <div class=""question-area"">
                        <p style=""font-size: 20px; font-weight: bold; margin: 0;"">Is there a person in this image?</p>
                    </div>
                </div>","0","main_experiment_trial","9","flight_scheme","schematic_sequence","","","","",""
"","","","","","html-keyboard-response","98","325308","0.0-98.0","1A1233DEF7974F538C801D5C621AA1F3","019cf86b-3862-7875-b3e4-0ab899a77f71","019cf855-66fc-7d76-a612-8313d2c5c123","","null","
                <div class=""stimulus-container"">
                    <img src=""images/schematic_sequence/flight_scheme/flight_scheme_ten.png"" class=""exp-image"">
                    <div class=""question-area""></div> 
                </div>","null","","","","","","","","",""
"","","","","","html-button-response","99","326286","0.0-99.0","1A1233DEF7974F538C801D5C621AA1F3","019cf86b-3862-7875-b3e4-0ab899a77f71","019cf855-66fc-7d76-a612-8313d2c5c123","","976","
                <div class=""stimulus-container"">
                    <img src=""images/schematic_sequence/flight_scheme/flight_scheme_ten.png"" class=""exp-image"">
                    <div class=""question-area"">
                        <p style=""font-size: 20px; font-weight: bold; margin: 0;"">Is there a person in this image?</p>
                    </div>
                </div>","0","main_experiment_trial","ten","flight_scheme","schematic_sequence","","","","",""
"","","","","","html-keyboard-response","100","327289","0.0-100.0","1A1233DEF7974F538C801D5C621AA1F3","019cf86b-3862-7875-b3e4-0ab899a77f71","019cf855-66fc-7d76-a612-8313d2c5c123","","null","<div style=""background-color: white; width: 100vw; height: 100vh;""></div>","null","","","","","","","","",""
"","","","","","html-keyboard-response","101","332291","0.0-101.0","1A1233DEF7974F538C801D5C621AA1F3","019cf86b-3862-7875-b3e4-0ab899a77f71","019cf855-66fc-7d76-a612-8313d2c5c123","","null","
                <div class=""stimulus-container"">
                    <img src=""images/schematic_sequence/dinner_party_scheme/dinner_party_scheme_1.png"" class=""exp-image"">
                    <div class=""question-area""></div> 
                </div>","null","","","","","","","","",""
"","","","","","html-button-response","102","333190","0.0-102.0","1A1233DEF7974F538C801D5C621AA1F3","019cf86b-3862-7875-b3e4-0ab899a77f71","019cf855-66fc-7d76-a612-8313d2c5c123","","897","
                <div class=""stimulus-container"">
                    <img src=""images/schematic_sequence/dinner_party_scheme/dinner_party_scheme_1.png"" class=""exp-image"">
                    <div class=""question-area"">
                        <p style=""font-size: 20px; font-weight: bold; margin: 0;"">Is there a person in this image?</p>
                    </div>
                </div>","0","main_experiment_trial","1","dinner_party_scheme","schematic_sequence","","","","",""
"","","","","","html-keyboard-response","103","338193","0.0-103.0","1A1233DEF7974F538C801D5C621AA1F3","019cf86b-3862-7875-b3e4-0ab899a77f71","019cf855-66fc-7d76-a612-8313d2c5c123","","null","
                <div class=""stimulus-container"">
                    <img src=""images/schematic_sequence/dinner_party_scheme/dinner_party_scheme_2.png"" class=""exp-image"">
                    <div class=""question-area""></div> 
                </div>","null","","","","","","","","",""
"","","","","","html-button-response","104","339057","0.0-104.0","1A1233DEF7974F538C801D5C621AA1F3","019cf86b-3862-7875-b3e4-0ab899a77f71","019cf855-66fc-7d76-a612-8313d2c5c123","","862","
                <div class=""stimulus-container"">
                    <img src=""images/schematic_sequence/dinner_party_scheme/dinner_party_scheme_2.png"" class=""exp-image"">
                    <div class=""question-area"">
                        <p style=""font-size: 20px; font-weight: bold; margin: 0;"">Is there a person in this image?</p>
                    </div>
                </div>","0","main_experiment_trial","2","dinner_party_scheme","schematic_sequence","","","","",""
"","","","","","html-keyboard-response","105","344061","0.0-105.0","1A1233DEF7974F538C801D5C621AA1F3","019cf86b-3862-7875-b3e4-0ab899a77f71","019cf855-66fc-7d76-a612-8313d2c5c123","","null","
                <div class=""stimulus-container"">
                    <img src=""images/schematic_sequence/dinner_party_scheme/dinner_party_scheme_3.png"" class=""exp-image"">
                    <div class=""question-area""></div> 
                </div>","null","","","","","","","","",""
"","","","","","html-button-response","106","345151","0.0-106.0","1A1233DEF7974F538C801D5C621AA1F3","019cf86b-3862-7875-b3e4-0ab899a77f71","019cf855-66fc-7d76-a612-8313d2c5c123","","1089","
                <div class=""stimulus-container"">
                    <img src=""images/schematic_sequence/dinner_party_scheme/dinner_party_scheme_3.png"" class=""exp-image"">
                    <div class=""question-area"">
                        <p style=""font-size: 20px; font-weight: bold; margin: 0;"">Is there a person in this image?</p>
                    </div>
                </div>","0","main_experiment_trial","3","dinner_party_scheme","schematic_sequence","","","","",""
"","","","","","html-keyboard-response","107","350154","0.0-107.0","1A1233DEF7974F538C801D5C621AA1F3","019cf86b-3862-7875-b3e4-0ab899a77f71","019cf855-66fc-7d76-a612-8313d2c5c123","","null","
                <div class=""stimulus-container"">
                    <img src=""images/schematic_sequence/dinner_party_scheme/dinner_party_scheme_4.png"" class=""exp-image"">
                    <div class=""question-area""></div> 
                </div>","null","","","","","","","","",""
"","","","","","html-button-response","108","350866","0.0-108.0","1A1233DEF7974F538C801D5C621AA1F3","019cf86b-3862-7875-b3e4-0ab899a77f71","019cf855-66fc-7d76-a612-8313d2c5c123","","711","
                <div class=""stimulus-container"">
                    <img src=""images/schematic_sequence/dinner_party_scheme/dinner_party_scheme_4.png"" class=""exp-image"">
                    <div class=""question-area"">
                        <p style=""font-size: 20px; font-weight: bold; margin: 0;"">Is there a person in this image?</p>
                    </div>
                </div>","0","main_experiment_trial","4","dinner_party_scheme","schematic_sequence","","","","",""
"","","","","","html-keyboard-response","109","355869","0.0-109.0","1A1233DEF7974F538C801D5C621AA1F3","019cf86b-3862-7875-b3e4-0ab899a77f71","019cf855-66fc-7d76-a612-8313d2c5c123","","null","
                <div class=""stimulus-container"">
                    <img src=""images/schematic_sequence/dinner_party_scheme/dinner_party_scheme_5.png"" class=""exp-image"">
                    <div class=""question-area""></div> 
                </div>","null","","","","","","","","",""
"","","","","","html-button-response","110","356368","0.0-110.0","1A1233DEF7974F538C801D5C621AA1F3","019cf86b-3862-7875-b3e4-0ab899a77f71","019cf855-66fc-7d76-a612-8313d2c5c123","","497","
                <div class=""stimulus-container"">
                    <img src=""images/schematic_sequence/dinner_party_scheme/dinner_party_scheme_5.png"" class=""exp-image"">
                    <div class=""question-area"">
                        <p style=""font-size: 20px; font-weight: bold; margin: 0;"">Is there a person in this image?</p>
                    </div>
                </div>","0","main_experiment_trial","5","dinner_party_scheme","schematic_sequence","","","","",""
"","","","","","html-keyboard-response","111","361371","0.0-111.0","1A1233DEF7974F538C801D5C621AA1F3","019cf86b-3862-7875-b3e4-0ab899a77f71","019cf855-66fc-7d76-a612-8313d2c5c123","","null","
                <div class=""stimulus-container"">
                    <img src=""images/schematic_sequence/dinner_party_scheme/dinner_party_scheme_6.png"" class=""exp-image"">
                    <div class=""question-area""></div> 
                </div>","null","","","","","","","","",""
"","","","","","html-button-response","112","362020","0.0-112.0","1A1233DEF7974F538C801D5C621AA1F3","019cf86b-3862-7875-b3e4-0ab899a77f71","019cf855-66fc-7d76-a612-8313d2c5c123","","648","
                <div class=""stimulus-container"">
                    <img src=""images/schematic_sequence/dinner_party_scheme/dinner_party_scheme_6.png"" class=""exp-image"">
                    <div class=""question-area"">
                        <p style=""font-size: 20px; font-weight: bold; margin: 0;"">Is there a person in this image?</p>
                    </div>
                </div>","0","main_experiment_trial","6","dinner_party_scheme","schematic_sequence","","","","",""
"","","","","","html-keyboard-response","113","367023","0.0-113.0","1A1233DEF7974F538C801D5C621AA1F3","019cf86b-3862-7875-b3e4-0ab899a77f71","019cf855-66fc-7d76-a612-8313d2c5c123","","null","
                <div class=""stimulus-container"">
                    <img src=""images/schematic_sequence/dinner_party_scheme/dinner_party_scheme_7.png"" class=""exp-image"">
                    <div class=""question-area""></div> 
                </div>","null","","","","","","","","",""
"","","","","","html-button-response","114","367778","0.0-114.0","1A1233DEF7974F538C801D5C621AA1F3","019cf86b-3862-7875-b3e4-0ab899a77f71","019cf855-66fc-7d76-a612-8313d2c5c123","","753","
                <div class=""stimulus-container"">
                    <img src=""images/schematic_sequence/dinner_party_scheme/dinner_party_scheme_7.png"" class=""exp-image"">
                    <div class=""question-area"">
                        <p style=""font-size: 20px; font-weight: bold; margin: 0;"">Is there a person in this image?</p>
                    </div>
                </div>","0","main_experiment_trial","7","dinner_party_scheme","schematic_sequence","","","","",""
"","","","","","html-keyboard-response","115","372781","0.0-115.0","1A1233DEF7974F538C801D5C621AA1F3","019cf86b-3862-7875-b3e4-0ab899a77f71","019cf855-66fc-7d76-a612-8313d2c5c123","","null","
                <div class=""stimulus-container"">
                    <img src=""images/schematic_sequence/dinner_party_scheme/dinner_party_scheme_8.png"" class=""exp-image"">
                    <div class=""question-area""></div> 
                </div>","null","","","","","","","","",""
"","","","","","html-button-response","116","373469","0.0-116.0","1A1233DEF7974F538C801D5C621AA1F3","019cf86b-3862-7875-b3e4-0ab899a77f71","019cf855-66fc-7d76-a612-8313d2c5c123","","687","
                <div class=""stimulus-container"">
                    <img src=""images/schematic_sequence/dinner_party_scheme/dinner_party_scheme_8.png"" class=""exp-image"">
                    <div class=""question-area"">
                        <p style=""font-size: 20px; font-weight: bold; margin: 0;"">Is there a person in this image?</p>
                    </div>
                </div>","0","main_experiment_trial","8","dinner_party_scheme","schematic_sequence","","","","",""
"","","","","","html-keyboard-response","117","378472","0.0-117.0","1A1233DEF7974F538C801D5C621AA1F3","019cf86b-3862-7875-b3e4-0ab899a77f71","019cf855-66fc-7d76-a612-8313d2c5c123","","null","
                <div class=""stimulus-container"">
                    <img src=""images/schematic_sequence/dinner_party_scheme/dinner_party_scheme_9.png"" class=""exp-image"">
                    <div class=""question-area""></div> 
                </div>","null","","","","","","","","",""
"","","","","","html-button-response","118","379283","0.0-118.0","1A1233DEF7974F538C801D5C621AA1F3","019cf86b-3862-7875-b3e4-0ab899a77f71","019cf855-66fc-7d76-a612-8313d2c5c123","","810","
                <div class=""stimulus-container"">
                    <img src=""images/schematic_sequence/dinner_party_scheme/dinner_party_scheme_9.png"" class=""exp-image"">
                    <div class=""question-area"">
                        <p style=""font-size: 20px; font-weight: bold; margin: 0;"">Is there a person in this image?</p>
                    </div>
                </div>","0","main_experiment_trial","9","dinner_party_scheme","schematic_sequence","","","","",""
"","","","","","html-keyboard-response","119","384287","0.0-119.0","1A1233DEF7974F538C801D5C621AA1F3","019cf86b-3862-7875-b3e4-0ab899a77f71","019cf855-66fc-7d76-a612-8313d2c5c123","","null","
                <div class=""stimulus-container"">
                    <img src=""images/schematic_sequence/dinner_party_scheme/dinner_party_scheme_ten.png"" class=""exp-image"">
                    <div class=""question-area""></div> 
                </div>","null","","","","","","","","",""
"","","","","","html-button-response","120","385283","0.0-120.0","1A1233DEF7974F538C801D5C621AA1F3","019cf86b-3862-7875-b3e4-0ab899a77f71","019cf855-66fc-7d76-a612-8313d2c5c123","","995","
                <div class=""stimulus-container"">
                    <img src=""images/schematic_sequence/dinner_party_scheme/dinner_party_scheme_ten.png"" class=""exp-image"">
                    <div class=""question-area"">
                        <p style=""font-size: 20px; font-weight: bold; margin: 0;"">Is there a person in this image?</p>
                    </div>
                </div>","0","main_experiment_trial","ten","dinner_party_scheme","schematic_sequence","","","","",""
"","","","","","html-keyboard-response","121","386286","0.0-121.0","1A1233DEF7974F538C801D5C621AA1F3","019cf86b-3862-7875-b3e4-0ab899a77f71","019cf855-66fc-7d76-a612-8313d2c5c123","","null","<div style=""background-color: white; width: 100vw; height: 100vh;""></div>","null","","","","","","","","",""
"","","","","","html-keyboard-response","122","391289","0.0-122.0","1A1233DEF7974F538C801D5C621AA1F3","019cf86b-3862-7875-b3e4-0ab899a77f71","019cf855-66fc-7d76-a612-8313d2c5c123","","null","
                <div class=""stimulus-container"">
                    <img src=""images/semantic_sequence/using_technology_semantic/using_technology_semantic_1.png"" class=""exp-image"">
                    <div class=""question-area""></div> 
                </div>","null","","","","","","","","",""
"","","","","","html-button-response","123","391980","0.0-123.0","1A1233DEF7974F538C801D5C621AA1F3","019cf86b-3862-7875-b3e4-0ab899a77f71","019cf855-66fc-7d76-a612-8313d2c5c123","","689","
                <div class=""stimulus-container"">
                    <img src=""images/semantic_sequence/using_technology_semantic/using_technology_semantic_1.png"" class=""exp-image"">
                    <div class=""question-area"">
                        <p style=""font-size: 20px; font-weight: bold; margin: 0;"">Is there a person in this image?</p>
                    </div>
                </div>","0","main_experiment_trial","1","using_technology_semantic","semantic_sequence","","","","",""
"","","","","","html-keyboard-response","124","396981","0.0-124.0","1A1233DEF7974F538C801D5C621AA1F3","019cf86b-3862-7875-b3e4-0ab899a77f71","019cf855-66fc-7d76-a612-8313d2c5c123","","null","
                <div class=""stimulus-container"">
                    <img src=""images/semantic_sequence/using_technology_semantic/using_technology_semantic_2.png"" class=""exp-image"">
                    <div class=""question-area""></div> 
                </div>","null","","","","","","","","",""
"","","","","","html-button-response","125","397770","0.0-125.0","1A1233DEF7974F538C801D5C621AA1F3","019cf86b-3862-7875-b3e4-0ab899a77f71","019cf855-66fc-7d76-a612-8313d2c5c123","","787","
                <div class=""stimulus-container"">
                    <img src=""images/semantic_sequence/using_technology_semantic/using_technology_semantic_2.png"" class=""exp-image"">
                    <div class=""question-area"">
                        <p style=""font-size: 20px; font-weight: bold; margin: 0;"">Is there a person in this image?</p>
                    </div>
                </div>","0","main_experiment_trial","2","using_technology_semantic","semantic_sequence","","","","",""
"","","","","","html-keyboard-response","126","402772","0.0-126.0","1A1233DEF7974F538C801D5C621AA1F3","019cf86b-3862-7875-b3e4-0ab899a77f71","019cf855-66fc-7d76-a612-8313d2c5c123","","null","
                <div class=""stimulus-container"">
                    <img src=""images/semantic_sequence/using_technology_semantic/using_technology_semantic_3.png"" class=""exp-image"">
                    <div class=""question-area""></div> 
                </div>","null","","","","","","","","",""
"","","","","","html-button-response","127","403976","0.0-127.0","1A1233DEF7974F538C801D5C621AA1F3","019cf86b-3862-7875-b3e4-0ab899a77f71","019cf855-66fc-7d76-a612-8313d2c5c123","","1202","
                <div class=""stimulus-container"">
                    <img src=""images/semantic_sequence/using_technology_semantic/using_technology_semantic_3.png"" class=""exp-image"">
                    <div class=""question-area"">
                        <p style=""font-size: 20px; font-weight: bold; margin: 0;"">Is there a person in this image?</p>
                    </div>
                </div>","0","main_experiment_trial","3","using_technology_semantic","semantic_sequence","","","","",""
"","","","","","html-keyboard-response","128","408979","0.0-128.0","1A1233DEF7974F538C801D5C621AA1F3","019cf86b-3862-7875-b3e4-0ab899a77f71","019cf855-66fc-7d76-a612-8313d2c5c123","","null","
                <div class=""stimulus-container"">
                    <img src=""images/semantic_sequence/using_technology_semantic/using_technology_semantic_4.png"" class=""exp-image"">
                    <div class=""question-area""></div> 
                </div>","null","","","","","","","","",""
"","","","","","html-button-response","129","409838","0.0-129.0","1A1233DEF7974F538C801D5C621AA1F3","019cf86b-3862-7875-b3e4-0ab899a77f71","019cf855-66fc-7d76-a612-8313d2c5c123","","858","
                <div class=""stimulus-container"">
                    <img src=""images/semantic_sequence/using_technology_semantic/using_technology_semantic_4.png"" class=""exp-image"">
                    <div class=""question-area"">
                        <p style=""font-size: 20px; font-weight: bold; margin: 0;"">Is there a person in this image?</p>
                    </div>
                </div>","0","main_experiment_trial","4","using_technology_semantic","semantic_sequence","","","","",""
"","","","","","html-keyboard-response","130","414841","0.0-130.0","1A1233DEF7974F538C801D5C621AA1F3","019cf86b-3862-7875-b3e4-0ab899a77f71","019cf855-66fc-7d76-a612-8313d2c5c123","","null","
                <div class=""stimulus-container"">
                    <img src=""images/semantic_sequence/using_technology_semantic/using_technology_semantic_5.png"" class=""exp-image"">
                    <div class=""question-area""></div> 
                </div>","null","","","","","","","","",""
"","","","","","html-button-response","131","415692","0.0-131.0","1A1233DEF7974F538C801D5C621AA1F3","019cf86b-3862-7875-b3e4-0ab899a77f71","019cf855-66fc-7d76-a612-8313d2c5c123","","849","
                <div class=""stimulus-container"">
                    <img src=""images/semantic_sequence/using_technology_semantic/using_technology_semantic_5.png"" class=""exp-image"">
                    <div class=""question-area"">
                        <p style=""font-size: 20px; font-weight: bold; margin: 0;"">Is there a person in this image?</p>
                    </div>
                </div>","0","main_experiment_trial","5","using_technology_semantic","semantic_sequence","","","","",""
"","","","","","html-keyboard-response","132","420694","0.0-132.0","1A1233DEF7974F538C801D5C621AA1F3","019cf86b-3862-7875-b3e4-0ab899a77f71","019cf855-66fc-7d76-a612-8313d2c5c123","","null","
                <div class=""stimulus-container"">
                    <img src=""images/semantic_sequence/using_technology_semantic/using_technology_semantic_6.png"" class=""exp-image"">
                    <div class=""question-area""></div> 
                </div>","null","","","","","","","","",""
"","","","","","html-button-response","133","421545","0.0-133.0","1A1233DEF7974F538C801D5C621AA1F3","019cf86b-3862-7875-b3e4-0ab899a77f71","019cf855-66fc-7d76-a612-8313d2c5c123","","849","
                <div class=""stimulus-container"">
                    <img src=""images/semantic_sequence/using_technology_semantic/using_technology_semantic_6.png"" class=""exp-image"">
                    <div class=""question-area"">
                        <p style=""font-size: 20px; font-weight: bold; margin: 0;"">Is there a person in this image?</p>
                    </div>
                </div>","0","main_experiment_trial","6","using_technology_semantic","semantic_sequence","","","","",""
"","","","","","html-keyboard-response","134","426547","0.0-134.0","1A1233DEF7974F538C801D5C621AA1F3","019cf86b-3862-7875-b3e4-0ab899a77f71","019cf855-66fc-7d76-a612-8313d2c5c123","","null","
                <div class=""stimulus-container"">
                    <img src=""images/semantic_sequence/using_technology_semantic/using_technology_semantic_7.png"" class=""exp-image"">
                    <div class=""question-area""></div> 
                </div>","null","","","","","","","","",""
"","","","","","html-button-response","135","427239","0.0-135.0","1A1233DEF7974F538C801D5C621AA1F3","019cf86b-3862-7875-b3e4-0ab899a77f71","019cf855-66fc-7d76-a612-8313d2c5c123","","690","
                <div class=""stimulus-container"">
                    <img src=""images/semantic_sequence/using_technology_semantic/using_technology_semantic_7.png"" class=""exp-image"">
                    <div class=""question-area"">
                        <p style=""font-size: 20px; font-weight: bold; margin: 0;"">Is there a person in this image?</p>
                    </div>
                </div>","0","main_experiment_trial","7","using_technology_semantic","semantic_sequence","","","","",""
"","","","","","html-keyboard-response","136","432242","0.0-136.0","1A1233DEF7974F538C801D5C621AA1F3","019cf86b-3862-7875-b3e4-0ab899a77f71","019cf855-66fc-7d76-a612-8313d2c5c123","","null","
                <div class=""stimulus-container"">
                    <img src=""images/semantic_sequence/using_technology_semantic/using_technology_semantic_8.png"" class=""exp-image"">
                    <div class=""question-area""></div> 
                </div>","null","","","","","","","","",""
"","","","","","html-button-response","137","433196","0.0-137.0","1A1233DEF7974F538C801D5C621AA1F3","019cf86b-3862-7875-b3e4-0ab899a77f71","019cf855-66fc-7d76-a612-8313d2c5c123","","952","
                <div class=""stimulus-container"">
                    <img src=""images/semantic_sequence/using_technology_semantic/using_technology_semantic_8.png"" class=""exp-image"">
                    <div class=""question-area"">
                        <p style=""font-size: 20px; font-weight: bold; margin: 0;"">Is there a person in this image?</p>
                    </div>
                </div>","0","main_experiment_trial","8","using_technology_semantic","semantic_sequence","","","","",""
"","","","","","html-keyboard-response","138","438199","0.0-138.0","1A1233DEF7974F538C801D5C621AA1F3","019cf86b-3862-7875-b3e4-0ab899a77f71","019cf855-66fc-7d76-a612-8313d2c5c123","","null","
                <div class=""stimulus-container"">
                    <img src=""images/semantic_sequence/using_technology_semantic/using_technology_semantic_9.png"" class=""exp-image"">
                    <div class=""question-area""></div> 
                </div>","null","","","","","","","","",""
"","","","","","html-button-response","139","439153","0.0-139.0","1A1233DEF7974F538C801D5C621AA1F3","019cf86b-3862-7875-b3e4-0ab899a77f71","019cf855-66fc-7d76-a612-8313d2c5c123","","953","
                <div class=""stimulus-container"">
                    <img src=""images/semantic_sequence/using_technology_semantic/using_technology_semantic_9.png"" class=""exp-image"">
                    <div class=""question-area"">
                        <p style=""font-size: 20px; font-weight: bold; margin: 0;"">Is there a person in this image?</p>
                    </div>
                </div>","0","main_experiment_trial","9","using_technology_semantic","semantic_sequence","","","","",""
"","","","","","html-keyboard-response","140","444156","0.0-140.0","1A1233DEF7974F538C801D5C621AA1F3","019cf86b-3862-7875-b3e4-0ab899a77f71","019cf855-66fc-7d76-a612-8313d2c5c123","","null","
                <div class=""stimulus-container"">
                    <img src=""images/semantic_sequence/using_technology_semantic/using_technology_semantic_ten.png"" class=""exp-image"">
                    <div class=""question-area""></div> 
                </div>","null","","","","","","","","",""
"","","","","","html-button-response","141","444622","0.0-141.0","1A1233DEF7974F538C801D5C621AA1F3","019cf86b-3862-7875-b3e4-0ab899a77f71","019cf855-66fc-7d76-a612-8313d2c5c123","","465","
                <div class=""stimulus-container"">
                    <img src=""images/semantic_sequence/using_technology_semantic/using_technology_semantic_ten.png"" class=""exp-image"">
                    <div class=""question-area"">
                        <p style=""font-size: 20px; font-weight: bold; margin: 0;"">Is there a person in this image?</p>
                    </div>
                </div>","0","main_experiment_trial","ten","using_technology_semantic","semantic_sequence","","","","",""
"","","","","","html-keyboard-response","142","445624","0.0-142.0","1A1233DEF7974F538C801D5C621AA1F3","019cf86b-3862-7875-b3e4-0ab899a77f71","019cf855-66fc-7d76-a612-8313d2c5c123","","null","<div style=""background-color: white; width: 100vw; height: 100vh;""></div>","null","","","","","","","","",""
"","","","","","html-keyboard-response","143","450627","0.0-143.0","1A1233DEF7974F538C801D5C621AA1F3","019cf86b-3862-7875-b3e4-0ab899a77f71","019cf855-66fc-7d76-a612-8313d2c5c123","","null","
                <div class=""stimulus-container"">
                    <img src=""images/semantic_sequence/cat_care_semantic/cat_care_semantic_1.png"" class=""exp-image"">
                    <div class=""question-area""></div> 
                </div>","null","","","","","","","","",""
"","","","","","html-button-response","144","451534","0.0-144.0","1A1233DEF7974F538C801D5C621AA1F3","019cf86b-3862-7875-b3e4-0ab899a77f71","019cf855-66fc-7d76-a612-8313d2c5c123","","906","
                <div class=""stimulus-container"">
                    <img src=""images/semantic_sequence/cat_care_semantic/cat_care_semantic_1.png"" class=""exp-image"">
                    <div class=""question-area"">
                        <p style=""font-size: 20px; font-weight: bold; margin: 0;"">Is there a person in this image?</p>
                    </div>
                </div>","0","main_experiment_trial","1","cat_care_semantic","semantic_sequence","","","","",""
"","","","","","html-keyboard-response","145","456537","0.0-145.0","1A1233DEF7974F538C801D5C621AA1F3","019cf86b-3862-7875-b3e4-0ab899a77f71","019cf855-66fc-7d76-a612-8313d2c5c123","","null","
                <div class=""stimulus-container"">
                    <img src=""images/semantic_sequence/cat_care_semantic/cat_care_semantic_2.png"" class=""exp-image"">
                    <div class=""question-area""></div> 
                </div>","null","","","","","","","","",""
"","","","","","html-button-response","146","457235","0.0-146.0","1A1233DEF7974F538C801D5C621AA1F3","019cf86b-3862-7875-b3e4-0ab899a77f71","019cf855-66fc-7d76-a612-8313d2c5c123","","697","
                <div class=""stimulus-container"">
                    <img src=""images/semantic_sequence/cat_care_semantic/cat_care_semantic_2.png"" class=""exp-image"">
                    <div class=""question-area"">
                        <p style=""font-size: 20px; font-weight: bold; margin: 0;"">Is there a person in this image?</p>
                    </div>
                </div>","0","main_experiment_trial","2","cat_care_semantic","semantic_sequence","","","","",""
"","","","","","html-keyboard-response","147","462238","0.0-147.0","1A1233DEF7974F538C801D5C621AA1F3","019cf86b-3862-7875-b3e4-0ab899a77f71","019cf855-66fc-7d76-a612-8313d2c5c123","","null","
                <div class=""stimulus-container"">
                    <img src=""images/semantic_sequence/cat_care_semantic/cat_care_semantic_3.png"" class=""exp-image"">
                    <div class=""question-area""></div> 
                </div>","null","","","","","","","","",""
"","","","","","html-button-response","148","463452","0.0-148.0","1A1233DEF7974F538C801D5C621AA1F3","019cf86b-3862-7875-b3e4-0ab899a77f71","019cf855-66fc-7d76-a612-8313d2c5c123","","1213","
                <div class=""stimulus-container"">
                    <img src=""images/semantic_sequence/cat_care_semantic/cat_care_semantic_3.png"" class=""exp-image"">
                    <div class=""question-area"">
                        <p style=""font-size: 20px; font-weight: bold; margin: 0;"">Is there a person in this image?</p>
                    </div>
                </div>","0","main_experiment_trial","3","cat_care_semantic","semantic_sequence","","","","",""
"","","","","","html-keyboard-response","149","468455","0.0-149.0","1A1233DEF7974F538C801D5C621AA1F3","019cf86b-3862-7875-b3e4-0ab899a77f71","019cf855-66fc-7d76-a612-8313d2c5c123","","null","
                <div class=""stimulus-container"">
                    <img src=""images/semantic_sequence/cat_care_semantic/cat_care_semantic_4.png"" class=""exp-image"">
                    <div class=""question-area""></div> 
                </div>","null","","","","","","","","",""
"","","","","","html-button-response","150","469406","0.0-150.0","1A1233DEF7974F538C801D5C621AA1F3","019cf86b-3862-7875-b3e4-0ab899a77f71","019cf855-66fc-7d76-a612-8313d2c5c123","","949","
                <div class=""stimulus-container"">
                    <img src=""images/semantic_sequence/cat_care_semantic/cat_care_semantic_4.png"" class=""exp-image"">
                    <div class=""question-area"">
                        <p style=""font-size: 20px; font-weight: bold; margin: 0;"">Is there a person in this image?</p>
                    </div>
                </div>","0","main_experiment_trial","4","cat_care_semantic","semantic_sequence","","","","",""
"","","","","","html-keyboard-response","151","474408","0.0-151.0","1A1233DEF7974F538C801D5C621AA1F3","019cf86b-3862-7875-b3e4-0ab899a77f71","019cf855-66fc-7d76-a612-8313d2c5c123","","null","
                <div class=""stimulus-container"">
                    <img src=""images/semantic_sequence/cat_care_semantic/cat_care_semantic_5.png"" class=""exp-image"">
                    <div class=""question-area""></div> 
                </div>","null","","","","","","","","",""
"","","","","","html-button-response","152","475227","0.0-152.0","1A1233DEF7974F538C801D5C621AA1F3","019cf86b-3862-7875-b3e4-0ab899a77f71","019cf855-66fc-7d76-a612-8313d2c5c123","","818","
                <div class=""stimulus-container"">
                    <img src=""images/semantic_sequence/cat_care_semantic/cat_care_semantic_5.png"" class=""exp-image"">
                    <div class=""question-area"">
                        <p style=""font-size: 20px; font-weight: bold; margin: 0;"">Is there a person in this image?</p>
                    </div>
                </div>","0","main_experiment_trial","5","cat_care_semantic","semantic_sequence","","","","",""
"","","","","","html-keyboard-response","153","480230","0.0-153.0","1A1233DEF7974F538C801D5C621AA1F3","019cf86b-3862-7875-b3e4-0ab899a77f71","019cf855-66fc-7d76-a612-8313d2c5c123","","null","
                <div class=""stimulus-container"">
                    <img src=""images/semantic_sequence/cat_care_semantic/cat_care_semantic_6.png"" class=""exp-image"">
                    <div class=""question-area""></div> 
                </div>","null","","","","","","","","",""
"","","","","","html-button-response","154","481059","0.0-154.0","1A1233DEF7974F538C801D5C621AA1F3","019cf86b-3862-7875-b3e4-0ab899a77f71","019cf855-66fc-7d76-a612-8313d2c5c123","","827","
                <div class=""stimulus-container"">
                    <img src=""images/semantic_sequence/cat_care_semantic/cat_care_semantic_6.png"" class=""exp-image"">
                    <div class=""question-area"">
                        <p style=""font-size: 20px; font-weight: bold; margin: 0;"">Is there a person in this image?</p>
                    </div>
                </div>","0","main_experiment_trial","6","cat_care_semantic","semantic_sequence","","","","",""
"","","","","","html-keyboard-response","155","486062","0.0-155.0","1A1233DEF7974F538C801D5C621AA1F3","019cf86b-3862-7875-b3e4-0ab899a77f71","019cf855-66fc-7d76-a612-8313d2c5c123","","null","
                <div class=""stimulus-container"">
                    <img src=""images/semantic_sequence/cat_care_semantic/cat_care_semantic_7.png"" class=""exp-image"">
                    <div class=""question-area""></div> 
                </div>","null","","","","","","","","",""
"","","","","","html-button-response","156","487076","0.0-156.0","1A1233DEF7974F538C801D5C621AA1F3","019cf86b-3862-7875-b3e4-0ab899a77f71","019cf855-66fc-7d76-a612-8313d2c5c123","","1013","
                <div class=""stimulus-container"">
                    <img src=""images/semantic_sequence/cat_care_semantic/cat_care_semantic_7.png"" class=""exp-image"">
                    <div class=""question-area"">
                        <p style=""font-size: 20px; font-weight: bold; margin: 0;"">Is there a person in this image?</p>
                    </div>
                </div>","0","main_experiment_trial","7","cat_care_semantic","semantic_sequence","","","","",""
"","","","","","html-keyboard-response","157","492079","0.0-157.0","1A1233DEF7974F538C801D5C621AA1F3","019cf86b-3862-7875-b3e4-0ab899a77f71","019cf855-66fc-7d76-a612-8313d2c5c123","","null","
                <div class=""stimulus-container"">
                    <img src=""images/semantic_sequence/cat_care_semantic/cat_care_semantic_8.png"" class=""exp-image"">
                    <div class=""question-area""></div> 
                </div>","null","","","","","","","","",""
"","","","","","html-button-response","158","493209","0.0-158.0","1A1233DEF7974F538C801D5C621AA1F3","019cf86b-3862-7875-b3e4-0ab899a77f71","019cf855-66fc-7d76-a612-8313d2c5c123","","1129","
                <div class=""stimulus-container"">
                    <img src=""images/semantic_sequence/cat_care_semantic/cat_care_semantic_8.png"" class=""exp-image"">
                    <div class=""question-area"">
                        <p style=""font-size: 20px; font-weight: bold; margin: 0;"">Is there a person in this image?</p>
                    </div>
                </div>","0","main_experiment_trial","8","cat_care_semantic","semantic_sequence","","","","",""
"","","","","","html-keyboard-response","159","498211","0.0-159.0","1A1233DEF7974F538C801D5C621AA1F3","019cf86b-3862-7875-b3e4-0ab899a77f71","019cf855-66fc-7d76-a612-8313d2c5c123","","null","
                <div class=""stimulus-container"">
                    <img src=""images/semantic_sequence/cat_care_semantic/cat_care_semantic_9.png"" class=""exp-image"">
                    <div class=""question-area""></div> 
                </div>","null","","","","","","","","",""
"","","","","","html-button-response","160","499043","0.0-160.0","1A1233DEF7974F538C801D5C621AA1F3","019cf86b-3862-7875-b3e4-0ab899a77f71","019cf855-66fc-7d76-a612-8313d2c5c123","","830","
                <div class=""stimulus-container"">
                    <img src=""images/semantic_sequence/cat_care_semantic/cat_care_semantic_9.png"" class=""exp-image"">
                    <div class=""question-area"">
                        <p style=""font-size: 20px; font-weight: bold; margin: 0;"">Is there a person in this image?</p>
                    </div>
                </div>","0","main_experiment_trial","9","cat_care_semantic","semantic_sequence","","","","",""
"","","","","","html-keyboard-response","161","504045","0.0-161.0","1A1233DEF7974F538C801D5C621AA1F3","019cf86b-3862-7875-b3e4-0ab899a77f71","019cf855-66fc-7d76-a612-8313d2c5c123","","null","
                <div class=""stimulus-container"">
                    <img src=""images/semantic_sequence/cat_care_semantic/cat_care_semantic_ten.png"" class=""exp-image"">
                    <div class=""question-area""></div> 
                </div>","null","","","","","","","","",""
"","","","","","html-button-response","162","504885","0.0-162.0","1A1233DEF7974F538C801D5C621AA1F3","019cf86b-3862-7875-b3e4-0ab899a77f71","019cf855-66fc-7d76-a612-8313d2c5c123","","838","
                <div class=""stimulus-container"">
                    <img src=""images/semantic_sequence/cat_care_semantic/cat_care_semantic_ten.png"" class=""exp-image"">
                    <div class=""question-area"">
                        <p style=""font-size: 20px; font-weight: bold; margin: 0;"">Is there a person in this image?</p>
                    </div>
                </div>","1","main_experiment_trial","ten","cat_care_semantic","semantic_sequence","","","","",""
"","","","","","html-keyboard-response","163","505888","0.0-163.0","1A1233DEF7974F538C801D5C621AA1F3","019cf86b-3862-7875-b3e4-0ab899a77f71","019cf855-66fc-7d76-a612-8313d2c5c123","","null","<div style=""background-color: white; width: 100vw; height: 100vh;""></div>","null","","","","","","","","",""
"","","","","","html-keyboard-response","164","510892","0.0-164.0","1A1233DEF7974F538C801D5C621AA1F3","019cf86b-3862-7875-b3e4-0ab899a77f71","019cf855-66fc-7d76-a612-8313d2c5c123","","null","
                <div class=""stimulus-container"">
                    <img src=""images/schematic_sequence/hotel_scheme/hotel_scheme_1.png"" class=""exp-image"">
                    <div class=""question-area""></div> 
                </div>","null","","","","","","","","",""
"","","","","","html-button-response","165","511807","0.0-165.0","1A1233DEF7974F538C801D5C621AA1F3","019cf86b-3862-7875-b3e4-0ab899a77f71","019cf855-66fc-7d76-a612-8313d2c5c123","","914","
                <div class=""stimulus-container"">
                    <img src=""images/schematic_sequence/hotel_scheme/hotel_scheme_1.png"" class=""exp-image"">
                    <div class=""question-area"">
                        <p style=""font-size: 20px; font-weight: bold; margin: 0;"">Is there a person in this image?</p>
                    </div>
                </div>","1","main_experiment_trial","1","hotel_scheme","schematic_sequence","","","","",""
"","","","","","html-keyboard-response","166","516809","0.0-166.0","1A1233DEF7974F538C801D5C621AA1F3","019cf86b-3862-7875-b3e4-0ab899a77f71","019cf855-66fc-7d76-a612-8313d2c5c123","","null","
                <div class=""stimulus-container"">
                    <img src=""images/schematic_sequence/hotel_scheme/hotel_scheme_2.png"" class=""exp-image"">
                    <div class=""question-area""></div> 
                </div>","null","","","","","","","","",""
"","","","","","html-button-response","167","517604","0.0-167.0","1A1233DEF7974F538C801D5C621AA1F3","019cf86b-3862-7875-b3e4-0ab899a77f71","019cf855-66fc-7d76-a612-8313d2c5c123","","793","
                <div class=""stimulus-container"">
                    <img src=""images/schematic_sequence/hotel_scheme/hotel_scheme_2.png"" class=""exp-image"">
                    <div class=""question-area"">
                        <p style=""font-size: 20px; font-weight: bold; margin: 0;"">Is there a person in this image?</p>
                    </div>
                </div>","0","main_experiment_trial","2","hotel_scheme","schematic_sequence","","","","",""
"","","","","","html-keyboard-response","168","522607","0.0-168.0","1A1233DEF7974F538C801D5C621AA1F3","019cf86b-3862-7875-b3e4-0ab899a77f71","019cf855-66fc-7d76-a612-8313d2c5c123","","null","
                <div class=""stimulus-container"">
                    <img src=""images/schematic_sequence/hotel_scheme/hotel_scheme_3.png"" class=""exp-image"">
                    <div class=""question-area""></div> 
                </div>","null","","","","","","","","",""
"","","","","","html-button-response","169","523715","0.0-169.0","1A1233DEF7974F538C801D5C621AA1F3","019cf86b-3862-7875-b3e4-0ab899a77f71","019cf855-66fc-7d76-a612-8313d2c5c123","","1107","
                <div class=""stimulus-container"">
                    <img src=""images/schematic_sequence/hotel_scheme/hotel_scheme_3.png"" class=""exp-image"">
                    <div class=""question-area"">
                        <p style=""font-size: 20px; font-weight: bold; margin: 0;"">Is there a person in this image?</p>
                    </div>
                </div>","0","main_experiment_trial","3","hotel_scheme","schematic_sequence","","","","",""
"","","","","","html-keyboard-response","170","528717","0.0-170.0","1A1233DEF7974F538C801D5C621AA1F3","019cf86b-3862-7875-b3e4-0ab899a77f71","019cf855-66fc-7d76-a612-8313d2c5c123","","null","
                <div class=""stimulus-container"">
                    <img src=""images/schematic_sequence/hotel_scheme/hotel_scheme_4.png"" class=""exp-image"">
                    <div class=""question-area""></div> 
                </div>","null","","","","","","","","",""
"","","","","","html-button-response","171","529465","0.0-171.0","1A1233DEF7974F538C801D5C621AA1F3","019cf86b-3862-7875-b3e4-0ab899a77f71","019cf855-66fc-7d76-a612-8313d2c5c123","","746","
                <div class=""stimulus-container"">
                    <img src=""images/schematic_sequence/hotel_scheme/hotel_scheme_4.png"" class=""exp-image"">
                    <div class=""question-area"">
                        <p style=""font-size: 20px; font-weight: bold; margin: 0;"">Is there a person in this image?</p>
                    </div>
                </div>","1","main_experiment_trial","4","hotel_scheme","schematic_sequence","","","","",""
"","","","","","html-keyboard-response","172","534467","0.0-172.0","1A1233DEF7974F538C801D5C621AA1F3","019cf86b-3862-7875-b3e4-0ab899a77f71","019cf855-66fc-7d76-a612-8313d2c5c123","","null","
                <div class=""stimulus-container"">
                    <img src=""images/schematic_sequence/hotel_scheme/hotel_scheme_5.png"" class=""exp-image"">
                    <div class=""question-area""></div> 
                </div>","null","","","","","","","","",""
"","","","","","html-button-response","173","535170","0.0-173.0","1A1233DEF7974F538C801D5C621AA1F3","019cf86b-3862-7875-b3e4-0ab899a77f71","019cf855-66fc-7d76-a612-8313d2c5c123","","702","
                <div class=""stimulus-container"">
                    <img src=""images/schematic_sequence/hotel_scheme/hotel_scheme_5.png"" class=""exp-image"">
                    <div class=""question-area"">
                        <p style=""font-size: 20px; font-weight: bold; margin: 0;"">Is there a person in this image?</p>
                    </div>
                </div>","0","main_experiment_trial","5","hotel_scheme","schematic_sequence","","","","",""
"","","","","","html-keyboard-response","174","540172","0.0-174.0","1A1233DEF7974F538C801D5C621AA1F3","019cf86b-3862-7875-b3e4-0ab899a77f71","019cf855-66fc-7d76-a612-8313d2c5c123","","null","
                <div class=""stimulus-container"">
                    <img src=""images/schematic_sequence/hotel_scheme/hotel_scheme_6.png"" class=""exp-image"">
                    <div class=""question-area""></div> 
                </div>","null","","","","","","","","",""
"","","","","","html-button-response","175","541120","0.0-175.0","1A1233DEF7974F538C801D5C621AA1F3","019cf86b-3862-7875-b3e4-0ab899a77f71","019cf855-66fc-7d76-a612-8313d2c5c123","","946","
                <div class=""stimulus-container"">
                    <img src=""images/schematic_sequence/hotel_scheme/hotel_scheme_6.png"" class=""exp-image"">
                    <div class=""question-area"">
                        <p style=""font-size: 20px; font-weight: bold; margin: 0;"">Is there a person in this image?</p>
                    </div>
                </div>","0","main_experiment_trial","6","hotel_scheme","schematic_sequence","","","","",""
"","","","","","html-keyboard-response","176","546122","0.0-176.0","1A1233DEF7974F538C801D5C621AA1F3","019cf86b-3862-7875-b3e4-0ab899a77f71","019cf855-66fc-7d76-a612-8313d2c5c123","","null","
                <div class=""stimulus-container"">
                    <img src=""images/schematic_sequence/hotel_scheme/hotel_scheme_7.png"" class=""exp-image"">
                    <div class=""question-area""></div> 
                </div>","null","","","","","","","","",""
"","","","","","html-button-response","177","547118","0.0-177.0","1A1233DEF7974F538C801D5C621AA1F3","019cf86b-3862-7875-b3e4-0ab899a77f71","019cf855-66fc-7d76-a612-8313d2c5c123","","995","
                <div class=""stimulus-container"">
                    <img src=""images/schematic_sequence/hotel_scheme/hotel_scheme_7.png"" class=""exp-image"">
                    <div class=""question-area"">
                        <p style=""font-size: 20px; font-weight: bold; margin: 0;"">Is there a person in this image?</p>
                    </div>
                </div>","0","main_experiment_trial","7","hotel_scheme","schematic_sequence","","","","",""
"","","","","","html-keyboard-response","178","552120","0.0-178.0","1A1233DEF7974F538C801D5C621AA1F3","019cf86b-3862-7875-b3e4-0ab899a77f71","019cf855-66fc-7d76-a612-8313d2c5c123","","null","
                <div class=""stimulus-container"">
                    <img src=""images/schematic_sequence/hotel_scheme/hotel_scheme_8.png"" class=""exp-image"">
                    <div class=""question-area""></div> 
                </div>","null","","","","","","","","",""
"","","","","","html-button-response","179","553062","0.0-179.0","1A1233DEF7974F538C801D5C621AA1F3","019cf86b-3862-7875-b3e4-0ab899a77f71","019cf855-66fc-7d76-a612-8313d2c5c123","","940","
                <div class=""stimulus-container"">
                    <img src=""images/schematic_sequence/hotel_scheme/hotel_scheme_8.png"" class=""exp-image"">
                    <div class=""question-area"">
                        <p style=""font-size: 20px; font-weight: bold; margin: 0;"">Is there a person in this image?</p>
                    </div>
                </div>","0","main_experiment_trial","8","hotel_scheme","schematic_sequence","","","","",""
"","","","","","html-keyboard-response","180","558064","0.0-180.0","1A1233DEF7974F538C801D5C621AA1F3","019cf86b-3862-7875-b3e4-0ab899a77f71","019cf855-66fc-7d76-a612-8313d2c5c123","","null","
