"success","timeout","failed_images","failed_audio","failed_video","trial_type","trial_index","time_elapsed","internal_node_id","subject_id","study_id","session_id","view_history","rt","stimulus","response","task","image_index","folder","sequence_type","valuable_image_index","reward_type","lucky_X","chosen_image_index"
"true","false","[]","[]","[]","preload","0","103884","0.0-0.0","EF48886CC2C442108BB50B8C21BABF8C","019ceda6-5775-74f0-8db0-11190ae6f5cb","019ceda4-7502-7cd5-b642-b8a83a30c71c","","","","","","","","","","","",""
"","","","","","instructions","1","108039","0.0-1.0","EF48886CC2C442108BB50B8C21BABF8C","019ceda6-5775-74f0-8db0-11190ae6f5cb","019ceda4-7502-7cd5-b642-b8a83a30c71c","[{""page_index"":0,""viewing_time"":4147}]","4147","","","","","","","","","",""
"","","","","","instructions","2","112408","0.0-2.0","EF48886CC2C442108BB50B8C21BABF8C","019ceda6-5775-74f0-8db0-11190ae6f5cb","019ceda4-7502-7cd5-b642-b8a83a30c71c","[{""page_index"":0,""viewing_time"":4368}]","4368","","","","","","","","","",""
"true","","","","","fullscreen","3","114770","0.0-3.0","EF48886CC2C442108BB50B8C21BABF8C","019ceda6-5775-74f0-8db0-11190ae6f5cb","019ceda4-7502-7cd5-b642-b8a83a30c71c","","1348","","","","","","","","","",""
"","","","","","instructions","4","130768","0.0-4.0","EF48886CC2C442108BB50B8C21BABF8C","019ceda6-5775-74f0-8db0-11190ae6f5cb","019ceda4-7502-7cd5-b642-b8a83a30c71c","[{""page_index"":0,""viewing_time"":15997}]","15998","","","","","","","","","",""
"","","","","","instructions","5","141815","0.0-5.0","EF48886CC2C442108BB50B8C21BABF8C","019ceda6-5775-74f0-8db0-11190ae6f5cb","019ceda4-7502-7cd5-b642-b8a83a30c71c","[{""page_index"":0,""viewing_time"":11045}]","11046","","","","","","","","","",""
"","","","","","html-keyboard-response","6","145829","0.0-6.0","EF48886CC2C442108BB50B8C21BABF8C","019ceda6-5775-74f0-8db0-11190ae6f5cb","019ceda4-7502-7cd5-b642-b8a83a30c71c","","null","
                <div class=""stimulus-container"">
                    <img src=""images/instructions/movie_1.png"" class=""exp-image"">
                    <div class=""question-area""></div> 
                </div>","null","","","","","","","",""
"","","","","","html-button-response","7","147866","0.0-7.0","EF48886CC2C442108BB50B8C21BABF8C","019ceda6-5775-74f0-8db0-11190ae6f5cb","019ceda4-7502-7cd5-b642-b8a83a30c71c","","2033","
                <div class=""stimulus-container"">
                    <img src=""images/instructions/movie_1.png"" class=""exp-image"">
                    <div class=""question-area"">
                        <p style=""font-size: 20px; font-weight: bold; margin: 0;"">Was there a person in this image?</p>
                    </div>
                </div>","0","example_question","1","","","","","",""
"","","","","","html-keyboard-response","8","151882","0.0-8.0","EF48886CC2C442108BB50B8C21BABF8C","019ceda6-5775-74f0-8db0-11190ae6f5cb","019ceda4-7502-7cd5-b642-b8a83a30c71c","","null","
                <div class=""stimulus-container"">
                    <img src=""images/instructions/movie_2.png"" class=""exp-image"">
                    <div class=""question-area""></div> 
                </div>","null","","","","","","","",""
"","","","","","html-button-response","9","153985","0.0-9.0","EF48886CC2C442108BB50B8C21BABF8C","019ceda6-5775-74f0-8db0-11190ae6f5cb","019ceda4-7502-7cd5-b642-b8a83a30c71c","","2100","
                <div class=""stimulus-container"">
                    <img src=""images/instructions/movie_2.png"" class=""exp-image"">
                    <div class=""question-area"">
                        <p style=""font-size: 20px; font-weight: bold; margin: 0;"">Was there a person in this image?</p>
                    </div>
                </div>","0","example_question","2","","","","","",""
"","","","","","html-keyboard-response","10","158000","0.0-10.0","EF48886CC2C442108BB50B8C21BABF8C","019ceda6-5775-74f0-8db0-11190ae6f5cb","019ceda4-7502-7cd5-b642-b8a83a30c71c","","null","
                <div class=""stimulus-container"">
                    <img src=""images/instructions/movie_3.png"" class=""exp-image"">
                    <div class=""question-area""></div> 
                </div>","null","","","","","","","",""
"","","","","","html-button-response","11","158632","0.0-11.0","EF48886CC2C442108BB50B8C21BABF8C","019ceda6-5775-74f0-8db0-11190ae6f5cb","019ceda4-7502-7cd5-b642-b8a83a30c71c","","630","
                <div class=""stimulus-container"">
                    <img src=""images/instructions/movie_3.png"" class=""exp-image"">
                    <div class=""question-area"">
                        <p style=""font-size: 20px; font-weight: bold; margin: 0;"">Was there a person in this image?</p>
                    </div>
                </div>","0","example_question","3","","","","","",""
"","","","","","html-keyboard-response","12","162641","0.0-12.0","EF48886CC2C442108BB50B8C21BABF8C","019ceda6-5775-74f0-8db0-11190ae6f5cb","019ceda4-7502-7cd5-b642-b8a83a30c71c","","null","
                <div class=""stimulus-container"">
                    <img src=""images/instructions/movie_4.png"" class=""exp-image"">
                    <div class=""question-area""></div> 
                </div>","null","","","","","","","",""
"","","","","","html-button-response","13","163449","0.0-13.0","EF48886CC2C442108BB50B8C21BABF8C","019ceda6-5775-74f0-8db0-11190ae6f5cb","019ceda4-7502-7cd5-b642-b8a83a30c71c","","805","
                <div class=""stimulus-container"">
                    <img src=""images/instructions/movie_4.png"" class=""exp-image"">
                    <div class=""question-area"">
                        <p style=""font-size: 20px; font-weight: bold; margin: 0;"">Was there a person in this image?</p>
                    </div>
                </div>","0","example_question","4","","","","","",""
"","","","","","instructions","14","165542","0.0-14.0","EF48886CC2C442108BB50B8C21BABF8C","019ceda6-5775-74f0-8db0-11190ae6f5cb","019ceda4-7502-7cd5-b642-b8a83a30c71c","[{""page_index"":0,""viewing_time"":2085}]","2086","","","","","","","","","",""
"","","","","","instructions","15","178495","0.0-15.0","EF48886CC2C442108BB50B8C21BABF8C","019ceda6-5775-74f0-8db0-11190ae6f5cb","019ceda4-7502-7cd5-b642-b8a83a30c71c","[{""page_index"":0,""viewing_time"":12952}]","12952","","","","","","","","","",""
"","","","","","html-keyboard-response","16","179506","0.0-16.0","EF48886CC2C442108BB50B8C21BABF8C","019ceda6-5775-74f0-8db0-11190ae6f5cb","019ceda4-7502-7cd5-b642-b8a83a30c71c","","null","<div style=""background-color: white; width: 100vw; height: 100vh;""></div>","null","","","","","","","",""
"","","","","","html-keyboard-response","17","184520","0.0-17.0","EF48886CC2C442108BB50B8C21BABF8C","019ceda6-5775-74f0-8db0-11190ae6f5cb","019ceda4-7502-7cd5-b642-b8a83a30c71c","","null","
                <div class=""stimulus-container"">
                    <img src=""images/schematic_sequence/flight_scheme/flight_scheme_1.png"" class=""exp-image"">
                    <div class=""question-area""></div> 
                </div>","null","","","","","","","",""
"","","","","","html-button-response","18","185857","0.0-18.0","EF48886CC2C442108BB50B8C21BABF8C","019ceda6-5775-74f0-8db0-11190ae6f5cb","019ceda4-7502-7cd5-b642-b8a83a30c71c","","1334","
                <div class=""stimulus-container"">
                    <img src=""images/schematic_sequence/flight_scheme/flight_scheme_1.png"" class=""exp-image"">
                    <div class=""question-area"">
                        <p style=""font-size: 20px; font-weight: bold; margin: 0;"">Is there a person in this image?</p>
                    </div>
                </div>","1","main_experiment_trial","1","flight_scheme","schematic_sequence","","","",""
"","","","","","html-keyboard-response","19","190871","0.0-19.0","EF48886CC2C442108BB50B8C21BABF8C","019ceda6-5775-74f0-8db0-11190ae6f5cb","019ceda4-7502-7cd5-b642-b8a83a30c71c","","null","
                <div class=""stimulus-container"">
                    <img src=""images/schematic_sequence/flight_scheme/flight_scheme_2.png"" class=""exp-image"">
                    <div class=""question-area""></div> 
                </div>","null","","","","","","","",""
"","","","","","html-button-response","20","191688","0.0-20.0","EF48886CC2C442108BB50B8C21BABF8C","019ceda6-5775-74f0-8db0-11190ae6f5cb","019ceda4-7502-7cd5-b642-b8a83a30c71c","","815","
                <div class=""stimulus-container"">
                    <img src=""images/schematic_sequence/flight_scheme/flight_scheme_2.png"" class=""exp-image"">
                    <div class=""question-area"">
                        <p style=""font-size: 20px; font-weight: bold; margin: 0;"">Is there a person in this image?</p>
                    </div>
                </div>","1","main_experiment_trial","2","flight_scheme","schematic_sequence","","","",""
"","","","","","html-keyboard-response","21","196702","0.0-21.0","EF48886CC2C442108BB50B8C21BABF8C","019ceda6-5775-74f0-8db0-11190ae6f5cb","019ceda4-7502-7cd5-b642-b8a83a30c71c","","null","
                <div class=""stimulus-container"">
                    <img src=""images/schematic_sequence/flight_scheme/flight_scheme_3.png"" class=""exp-image"">
                    <div class=""question-area""></div> 
                </div>","null","","","","","","","",""
"","","","","","html-button-response","22","198033","0.0-22.0","EF48886CC2C442108BB50B8C21BABF8C","019ceda6-5775-74f0-8db0-11190ae6f5cb","019ceda4-7502-7cd5-b642-b8a83a30c71c","","1329","
                <div class=""stimulus-container"">
                    <img src=""images/schematic_sequence/flight_scheme/flight_scheme_3.png"" class=""exp-image"">
                    <div class=""question-area"">
                        <p style=""font-size: 20px; font-weight: bold; margin: 0;"">Is there a person in this image?</p>
                    </div>
                </div>","0","main_experiment_trial","3","flight_scheme","schematic_sequence","","","",""
"","","","","","html-keyboard-response","23","203036","0.0-23.0","EF48886CC2C442108BB50B8C21BABF8C","019ceda6-5775-74f0-8db0-11190ae6f5cb","019ceda4-7502-7cd5-b642-b8a83a30c71c","","null","
                <div class=""stimulus-container"">
                    <img src=""images/schematic_sequence/flight_scheme/flight_scheme_4.png"" class=""exp-image"">
                    <div class=""question-area""></div> 
                </div>","null","","","","","","","",""
"","","","","","html-button-response","24","203976","0.0-24.0","EF48886CC2C442108BB50B8C21BABF8C","019ceda6-5775-74f0-8db0-11190ae6f5cb","019ceda4-7502-7cd5-b642-b8a83a30c71c","","938","
                <div class=""stimulus-container"">
                    <img src=""images/schematic_sequence/flight_scheme/flight_scheme_4.png"" class=""exp-image"">
                    <div class=""question-area"">
                        <p style=""font-size: 20px; font-weight: bold; margin: 0;"">Is there a person in this image?</p>
                    </div>
                </div>","0","main_experiment_trial","4","flight_scheme","schematic_sequence","","","",""
"","","","","","html-keyboard-response","25","208979","0.0-25.0","EF48886CC2C442108BB50B8C21BABF8C","019ceda6-5775-74f0-8db0-11190ae6f5cb","019ceda4-7502-7cd5-b642-b8a83a30c71c","","null","
                <div class=""stimulus-container"">
                    <img src=""images/schematic_sequence/flight_scheme/flight_scheme_5.png"" class=""exp-image"">
                    <div class=""question-area""></div> 
                </div>","null","","","","","","","",""
"","","","","","html-button-response","26","209608","0.0-26.0","EF48886CC2C442108BB50B8C21BABF8C","019ceda6-5775-74f0-8db0-11190ae6f5cb","019ceda4-7502-7cd5-b642-b8a83a30c71c","","627","
                <div class=""stimulus-container"">
                    <img src=""images/schematic_sequence/flight_scheme/flight_scheme_5.png"" class=""exp-image"">
                    <div class=""question-area"">
                        <p style=""font-size: 20px; font-weight: bold; margin: 0;"">Is there a person in this image?</p>
                    </div>
                </div>","0","main_experiment_trial","5","flight_scheme","schematic_sequence","","","",""
"","","","","","html-keyboard-response","27","214624","0.0-27.0","EF48886CC2C442108BB50B8C21BABF8C","019ceda6-5775-74f0-8db0-11190ae6f5cb","019ceda4-7502-7cd5-b642-b8a83a30c71c","","null","
                <div class=""stimulus-container"">
                    <img src=""images/schematic_sequence/flight_scheme/flight_scheme_6.png"" class=""exp-image"">
                    <div class=""question-area""></div> 
                </div>","null","","","","","","","",""
"","","","","","html-button-response","28","215777","0.0-28.0","EF48886CC2C442108BB50B8C21BABF8C","019ceda6-5775-74f0-8db0-11190ae6f5cb","019ceda4-7502-7cd5-b642-b8a83a30c71c","","1150","
                <div class=""stimulus-container"">
                    <img src=""images/schematic_sequence/flight_scheme/flight_scheme_6.png"" class=""exp-image"">
                    <div class=""question-area"">
                        <p style=""font-size: 20px; font-weight: bold; margin: 0;"">Is there a person in this image?</p>
                    </div>
                </div>","1","main_experiment_trial","6","flight_scheme","schematic_sequence","","","",""
"","","","","","html-keyboard-response","29","220793","0.0-29.0","EF48886CC2C442108BB50B8C21BABF8C","019ceda6-5775-74f0-8db0-11190ae6f5cb","019ceda4-7502-7cd5-b642-b8a83a30c71c","","null","
                <div class=""stimulus-container"">
                    <img src=""images/schematic_sequence/flight_scheme/flight_scheme_7.png"" class=""exp-image"">
                    <div class=""question-area""></div> 
                </div>","null","","","","","","","",""
"","","","","","html-button-response","30","221504","0.0-30.0","EF48886CC2C442108BB50B8C21BABF8C","019ceda6-5775-74f0-8db0-11190ae6f5cb","019ceda4-7502-7cd5-b642-b8a83a30c71c","","709","
                <div class=""stimulus-container"">
                    <img src=""images/schematic_sequence/flight_scheme/flight_scheme_7.png"" class=""exp-image"">
                    <div class=""question-area"">
                        <p style=""font-size: 20px; font-weight: bold; margin: 0;"">Is there a person in this image?</p>
                    </div>
                </div>","1","main_experiment_trial","7","flight_scheme","schematic_sequence","","","",""
"","","","","","html-keyboard-response","31","226512","0.0-31.0","EF48886CC2C442108BB50B8C21BABF8C","019ceda6-5775-74f0-8db0-11190ae6f5cb","019ceda4-7502-7cd5-b642-b8a83a30c71c","","null","
                <div class=""stimulus-container"">
                    <img src=""images/schematic_sequence/flight_scheme/flight_scheme_8.png"" class=""exp-image"">
                    <div class=""question-area""></div> 
                </div>","null","","","","","","","",""
"","","","","","html-button-response","32","227304","0.0-32.0","EF48886CC2C442108BB50B8C21BABF8C","019ceda6-5775-74f0-8db0-11190ae6f5cb","019ceda4-7502-7cd5-b642-b8a83a30c71c","","791","
                <div class=""stimulus-container"">
                    <img src=""images/schematic_sequence/flight_scheme/flight_scheme_8.png"" class=""exp-image"">
                    <div class=""question-area"">
                        <p style=""font-size: 20px; font-weight: bold; margin: 0;"">Is there a person in this image?</p>
                    </div>
                </div>","1","main_experiment_trial","8","flight_scheme","schematic_sequence","","","",""
"","","","","","html-keyboard-response","33","232313","0.0-33.0","EF48886CC2C442108BB50B8C21BABF8C","019ceda6-5775-74f0-8db0-11190ae6f5cb","019ceda4-7502-7cd5-b642-b8a83a30c71c","","null","
                <div class=""stimulus-container"">
                    <img src=""images/schematic_sequence/flight_scheme/flight_scheme_9.png"" class=""exp-image"">
                    <div class=""question-area""></div> 
                </div>","null","","","","","","","",""
"","","","","","html-button-response","34","233392","0.0-34.0","EF48886CC2C442108BB50B8C21BABF8C","019ceda6-5775-74f0-8db0-11190ae6f5cb","019ceda4-7502-7cd5-b642-b8a83a30c71c","","1077","
                <div class=""stimulus-container"">
                    <img src=""images/schematic_sequence/flight_scheme/flight_scheme_9.png"" class=""exp-image"">
                    <div class=""question-area"">
                        <p style=""font-size: 20px; font-weight: bold; margin: 0;"">Is there a person in this image?</p>
                    </div>
                </div>","0","main_experiment_trial","9","flight_scheme","schematic_sequence","","","",""
"","","","","","html-keyboard-response","35","238405","0.0-35.0","EF48886CC2C442108BB50B8C21BABF8C","019ceda6-5775-74f0-8db0-11190ae6f5cb","019ceda4-7502-7cd5-b642-b8a83a30c71c","","null","
                <div class=""stimulus-container"">
                    <img src=""images/schematic_sequence/flight_scheme/flight_scheme_ten.png"" class=""exp-image"">
                    <div class=""question-area""></div> 
                </div>","null","","","","","","","",""
"","","","","","html-button-response","36","239215","0.0-36.0","EF48886CC2C442108BB50B8C21BABF8C","019ceda6-5775-74f0-8db0-11190ae6f5cb","019ceda4-7502-7cd5-b642-b8a83a30c71c","","808","
                <div class=""stimulus-container"">
                    <img src=""images/schematic_sequence/flight_scheme/flight_scheme_ten.png"" class=""exp-image"">
                    <div class=""question-area"">
                        <p style=""font-size: 20px; font-weight: bold; margin: 0;"">Is there a person in this image?</p>
                    </div>
                </div>","0","main_experiment_trial","ten","flight_scheme","schematic_sequence","","","",""
"","","","","","html-keyboard-response","37","240218","0.0-37.0","EF48886CC2C442108BB50B8C21BABF8C","019ceda6-5775-74f0-8db0-11190ae6f5cb","019ceda4-7502-7cd5-b642-b8a83a30c71c","","null","<div style=""background-color: white; width: 100vw; height: 100vh;""></div>","null","","","","","","","",""
"","","","","","html-keyboard-response","38","245227","0.0-38.0","EF48886CC2C442108BB50B8C21BABF8C","019ceda6-5775-74f0-8db0-11190ae6f5cb","019ceda4-7502-7cd5-b642-b8a83a30c71c","","null","
                <div class=""stimulus-container"">
                    <img src=""images/schematic_sequence/supermarket_scheme/supermarket_scheme_1.png"" class=""exp-image"">
                    <div class=""question-area""></div> 
                </div>","null","","","","","","","",""
"","","","","","html-button-response","39","245857","0.0-39.0","EF48886CC2C442108BB50B8C21BABF8C","019ceda6-5775-74f0-8db0-11190ae6f5cb","019ceda4-7502-7cd5-b642-b8a83a30c71c","","628","
                <div class=""stimulus-container"">
                    <img src=""images/schematic_sequence/supermarket_scheme/supermarket_scheme_1.png"" class=""exp-image"">
                    <div class=""question-area"">
                        <p style=""font-size: 20px; font-weight: bold; margin: 0;"">Is there a person in this image?</p>
                    </div>
                </div>","1","main_experiment_trial","1","supermarket_scheme","schematic_sequence","","","",""
"","","","","","html-keyboard-response","40","250859","0.0-40.0","EF48886CC2C442108BB50B8C21BABF8C","019ceda6-5775-74f0-8db0-11190ae6f5cb","019ceda4-7502-7cd5-b642-b8a83a30c71c","","null","
                <div class=""stimulus-container"">
                    <img src=""images/schematic_sequence/supermarket_scheme/supermarket_scheme_2.png"" class=""exp-image"">
                    <div class=""question-area""></div> 
                </div>","null","","","","","","","",""
"","","","","","html-button-response","41","251520","0.0-41.0","EF48886CC2C442108BB50B8C21BABF8C","019ceda6-5775-74f0-8db0-11190ae6f5cb","019ceda4-7502-7cd5-b642-b8a83a30c71c","","658","
                <div class=""stimulus-container"">
                    <img src=""images/schematic_sequence/supermarket_scheme/supermarket_scheme_2.png"" class=""exp-image"">
                    <div class=""question-area"">
                        <p style=""font-size: 20px; font-weight: bold; margin: 0;"">Is there a person in this image?</p>
                    </div>
                </div>","1","main_experiment_trial","2","supermarket_scheme","schematic_sequence","","","",""
"","","","","","html-keyboard-response","42","256528","0.0-42.0","EF48886CC2C442108BB50B8C21BABF8C","019ceda6-5775-74f0-8db0-11190ae6f5cb","019ceda4-7502-7cd5-b642-b8a83a30c71c","","null","
                <div class=""stimulus-container"">
                    <img src=""images/schematic_sequence/supermarket_scheme/supermarket_scheme_3.png"" class=""exp-image"">
                    <div class=""question-area""></div> 
                </div>","null","","","","","","","",""
"","","","","","html-button-response","43","258040","0.0-43.0","EF48886CC2C442108BB50B8C21BABF8C","019ceda6-5775-74f0-8db0-11190ae6f5cb","019ceda4-7502-7cd5-b642-b8a83a30c71c","","1510","
                <div class=""stimulus-container"">
                    <img src=""images/schematic_sequence/supermarket_scheme/supermarket_scheme_3.png"" class=""exp-image"">
                    <div class=""question-area"">
                        <p style=""font-size: 20px; font-weight: bold; margin: 0;"">Is there a person in this image?</p>
                    </div>
                </div>","1","main_experiment_trial","3","supermarket_scheme","schematic_sequence","","","",""
"","","","","","html-keyboard-response","44","263047","0.0-44.0","EF48886CC2C442108BB50B8C21BABF8C","019ceda6-5775-74f0-8db0-11190ae6f5cb","019ceda4-7502-7cd5-b642-b8a83a30c71c","","null","
                <div class=""stimulus-container"">
                    <img src=""images/schematic_sequence/supermarket_scheme/supermarket_scheme_4.png"" class=""exp-image"">
                    <div class=""question-area""></div> 
                </div>","null","","","","","","","",""
"","","","","","html-button-response","45","264408","0.0-45.0","EF48886CC2C442108BB50B8C21BABF8C","019ceda6-5775-74f0-8db0-11190ae6f5cb","019ceda4-7502-7cd5-b642-b8a83a30c71c","","1359","
                <div class=""stimulus-container"">
                    <img src=""images/schematic_sequence/supermarket_scheme/supermarket_scheme_4.png"" class=""exp-image"">
                    <div class=""question-area"">
                        <p style=""font-size: 20px; font-weight: bold; margin: 0;"">Is there a person in this image?</p>
                    </div>
                </div>","0","main_experiment_trial","4","supermarket_scheme","schematic_sequence","","","",""
"","","","","","html-keyboard-response","46","269421","0.0-46.0","EF48886CC2C442108BB50B8C21BABF8C","019ceda6-5775-74f0-8db0-11190ae6f5cb","019ceda4-7502-7cd5-b642-b8a83a30c71c","","null","
                <div class=""stimulus-container"">
                    <img src=""images/schematic_sequence/supermarket_scheme/supermarket_scheme_5.png"" class=""exp-image"">
                    <div class=""question-area""></div> 
                </div>","null","","","","","","","",""
"","","","","","html-button-response","47","270216","0.0-47.0","EF48886CC2C442108BB50B8C21BABF8C","019ceda6-5775-74f0-8db0-11190ae6f5cb","019ceda4-7502-7cd5-b642-b8a83a30c71c","","792","
                <div class=""stimulus-container"">
                    <img src=""images/schematic_sequence/supermarket_scheme/supermarket_scheme_5.png"" class=""exp-image"">
                    <div class=""question-area"">
                        <p style=""font-size: 20px; font-weight: bold; margin: 0;"">Is there a person in this image?</p>
                    </div>
                </div>","1","main_experiment_trial","5","supermarket_scheme","schematic_sequence","","","",""
"","","","","","html-keyboard-response","48","275223","0.0-48.0","EF48886CC2C442108BB50B8C21BABF8C","019ceda6-5775-74f0-8db0-11190ae6f5cb","019ceda4-7502-7cd5-b642-b8a83a30c71c","","null","
                <div class=""stimulus-container"">
                    <img src=""images/schematic_sequence/supermarket_scheme/supermarket_scheme_6.png"" class=""exp-image"">
                    <div class=""question-area""></div> 
                </div>","null","","","","","","","",""
"","","","","","html-button-response","49","276104","0.0-49.0","EF48886CC2C442108BB50B8C21BABF8C","019ceda6-5775-74f0-8db0-11190ae6f5cb","019ceda4-7502-7cd5-b642-b8a83a30c71c","","879","
                <div class=""stimulus-container"">
                    <img src=""images/schematic_sequence/supermarket_scheme/supermarket_scheme_6.png"" class=""exp-image"">
                    <div class=""question-area"">
                        <p style=""font-size: 20px; font-weight: bold; margin: 0;"">Is there a person in this image?</p>
                    </div>
                </div>","0","main_experiment_trial","6","supermarket_scheme","schematic_sequence","","","",""
"","","","","","html-keyboard-response","50","281119","0.0-50.0","EF48886CC2C442108BB50B8C21BABF8C","019ceda6-5775-74f0-8db0-11190ae6f5cb","019ceda4-7502-7cd5-b642-b8a83a30c71c","","null","
                <div class=""stimulus-container"">
                    <img src=""images/schematic_sequence/supermarket_scheme/supermarket_scheme_7.png"" class=""exp-image"">
                    <div class=""question-area""></div> 
                </div>","null","","","","","","","",""
"","","","","","html-button-response","51","281888","0.0-51.0","EF48886CC2C442108BB50B8C21BABF8C","019ceda6-5775-74f0-8db0-11190ae6f5cb","019ceda4-7502-7cd5-b642-b8a83a30c71c","","767","
                <div class=""stimulus-container"">
                    <img src=""images/schematic_sequence/supermarket_scheme/supermarket_scheme_7.png"" class=""exp-image"">
                    <div class=""question-area"">
                        <p style=""font-size: 20px; font-weight: bold; margin: 0;"">Is there a person in this image?</p>
                    </div>
                </div>","0","main_experiment_trial","7","supermarket_scheme","schematic_sequence","","","",""
"","","","","","html-keyboard-response","52","286902","0.0-52.0","EF48886CC2C442108BB50B8C21BABF8C","019ceda6-5775-74f0-8db0-11190ae6f5cb","019ceda4-7502-7cd5-b642-b8a83a30c71c","","null","
                <div class=""stimulus-container"">
                    <img src=""images/schematic_sequence/supermarket_scheme/supermarket_scheme_8.png"" class=""exp-image"">
                    <div class=""question-area""></div> 
                </div>","null","","","","","","","",""
"","","","","","html-button-response","53","287520","0.0-53.0","EF48886CC2C442108BB50B8C21BABF8C","019ceda6-5775-74f0-8db0-11190ae6f5cb","019ceda4-7502-7cd5-b642-b8a83a30c71c","","616","
                <div class=""stimulus-container"">
                    <img src=""images/schematic_sequence/supermarket_scheme/supermarket_scheme_8.png"" class=""exp-image"">
                    <div class=""question-area"">
                        <p style=""font-size: 20px; font-weight: bold; margin: 0;"">Is there a person in this image?</p>
                    </div>
                </div>","0","main_experiment_trial","8","supermarket_scheme","schematic_sequence","","","",""
"","","","","","html-keyboard-response","54","292530","0.0-54.0","EF48886CC2C442108BB50B8C21BABF8C","019ceda6-5775-74f0-8db0-11190ae6f5cb","019ceda4-7502-7cd5-b642-b8a83a30c71c","","null","
                <div class=""stimulus-container"">
                    <img src=""images/schematic_sequence/supermarket_scheme/supermarket_scheme_9.png"" class=""exp-image"">
                    <div class=""question-area""></div> 
                </div>","null","","","","","","","",""
"","","","","","html-button-response","55","293136","0.0-55.0","EF48886CC2C442108BB50B8C21BABF8C","019ceda6-5775-74f0-8db0-11190ae6f5cb","019ceda4-7502-7cd5-b642-b8a83a30c71c","","604","
                <div class=""stimulus-container"">
                    <img src=""images/schematic_sequence/supermarket_scheme/supermarket_scheme_9.png"" class=""exp-image"">
                    <div class=""question-area"">
                        <p style=""font-size: 20px; font-weight: bold; margin: 0;"">Is there a person in this image?</p>
                    </div>
                </div>","0","main_experiment_trial","9","supermarket_scheme","schematic_sequence","","","",""
"","","","","","html-keyboard-response","56","298148","0.0-56.0","EF48886CC2C442108BB50B8C21BABF8C","019ceda6-5775-74f0-8db0-11190ae6f5cb","019ceda4-7502-7cd5-b642-b8a83a30c71c","","null","
                <div class=""stimulus-container"">
                    <img src=""images/schematic_sequence/supermarket_scheme/supermarket_scheme_ten.png"" class=""exp-image"">
                    <div class=""question-area""></div> 
                </div>","null","","","","","","","",""
"","","","","","html-button-response","57","298960","0.0-57.0","EF48886CC2C442108BB50B8C21BABF8C","019ceda6-5775-74f0-8db0-11190ae6f5cb","019ceda4-7502-7cd5-b642-b8a83a30c71c","","811","
                <div class=""stimulus-container"">
                    <img src=""images/schematic_sequence/supermarket_scheme/supermarket_scheme_ten.png"" class=""exp-image"">
                    <div class=""question-area"">
                        <p style=""font-size: 20px; font-weight: bold; margin: 0;"">Is there a person in this image?</p>
                    </div>
                </div>","1","main_experiment_trial","ten","supermarket_scheme","schematic_sequence","","","",""
"","","","","","html-keyboard-response","58","299976","0.0-58.0","EF48886CC2C442108BB50B8C21BABF8C","019ceda6-5775-74f0-8db0-11190ae6f5cb","019ceda4-7502-7cd5-b642-b8a83a30c71c","","null","<div style=""background-color: white; width: 100vw; height: 100vh;""></div>","null","","","","","","","",""
"","","","","","html-keyboard-response","59","304988","0.0-59.0","EF48886CC2C442108BB50B8C21BABF8C","019ceda6-5775-74f0-8db0-11190ae6f5cb","019ceda4-7502-7cd5-b642-b8a83a30c71c","","null","
                <div class=""stimulus-container"">
                    <img src=""images/schematic_sequence/dinner_party_scheme/dinner_party_scheme_1.png"" class=""exp-image"">
                    <div class=""question-area""></div> 
                </div>","null","","","","","","","",""
"","","","","","html-button-response","60","305680","0.0-60.0","EF48886CC2C442108BB50B8C21BABF8C","019ceda6-5775-74f0-8db0-11190ae6f5cb","019ceda4-7502-7cd5-b642-b8a83a30c71c","","689","
                <div class=""stimulus-container"">
                    <img src=""images/schematic_sequence/dinner_party_scheme/dinner_party_scheme_1.png"" class=""exp-image"">
                    <div class=""question-area"">
                        <p style=""font-size: 20px; font-weight: bold; margin: 0;"">Is there a person in this image?</p>
                    </div>
                </div>","0","main_experiment_trial","1","dinner_party_scheme","schematic_sequence","","","",""
"","","","","","html-keyboard-response","61","310684","0.0-61.0","EF48886CC2C442108BB50B8C21BABF8C","019ceda6-5775-74f0-8db0-11190ae6f5cb","019ceda4-7502-7cd5-b642-b8a83a30c71c","","null","
                <div class=""stimulus-container"">
                    <img src=""images/schematic_sequence/dinner_party_scheme/dinner_party_scheme_2.png"" class=""exp-image"">
                    <div class=""question-area""></div> 
                </div>","null","","","","","","","",""
"","","","","","html-button-response","62","311344","0.0-62.0","EF48886CC2C442108BB50B8C21BABF8C","019ceda6-5775-74f0-8db0-11190ae6f5cb","019ceda4-7502-7cd5-b642-b8a83a30c71c","","658","
                <div class=""stimulus-container"">
                    <img src=""images/schematic_sequence/dinner_party_scheme/dinner_party_scheme_2.png"" class=""exp-image"">
                    <div class=""question-area"">
                        <p style=""font-size: 20px; font-weight: bold; margin: 0;"">Is there a person in this image?</p>
                    </div>
                </div>","0","main_experiment_trial","2","dinner_party_scheme","schematic_sequence","","","",""
"","","","","","html-keyboard-response","63","316353","0.0-63.0","EF48886CC2C442108BB50B8C21BABF8C","019ceda6-5775-74f0-8db0-11190ae6f5cb","019ceda4-7502-7cd5-b642-b8a83a30c71c","","null","
                <div class=""stimulus-container"">
                    <img src=""images/schematic_sequence/dinner_party_scheme/dinner_party_scheme_3.png"" class=""exp-image"">
                    <div class=""question-area""></div> 
                </div>","null","","","","","","","",""
"","","","","","html-button-response","64","316786","0.0-64.0","EF48886CC2C442108BB50B8C21BABF8C","019ceda6-5775-74f0-8db0-11190ae6f5cb","019ceda4-7502-7cd5-b642-b8a83a30c71c","","431","
                <div class=""stimulus-container"">
                    <img src=""images/schematic_sequence/dinner_party_scheme/dinner_party_scheme_3.png"" class=""exp-image"">
                    <div class=""question-area"">
                        <p style=""font-size: 20px; font-weight: bold; margin: 0;"">Is there a person in this image?</p>
                    </div>
                </div>","0","main_experiment_trial","3","dinner_party_scheme","schematic_sequence","","","",""
"","","","","","html-keyboard-response","65","321790","0.0-65.0","EF48886CC2C442108BB50B8C21BABF8C","019ceda6-5775-74f0-8db0-11190ae6f5cb","019ceda4-7502-7cd5-b642-b8a83a30c71c","","null","
                <div class=""stimulus-container"">
                    <img src=""images/schematic_sequence/dinner_party_scheme/dinner_party_scheme_4.png"" class=""exp-image"">
                    <div class=""question-area""></div> 
                </div>","null","","","","","","","",""
"","","","","","html-button-response","66","322193","0.0-66.0","EF48886CC2C442108BB50B8C21BABF8C","019ceda6-5775-74f0-8db0-11190ae6f5cb","019ceda4-7502-7cd5-b642-b8a83a30c71c","","400","
                <div class=""stimulus-container"">
                    <img src=""images/schematic_sequence/dinner_party_scheme/dinner_party_scheme_4.png"" class=""exp-image"">
                    <div class=""question-area"">
                        <p style=""font-size: 20px; font-weight: bold; margin: 0;"">Is there a person in this image?</p>
                    </div>
                </div>","0","main_experiment_trial","4","dinner_party_scheme","schematic_sequence","","","",""
"","","","","","html-keyboard-response","67","327201","0.0-67.0","EF48886CC2C442108BB50B8C21BABF8C","019ceda6-5775-74f0-8db0-11190ae6f5cb","019ceda4-7502-7cd5-b642-b8a83a30c71c","","null","
                <div class=""stimulus-container"">
                    <img src=""images/schematic_sequence/dinner_party_scheme/dinner_party_scheme_5.png"" class=""exp-image"">
                    <div class=""question-area""></div> 
                </div>","null","","","","","","","",""
"","","","","","html-button-response","68","327784","0.0-68.0","EF48886CC2C442108BB50B8C21BABF8C","019ceda6-5775-74f0-8db0-11190ae6f5cb","019ceda4-7502-7cd5-b642-b8a83a30c71c","","581","
                <div class=""stimulus-container"">
                    <img src=""images/schematic_sequence/dinner_party_scheme/dinner_party_scheme_5.png"" class=""exp-image"">
                    <div class=""question-area"">
                        <p style=""font-size: 20px; font-weight: bold; margin: 0;"">Is there a person in this image?</p>
                    </div>
                </div>","0","main_experiment_trial","5","dinner_party_scheme","schematic_sequence","","","",""
"","","","","","html-keyboard-response","69","332797","0.0-69.0","EF48886CC2C442108BB50B8C21BABF8C","019ceda6-5775-74f0-8db0-11190ae6f5cb","019ceda4-7502-7cd5-b642-b8a83a30c71c","","null","
                <div class=""stimulus-container"">
                    <img src=""images/schematic_sequence/dinner_party_scheme/dinner_party_scheme_6.png"" class=""exp-image"">
                    <div class=""question-area""></div> 
                </div>","null","","","","","","","",""
"","","","","","html-button-response","70","333312","0.0-70.0","EF48886CC2C442108BB50B8C21BABF8C","019ceda6-5775-74f0-8db0-11190ae6f5cb","019ceda4-7502-7cd5-b642-b8a83a30c71c","","513","
                <div class=""stimulus-container"">
                    <img src=""images/schematic_sequence/dinner_party_scheme/dinner_party_scheme_6.png"" class=""exp-image"">
                    <div class=""question-area"">
                        <p style=""font-size: 20px; font-weight: bold; margin: 0;"">Is there a person in this image?</p>
                    </div>
                </div>","0","main_experiment_trial","6","dinner_party_scheme","schematic_sequence","","","",""
"","","","","","html-keyboard-response","71","338326","0.0-71.0","EF48886CC2C442108BB50B8C21BABF8C","019ceda6-5775-74f0-8db0-11190ae6f5cb","019ceda4-7502-7cd5-b642-b8a83a30c71c","","null","
                <div class=""stimulus-container"">
                    <img src=""images/schematic_sequence/dinner_party_scheme/dinner_party_scheme_7.png"" class=""exp-image"">
                    <div class=""question-area""></div> 
                </div>","null","","","","","","","",""
"","","","","","html-button-response","72","338800","0.0-72.0","EF48886CC2C442108BB50B8C21BABF8C","019ceda6-5775-74f0-8db0-11190ae6f5cb","019ceda4-7502-7cd5-b642-b8a83a30c71c","","472","
                <div class=""stimulus-container"">
                    <img src=""images/schematic_sequence/dinner_party_scheme/dinner_party_scheme_7.png"" class=""exp-image"">
                    <div class=""question-area"">
                        <p style=""font-size: 20px; font-weight: bold; margin: 0;"">Is there a person in this image?</p>
                    </div>
                </div>","0","main_experiment_trial","7","dinner_party_scheme","schematic_sequence","","","",""
"","","","","","html-keyboard-response","73","343808","0.0-73.0","EF48886CC2C442108BB50B8C21BABF8C","019ceda6-5775-74f0-8db0-11190ae6f5cb","019ceda4-7502-7cd5-b642-b8a83a30c71c","","null","
                <div class=""stimulus-container"">
                    <img src=""images/schematic_sequence/dinner_party_scheme/dinner_party_scheme_8.png"" class=""exp-image"">
                    <div class=""question-area""></div> 
                </div>","null","","","","","","","",""
"","","","","","html-button-response","74","344536","0.0-74.0","EF48886CC2C442108BB50B8C21BABF8C","019ceda6-5775-74f0-8db0-11190ae6f5cb","019ceda4-7502-7cd5-b642-b8a83a30c71c","","726","
                <div class=""stimulus-container"">
                    <img src=""images/schematic_sequence/dinner_party_scheme/dinner_party_scheme_8.png"" class=""exp-image"">
                    <div class=""question-area"">
                        <p style=""font-size: 20px; font-weight: bold; margin: 0;"">Is there a person in this image?</p>
                    </div>
                </div>","0","main_experiment_trial","8","dinner_party_scheme","schematic_sequence","","","",""
"","","","","","html-keyboard-response","75","349541","0.0-75.0","EF48886CC2C442108BB50B8C21BABF8C","019ceda6-5775-74f0-8db0-11190ae6f5cb","019ceda4-7502-7cd5-b642-b8a83a30c71c","","null","
                <div class=""stimulus-container"">
                    <img src=""images/schematic_sequence/dinner_party_scheme/dinner_party_scheme_9.png"" class=""exp-image"">
                    <div class=""question-area""></div> 
                </div>","null","","","","","","","",""
"","","","","","html-button-response","76","350032","0.0-76.0","EF48886CC2C442108BB50B8C21BABF8C","019ceda6-5775-74f0-8db0-11190ae6f5cb","019ceda4-7502-7cd5-b642-b8a83a30c71c","","489","
                <div class=""stimulus-container"">
                    <img src=""images/schematic_sequence/dinner_party_scheme/dinner_party_scheme_9.png"" class=""exp-image"">
                    <div class=""question-area"">
                        <p style=""font-size: 20px; font-weight: bold; margin: 0;"">Is there a person in this image?</p>
                    </div>
                </div>","0","main_experiment_trial","9","dinner_party_scheme","schematic_sequence","","","",""
"","","","","","html-keyboard-response","77","355037","0.0-77.0","EF48886CC2C442108BB50B8C21BABF8C","019ceda6-5775-74f0-8db0-11190ae6f5cb","019ceda4-7502-7cd5-b642-b8a83a30c71c","","null","
                <div class=""stimulus-container"">
                    <img src=""images/schematic_sequence/dinner_party_scheme/dinner_party_scheme_ten.png"" class=""exp-image"">
                    <div class=""question-area""></div> 
                </div>","null","","","","","","","",""
"","","","","","html-button-response","78","355425","0.0-78.0","EF48886CC2C442108BB50B8C21BABF8C","019ceda6-5775-74f0-8db0-11190ae6f5cb","019ceda4-7502-7cd5-b642-b8a83a30c71c","","385","
                <div class=""stimulus-container"">
                    <img src=""images/schematic_sequence/dinner_party_scheme/dinner_party_scheme_ten.png"" class=""exp-image"">
                    <div class=""question-area"">
                        <p style=""font-size: 20px; font-weight: bold; margin: 0;"">Is there a person in this image?</p>
                    </div>
                </div>","0","main_experiment_trial","ten","dinner_party_scheme","schematic_sequence","","","",""
"","","","","","html-keyboard-response","79","356440","0.0-79.0","EF48886CC2C442108BB50B8C21BABF8C","019ceda6-5775-74f0-8db0-11190ae6f5cb","019ceda4-7502-7cd5-b642-b8a83a30c71c","","null","<div style=""background-color: white; width: 100vw; height: 100vh;""></div>","null","","","","","","","",""
"","","","","","html-keyboard-response","80","361451","0.0-80.0","EF48886CC2C442108BB50B8C21BABF8C","019ceda6-5775-74f0-8db0-11190ae6f5cb","019ceda4-7502-7cd5-b642-b8a83a30c71c","","null","
                <div class=""stimulus-container"">
                    <img src=""images/schematic_sequence/restaurant_scheme/restaurant_scheme_1.png"" class=""exp-image"">
                    <div class=""question-area""></div> 
                </div>","null","","","","","","","",""
"","","","","","html-button-response","81","361928","0.0-81.0","EF48886CC2C442108BB50B8C21BABF8C","019ceda6-5775-74f0-8db0-11190ae6f5cb","019ceda4-7502-7cd5-b642-b8a83a30c71c","","475","
                <div class=""stimulus-container"">
                    <img src=""images/schematic_sequence/restaurant_scheme/restaurant_scheme_1.png"" class=""exp-image"">
                    <div class=""question-area"">
                        <p style=""font-size: 20px; font-weight: bold; margin: 0;"">Is there a person in this image?</p>
                    </div>
                </div>","0","main_experiment_trial","1","restaurant_scheme","schematic_sequence","","","",""
"","","","","","html-keyboard-response","82","366937","0.0-82.0","EF48886CC2C442108BB50B8C21BABF8C","019ceda6-5775-74f0-8db0-11190ae6f5cb","019ceda4-7502-7cd5-b642-b8a83a30c71c","","null","
                <div class=""stimulus-container"">
                    <img src=""images/schematic_sequence/restaurant_scheme/restaurant_scheme_2.png"" class=""exp-image"">
                    <div class=""question-area""></div> 
                </div>","null","","","","","","","",""
"","","","","","html-button-response","83","367479","0.0-83.0","EF48886CC2C442108BB50B8C21BABF8C","019ceda6-5775-74f0-8db0-11190ae6f5cb","019ceda4-7502-7cd5-b642-b8a83a30c71c","","539","
                <div class=""stimulus-container"">
                    <img src=""images/schematic_sequence/restaurant_scheme/restaurant_scheme_2.png"" class=""exp-image"">
                    <div class=""question-area"">
                        <p style=""font-size: 20px; font-weight: bold; margin: 0;"">Is there a person in this image?</p>
                    </div>
                </div>","1","main_experiment_trial","2","restaurant_scheme","schematic_sequence","","","",""
"","","","","","html-keyboard-response","84","372486","0.0-84.0","EF48886CC2C442108BB50B8C21BABF8C","019ceda6-5775-74f0-8db0-11190ae6f5cb","019ceda4-7502-7cd5-b642-b8a83a30c71c","","null","
                <div class=""stimulus-container"">
                    <img src=""images/schematic_sequence/restaurant_scheme/restaurant_scheme_3.png"" class=""exp-image"">
                    <div class=""question-area""></div> 
                </div>","null","","","","","","","",""
"","","","","","html-button-response","85","372944","0.0-85.0","EF48886CC2C442108BB50B8C21BABF8C","019ceda6-5775-74f0-8db0-11190ae6f5cb","019ceda4-7502-7cd5-b642-b8a83a30c71c","","456","
                <div class=""stimulus-container"">
                    <img src=""images/schematic_sequence/restaurant_scheme/restaurant_scheme_3.png"" class=""exp-image"">
                    <div class=""question-area"">
                        <p style=""font-size: 20px; font-weight: bold; margin: 0;"">Is there a person in this image?</p>
                    </div>
                </div>","1","main_experiment_trial","3","restaurant_scheme","schematic_sequence","","","",""
"","","","","","html-keyboard-response","86","377953","0.0-86.0","EF48886CC2C442108BB50B8C21BABF8C","019ceda6-5775-74f0-8db0-11190ae6f5cb","019ceda4-7502-7cd5-b642-b8a83a30c71c","","null","
                <div class=""stimulus-container"">
                    <img src=""images/schematic_sequence/restaurant_scheme/restaurant_scheme_4.png"" class=""exp-image"">
                    <div class=""question-area""></div> 
                </div>","null","","","","","","","",""
"","","","","","html-button-response","87","378424","0.0-87.0","EF48886CC2C442108BB50B8C21BABF8C","019ceda6-5775-74f0-8db0-11190ae6f5cb","019ceda4-7502-7cd5-b642-b8a83a30c71c","","470","
                <div class=""stimulus-container"">
                    <img src=""images/schematic_sequence/restaurant_scheme/restaurant_scheme_4.png"" class=""exp-image"">
                    <div class=""question-area"">
                        <p style=""font-size: 20px; font-weight: bold; margin: 0;"">Is there a person in this image?</p>
                    </div>
                </div>","0","main_experiment_trial","4","restaurant_scheme","schematic_sequence","","","",""
"","","","","","html-keyboard-response","88","383437","0.0-88.0","EF48886CC2C442108BB50B8C21BABF8C","019ceda6-5775-74f0-8db0-11190ae6f5cb","019ceda4-7502-7cd5-b642-b8a83a30c71c","","null","
                <div class=""stimulus-container"">
                    <img src=""images/schematic_sequence/restaurant_scheme/restaurant_scheme_5.png"" class=""exp-image"">
                    <div class=""question-area""></div> 
                </div>","null","","","","","","","",""
"","","","","","html-button-response","89","383912","0.0-89.0","EF48886CC2C442108BB50B8C21BABF8C","019ceda6-5775-74f0-8db0-11190ae6f5cb","019ceda4-7502-7cd5-b642-b8a83a30c71c","","473","
                <div class=""stimulus-container"">
                    <img src=""images/schematic_sequence/restaurant_scheme/restaurant_scheme_5.png"" class=""exp-image"">
                    <div class=""question-area"">
                        <p style=""font-size: 20px; font-weight: bold; margin: 0;"">Is there a person in this image?</p>
                    </div>
                </div>","0","main_experiment_trial","5","restaurant_scheme","schematic_sequence","","","",""
"","","","","","html-keyboard-response","90","388924","0.0-90.0","EF48886CC2C442108BB50B8C21BABF8C","019ceda6-5775-74f0-8db0-11190ae6f5cb","019ceda4-7502-7cd5-b642-b8a83a30c71c","","null","
                <div class=""stimulus-container"">
                    <img src=""images/schematic_sequence/restaurant_scheme/restaurant_scheme_6.png"" class=""exp-image"">
                    <div class=""question-area""></div> 
                </div>","null","","","","","","","",""
"","","","","","html-button-response","91","389736","0.0-91.0","EF48886CC2C442108BB50B8C21BABF8C","019ceda6-5775-74f0-8db0-11190ae6f5cb","019ceda4-7502-7cd5-b642-b8a83a30c71c","","810","
                <div class=""stimulus-container"">
                    <img src=""images/schematic_sequence/restaurant_scheme/restaurant_scheme_6.png"" class=""exp-image"">
                    <div class=""question-area"">
                        <p style=""font-size: 20px; font-weight: bold; margin: 0;"">Is there a person in this image?</p>
                    </div>
                </div>","1","main_experiment_trial","6","restaurant_scheme","schematic_sequence","","","",""
"","","","","","html-keyboard-response","92","394742","0.0-92.0","EF48886CC2C442108BB50B8C21BABF8C","019ceda6-5775-74f0-8db0-11190ae6f5cb","019ceda4-7502-7cd5-b642-b8a83a30c71c","","null","
                <div class=""stimulus-container"">
                    <img src=""images/schematic_sequence/restaurant_scheme/restaurant_scheme_7.png"" class=""exp-image"">
                    <div class=""question-area""></div> 
                </div>","null","","","","","","","",""
"","","","","","html-button-response","93","395193","0.0-93.0","EF48886CC2C442108BB50B8C21BABF8C","019ceda6-5775-74f0-8db0-11190ae6f5cb","019ceda4-7502-7cd5-b642-b8a83a30c71c","","448","
                <div class=""stimulus-container"">
                    <img src=""images/schematic_sequence/restaurant_scheme/restaurant_scheme_7.png"" class=""exp-image"">
                    <div class=""question-area"">
                        <p style=""font-size: 20px; font-weight: bold; margin: 0;"">Is there a person in this image?</p>
                    </div>
                </div>","1","main_experiment_trial","7","restaurant_scheme","schematic_sequence","","","",""
"","","","","","html-keyboard-response","94","400196","0.0-94.0","EF48886CC2C442108BB50B8C21BABF8C","019ceda6-5775-74f0-8db0-11190ae6f5cb","019ceda4-7502-7cd5-b642-b8a83a30c71c","","null","
                <div class=""stimulus-container"">
                    <img src=""images/schematic_sequence/restaurant_scheme/restaurant_scheme_8.png"" class=""exp-image"">
                    <div class=""question-area""></div> 
                </div>","null","","","","","","","",""
"","","","","","html-button-response","95","400671","0.0-95.0","EF48886CC2C442108BB50B8C21BABF8C","019ceda6-5775-74f0-8db0-11190ae6f5cb","019ceda4-7502-7cd5-b642-b8a83a30c71c","","473","
                <div class=""stimulus-container"">
                    <img src=""images/schematic_sequence/restaurant_scheme/restaurant_scheme_8.png"" class=""exp-image"">
                    <div class=""question-area"">
                        <p style=""font-size: 20px; font-weight: bold; margin: 0;"">Is there a person in this image?</p>
                    </div>
                </div>","1","main_experiment_trial","8","restaurant_scheme","schematic_sequence","","","",""
"","","","","","html-keyboard-response","96","405673","0.0-96.0","EF48886CC2C442108BB50B8C21BABF8C","019ceda6-5775-74f0-8db0-11190ae6f5cb","019ceda4-7502-7cd5-b642-b8a83a30c71c","","null","
                <div class=""stimulus-container"">
                    <img src=""images/schematic_sequence/restaurant_scheme/restaurant_scheme_9.png"" class=""exp-image"">
                    <div class=""question-area""></div> 
                </div>","null","","","","","","","",""
"","","","","","html-button-response","97","406440","0.0-97.0","EF48886CC2C442108BB50B8C21BABF8C","019ceda6-5775-74f0-8db0-11190ae6f5cb","019ceda4-7502-7cd5-b642-b8a83a30c71c","","765","
                <div class=""stimulus-container"">
                    <img src=""images/schematic_sequence/restaurant_scheme/restaurant_scheme_9.png"" class=""exp-image"">
                    <div class=""question-area"">
                        <p style=""font-size: 20px; font-weight: bold; margin: 0;"">Is there a person in this image?</p>
                    </div>
                </div>","0","main_experiment_trial","9","restaurant_scheme","schematic_sequence","","","",""
"","","","","","html-keyboard-response","98","411451","0.0-98.0","EF48886CC2C442108BB50B8C21BABF8C","019ceda6-5775-74f0-8db0-11190ae6f5cb","019ceda4-7502-7cd5-b642-b8a83a30c71c","","null","
                <div class=""stimulus-container"">
                    <img src=""images/schematic_sequence/restaurant_scheme/restaurant_scheme_ten.png"" class=""exp-image"">
                    <div class=""question-area""></div> 
                </div>","null","","","","","","","",""
"","","","","","html-button-response","99","412353","0.0-99.0","EF48886CC2C442108BB50B8C21BABF8C","019ceda6-5775-74f0-8db0-11190ae6f5cb","019ceda4-7502-7cd5-b642-b8a83a30c71c","","899","
                <div class=""stimulus-container"">
                    <img src=""images/schematic_sequence/restaurant_scheme/restaurant_scheme_ten.png"" class=""exp-image"">
                    <div class=""question-area"">
                        <p style=""font-size: 20px; font-weight: bold; margin: 0;"">Is there a person in this image?</p>
                    </div>
                </div>","0","main_experiment_trial","ten","restaurant_scheme","schematic_sequence","","","",""
"","","","","","html-keyboard-response","100","413369","0.0-100.0","EF48886CC2C442108BB50B8C21BABF8C","019ceda6-5775-74f0-8db0-11190ae6f5cb","019ceda4-7502-7cd5-b642-b8a83a30c71c","","null","<div style=""background-color: white; width: 100vw; height: 100vh;""></div>","null","","","","","","","",""
"","","","","","html-keyboard-response","101","418374","0.0-101.0","EF48886CC2C442108BB50B8C21BABF8C","019ceda6-5775-74f0-8db0-11190ae6f5cb","019ceda4-7502-7cd5-b642-b8a83a30c71c","","null","
                <div class=""stimulus-container"">
                    <img src=""images/causal_sequence/museum_causal/museum_causal_1.png"" class=""exp-image"">
                    <div class=""question-area""></div> 
                </div>","null","","","","","","","",""
"","","","","","html-button-response","102","418904","0.0-102.0","EF48886CC2C442108BB50B8C21BABF8C","019ceda6-5775-74f0-8db0-11190ae6f5cb","019ceda4-7502-7cd5-b642-b8a83a30c71c","","529","
                <div class=""stimulus-container"">
                    <img src=""images/causal_sequence/museum_causal/museum_causal_1.png"" class=""exp-image"">
                    <div class=""question-area"">
                        <p style=""font-size: 20px; font-weight: bold; margin: 0;"">Is there a person in this image?</p>
                    </div>
                </div>","0","main_experiment_trial","1","museum_causal","causal_sequence","","","",""
"","","","","","html-keyboard-response","103","423918","0.0-103.0","EF48886CC2C442108BB50B8C21BABF8C","019ceda6-5775-74f0-8db0-11190ae6f5cb","019ceda4-7502-7cd5-b642-b8a83a30c71c","","null","
                <div class=""stimulus-container"">
                    <img src=""images/causal_sequence/museum_causal/museum_causal_2.png"" class=""exp-image"">
                    <div class=""question-area""></div> 
                </div>","null","","","","","","","",""
"","","","","","html-button-response","104","424663","0.0-104.0","EF48886CC2C442108BB50B8C21BABF8C","019ceda6-5775-74f0-8db0-11190ae6f5cb","019ceda4-7502-7cd5-b642-b8a83a30c71c","","744","
                <div class=""stimulus-container"">
                    <img src=""images/causal_sequence/museum_causal/museum_causal_2.png"" class=""exp-image"">
                    <div class=""question-area"">
                        <p style=""font-size: 20px; font-weight: bold; margin: 0;"">Is there a person in this image?</p>
                    </div>
                </div>","1","main_experiment_trial","2","museum_causal","causal_sequence","","","",""
"","","","","","html-keyboard-response","105","429670","0.0-105.0","EF48886CC2C442108BB50B8C21BABF8C","019ceda6-5775-74f0-8db0-11190ae6f5cb","019ceda4-7502-7cd5-b642-b8a83a30c71c","","null","
                <div class=""stimulus-container"">
                    <img src=""images/causal_sequence/museum_causal/museum_causal_3.png"" class=""exp-image"">
                    <div class=""question-area""></div> 
                </div>","null","","","","","","","",""
"","","","","","html-button-response","106","430311","0.0-106.0","EF48886CC2C442108BB50B8C21BABF8C","019ceda6-5775-74f0-8db0-11190ae6f5cb","019ceda4-7502-7cd5-b642-b8a83a30c71c","","640","
                <div class=""stimulus-container"">
                    <img src=""images/causal_sequence/museum_causal/museum_causal_3.png"" class=""exp-image"">
                    <div class=""question-area"">
                        <p style=""font-size: 20px; font-weight: bold; margin: 0;"">Is there a person in this image?</p>
                    </div>
                </div>","0","main_experiment_trial","3","museum_causal","causal_sequence","","","",""
"","","","","","html-keyboard-response","107","435322","0.0-107.0","EF48886CC2C442108BB50B8C21BABF8C","019ceda6-5775-74f0-8db0-11190ae6f5cb","019ceda4-7502-7cd5-b642-b8a83a30c71c","","null","
                <div class=""stimulus-container"">
                    <img src=""images/causal_sequence/museum_causal/museum_causal_4.png"" class=""exp-image"">
                    <div class=""question-area""></div> 
                </div>","null","","","","","","","",""
"","","","","","html-button-response","108","435944","0.0-108.0","EF48886CC2C442108BB50B8C21BABF8C","019ceda6-5775-74f0-8db0-11190ae6f5cb","019ceda4-7502-7cd5-b642-b8a83a30c71c","","619","
                <div class=""stimulus-container"">
                    <img src=""images/causal_sequence/museum_causal/museum_causal_4.png"" class=""exp-image"">
                    <div class=""question-area"">
                        <p style=""font-size: 20px; font-weight: bold; margin: 0;"">Is there a person in this image?</p>
                    </div>
                </div>","1","main_experiment_trial","4","museum_causal","causal_sequence","","","",""
"","","","","","html-keyboard-response","109","440959","0.0-109.0","EF48886CC2C442108BB50B8C21BABF8C","019ceda6-5775-74f0-8db0-11190ae6f5cb","019ceda4-7502-7cd5-b642-b8a83a30c71c","","null","
                <div class=""stimulus-container"">
                    <img src=""images/causal_sequence/museum_causal/museum_causal_5.png"" class=""exp-image"">
                    <div class=""question-area""></div> 
                </div>","null","","","","","","","",""
"","","","","","html-button-response","110","441512","0.0-110.0","EF48886CC2C442108BB50B8C21BABF8C","019ceda6-5775-74f0-8db0-11190ae6f5cb","019ceda4-7502-7cd5-b642-b8a83a30c71c","","551","
                <div class=""stimulus-container"">
                    <img src=""images/causal_sequence/museum_causal/museum_causal_5.png"" class=""exp-image"">
                    <div class=""question-area"">
                        <p style=""font-size: 20px; font-weight: bold; margin: 0;"">Is there a person in this image?</p>
                    </div>
                </div>","0","main_experiment_trial","5","museum_causal","causal_sequence","","","",""
"","","","","","html-keyboard-response","111","446517","0.0-111.0","EF48886CC2C442108BB50B8C21BABF8C","019ceda6-5775-74f0-8db0-11190ae6f5cb","019ceda4-7502-7cd5-b642-b8a83a30c71c","","null","
                <div class=""stimulus-container"">
                    <img src=""images/causal_sequence/museum_causal/museum_causal_6.png"" class=""exp-image"">
                    <div class=""question-area""></div> 
                </div>","null","","","","","","","",""
"","","","","","html-button-response","112","447024","0.0-112.0","EF48886CC2C442108BB50B8C21BABF8C","019ceda6-5775-74f0-8db0-11190ae6f5cb","019ceda4-7502-7cd5-b642-b8a83a30c71c","","506","
                <div class=""stimulus-container"">
                    <img src=""images/causal_sequence/museum_causal/museum_causal_6.png"" class=""exp-image"">
                    <div class=""question-area"">
                        <p style=""font-size: 20px; font-weight: bold; margin: 0;"">Is there a person in this image?</p>
                    </div>
                </div>","0","main_experiment_trial","6","museum_causal","causal_sequence","","","",""
"","","","","","html-keyboard-response","113","452036","0.0-113.0","EF48886CC2C442108BB50B8C21BABF8C","019ceda6-5775-74f0-8db0-11190ae6f5cb","019ceda4-7502-7cd5-b642-b8a83a30c71c","","null","
                <div class=""stimulus-container"">
                    <img src=""images/causal_sequence/museum_causal/museum_causal_7.png"" class=""exp-image"">
                    <div class=""question-area""></div> 
                </div>","null","","","","","","","",""
"","","","","","html-button-response","114","452728","0.0-114.0","EF48886CC2C442108BB50B8C21BABF8C","019ceda6-5775-74f0-8db0-11190ae6f5cb","019ceda4-7502-7cd5-b642-b8a83a30c71c","","690","
                <div class=""stimulus-container"">
                    <img src=""images/causal_sequence/museum_causal/museum_causal_7.png"" class=""exp-image"">
                    <div class=""question-area"">
                        <p style=""font-size: 20px; font-weight: bold; margin: 0;"">Is there a person in this image?</p>
                    </div>
                </div>","1","main_experiment_trial","7","museum_causal","causal_sequence","","","",""
"","","","","","html-keyboard-response","115","457743","0.0-115.0","EF48886CC2C442108BB50B8C21BABF8C","019ceda6-5775-74f0-8db0-11190ae6f5cb","019ceda4-7502-7cd5-b642-b8a83a30c71c","","null","
                <div class=""stimulus-container"">
                    <img src=""images/causal_sequence/museum_causal/museum_causal_8.png"" class=""exp-image"">
                    <div class=""question-area""></div> 
                </div>","null","","","","","","","",""
"","","","","","html-button-response","116","458528","0.0-116.0","EF48886CC2C442108BB50B8C21BABF8C","019ceda6-5775-74f0-8db0-11190ae6f5cb","019ceda4-7502-7cd5-b642-b8a83a30c71c","","783","
                <div class=""stimulus-container"">
                    <img src=""images/causal_sequence/museum_causal/museum_causal_8.png"" class=""exp-image"">
                    <div class=""question-area"">
                        <p style=""font-size: 20px; font-weight: bold; margin: 0;"">Is there a person in this image?</p>
                    </div>
                </div>","0","main_experiment_trial","8","museum_causal","causal_sequence","","","",""
"","","","","","html-keyboard-response","117","463541","0.0-117.0","EF48886CC2C442108BB50B8C21BABF8C","019ceda6-5775-74f0-8db0-11190ae6f5cb","019ceda4-7502-7cd5-b642-b8a83a30c71c","","null","
                <div class=""stimulus-container"">
                    <img src=""images/causal_sequence/museum_causal/museum_causal_9.png"" class=""exp-image"">
                    <div class=""question-area""></div> 
                </div>","null","","","","","","","",""
"","","","","","html-button-response","118","464095","0.0-118.0","EF48886CC2C442108BB50B8C21BABF8C","019ceda6-5775-74f0-8db0-11190ae6f5cb","019ceda4-7502-7cd5-b642-b8a83a30c71c","","553","
                <div class=""stimulus-container"">
                    <img src=""images/causal_sequence/museum_causal/museum_causal_9.png"" class=""exp-image"">
                    <div class=""question-area"">
                        <p style=""font-size: 20px; font-weight: bold; margin: 0;"">Is there a person in this image?</p>
                    </div>
                </div>","1","main_experiment_trial","9","museum_causal","causal_sequence","","","",""
"","","","","","html-keyboard-response","119","469107","0.0-119.0","EF48886CC2C442108BB50B8C21BABF8C","019ceda6-5775-74f0-8db0-11190ae6f5cb","019ceda4-7502-7cd5-b642-b8a83a30c71c","","null","
                <div class=""stimulus-container"">
                    <img src=""images/causal_sequence/museum_causal/museum_causal_ten.png"" class=""exp-image"">
                    <div class=""question-area""></div> 
                </div>","null","","","","","","","",""
"","","","","","html-button-response","120","469632","0.0-120.0","EF48886CC2C442108BB50B8C21BABF8C","019ceda6-5775-74f0-8db0-11190ae6f5cb","019ceda4-7502-7cd5-b642-b8a83a30c71c","","523","
                <div class=""stimulus-container"">
                    <img src=""images/causal_sequence/museum_causal/museum_causal_ten.png"" class=""exp-image"">
                    <div class=""question-area"">
                        <p style=""font-size: 20px; font-weight: bold; margin: 0;"">Is there a person in this image?</p>
                    </div>
                </div>","0","main_experiment_trial","ten","museum_causal","causal_sequence","","","",""
"","","","","","html-keyboard-response","121","470647","0.0-121.0","EF48886CC2C442108BB50B8C21BABF8C","019ceda6-5775-74f0-8db0-11190ae6f5cb","019ceda4-7502-7cd5-b642-b8a83a30c71c","","null","<div style=""background-color: white; width: 100vw; height: 100vh;""></div>","null","","","","","","","",""
"","","","","","html-keyboard-response","122","475649","0.0-122.0","EF48886CC2C442108BB50B8C21BABF8C","019ceda6-5775-74f0-8db0-11190ae6f5cb","019ceda4-7502-7cd5-b642-b8a83a30c71c","","null","
                <div class=""stimulus-container"">
                    <img src=""images/causal_sequence/saving_a_cat_causal/saving_a_cat_causal_1.png"" class=""exp-image"">
                    <div class=""question-area""></div> 
                </div>","null","","","","","","","",""
"","","","","","html-button-response","123","476128","0.0-123.0","EF48886CC2C442108BB50B8C21BABF8C","019ceda6-5775-74f0-8db0-11190ae6f5cb","019ceda4-7502-7cd5-b642-b8a83a30c71c","","477","
                <div class=""stimulus-container"">
                    <img src=""images/causal_sequence/saving_a_cat_causal/saving_a_cat_causal_1.png"" class=""exp-image"">
                    <div class=""question-area"">
                        <p style=""font-size: 20px; font-weight: bold; margin: 0;"">Is there a person in this image?</p>
                    </div>
                </div>","0","main_experiment_trial","1","saving_a_cat_causal","causal_sequence","","","",""
"","","","","","html-keyboard-response","124","481140","0.0-124.0","EF48886CC2C442108BB50B8C21BABF8C","019ceda6-5775-74f0-8db0-11190ae6f5cb","019ceda4-7502-7cd5-b642-b8a83a30c71c","","null","
                <div class=""stimulus-container"">
                    <img src=""images/causal_sequence/saving_a_cat_causal/saving_a_cat_causal_2.png"" class=""exp-image"">
                    <div class=""question-area""></div> 
                </div>","null","","","","","","","",""
"","","","","","html-button-response","125","482400","0.0-125.0","EF48886CC2C442108BB50B8C21BABF8C","019ceda6-5775-74f0-8db0-11190ae6f5cb","019ceda4-7502-7cd5-b642-b8a83a30c71c","","1259","
                <div class=""stimulus-container"">
                    <img src=""images/causal_sequence/saving_a_cat_causal/saving_a_cat_causal_2.png"" class=""exp-image"">
                    <div class=""question-area"">
                        <p style=""font-size: 20px; font-weight: bold; margin: 0;"">Is there a person in this image?</p>
                    </div>
                </div>","1","main_experiment_trial","2","saving_a_cat_causal","causal_sequence","","","",""
"","","","","","html-keyboard-response","126","487407","0.0-126.0","EF48886CC2C442108BB50B8C21BABF8C","019ceda6-5775-74f0-8db0-11190ae6f5cb","019ceda4-7502-7cd5-b642-b8a83a30c71c","","null","
                <div class=""stimulus-container"">
                    <img src=""images/causal_sequence/saving_a_cat_causal/saving_a_cat_causal_3.png"" class=""exp-image"">
                    <div class=""question-area""></div> 
                </div>","null","","","","","","","",""
"","","","","","html-button-response","127","487855","0.0-127.0","EF48886CC2C442108BB50B8C21BABF8C","019ceda6-5775-74f0-8db0-11190ae6f5cb","019ceda4-7502-7cd5-b642-b8a83a30c71c","","446","
                <div class=""stimulus-container"">
                    <img src=""images/causal_sequence/saving_a_cat_causal/saving_a_cat_causal_3.png"" class=""exp-image"">
                    <div class=""question-area"">
                        <p style=""font-size: 20px; font-weight: bold; margin: 0;"">Is there a person in this image?</p>
                    </div>
                </div>","1","main_experiment_trial","3","saving_a_cat_causal","causal_sequence","","","",""
"","","","","","html-keyboard-response","128","492865","0.0-128.0","EF48886CC2C442108BB50B8C21BABF8C","019ceda6-5775-74f0-8db0-11190ae6f5cb","019ceda4-7502-7cd5-b642-b8a83a30c71c","","null","
                <div class=""stimulus-container"">
                    <img src=""images/causal_sequence/saving_a_cat_causal/saving_a_cat_causal_4.png"" class=""exp-image"">
                    <div class=""question-area""></div> 
                </div>","null","","","","","","","",""
"","","","","","html-button-response","129","493561","0.0-129.0","EF48886CC2C442108BB50B8C21BABF8C","019ceda6-5775-74f0-8db0-11190ae6f5cb","019ceda4-7502-7cd5-b642-b8a83a30c71c","","693","
                <div class=""stimulus-container"">
                    <img src=""images/causal_sequence/saving_a_cat_causal/saving_a_cat_causal_4.png"" class=""exp-image"">
                    <div class=""question-area"">
                        <p style=""font-size: 20px; font-weight: bold; margin: 0;"">Is there a person in this image?</p>
                    </div>
                </div>","0","main_experiment_trial","4","saving_a_cat_causal","causal_sequence","","","",""
"","","","","","html-keyboard-response","130","498566","0.0-130.0","EF48886CC2C442108BB50B8C21BABF8C","019ceda6-5775-74f0-8db0-11190ae6f5cb","019ceda4-7502-7cd5-b642-b8a83a30c71c","","null","
                <div class=""stimulus-container"">
                    <img src=""images/causal_sequence/saving_a_cat_causal/saving_a_cat_causal_5.png"" class=""exp-image"">
                    <div class=""question-area""></div> 
                </div>","null","","","","","","","",""
"","","","","","html-button-response","131","499024","0.0-131.0","EF48886CC2C442108BB50B8C21BABF8C","019ceda6-5775-74f0-8db0-11190ae6f5cb","019ceda4-7502-7cd5-b642-b8a83a30c71c","","456","
                <div class=""stimulus-container"">
                    <img src=""images/causal_sequence/saving_a_cat_causal/saving_a_cat_causal_5.png"" class=""exp-image"">
                    <div class=""question-area"">
                        <p style=""font-size: 20px; font-weight: bold; margin: 0;"">Is there a person in this image?</p>
                    </div>
                </div>","0","main_experiment_trial","5","saving_a_cat_causal","causal_sequence","","","",""
"","","","","","html-keyboard-response","132","504028","0.0-132.0","EF48886CC2C442108BB50B8C21BABF8C","019ceda6-5775-74f0-8db0-11190ae6f5cb","019ceda4-7502-7cd5-b642-b8a83a30c71c","","null","
                <div class=""stimulus-container"">
                    <img src=""images/causal_sequence/saving_a_cat_causal/saving_a_cat_causal_6.png"" class=""exp-image"">
                    <div class=""question-area""></div> 
                </div>","null","","","","","","","",""
"","","","","","html-button-response","133","504736","0.0-133.0","EF48886CC2C442108BB50B8C21BABF8C","019ceda6-5775-74f0-8db0-11190ae6f5cb","019ceda4-7502-7cd5-b642-b8a83a30c71c","","706","
                <div class=""stimulus-container"">
                    <img src=""images/causal_sequence/saving_a_cat_causal/saving_a_cat_causal_6.png"" class=""exp-image"">
                    <div class=""question-area"">
                        <p style=""font-size: 20px; font-weight: bold; margin: 0;"">Is there a person in this image?</p>
                    </div>
                </div>","0","main_experiment_trial","6","saving_a_cat_causal","causal_sequence","","","",""
"","","","","","html-keyboard-response","134","509752","0.0-134.0","EF48886CC2C442108BB50B8C21BABF8C","019ceda6-5775-74f0-8db0-11190ae6f5cb","019ceda4-7502-7cd5-b642-b8a83a30c71c","","null","
                <div class=""stimulus-container"">
                    <img src=""images/causal_sequence/saving_a_cat_causal/saving_a_cat_causal_7.png"" class=""exp-image"">
                    <div class=""question-area""></div> 
                </div>","null","","","","","","","",""
"","","","","","html-button-response","135","510208","0.0-135.0","EF48886CC2C442108BB50B8C21BABF8C","019ceda6-5775-74f0-8db0-11190ae6f5cb","019ceda4-7502-7cd5-b642-b8a83a30c71c","","453","
                <div class=""stimulus-container"">
                    <img src=""images/causal_sequence/saving_a_cat_causal/saving_a_cat_causal_7.png"" class=""exp-image"">
                    <div class=""question-area"">
                        <p style=""font-size: 20px; font-weight: bold; margin: 0;"">Is there a person in this image?</p>
                    </div>
                </div>","0","main_experiment_trial","7","saving_a_cat_causal","causal_sequence","","","",""
"","","","","","html-keyboard-response","136","515221","0.0-136.0","EF48886CC2C442108BB50B8C21BABF8C","019ceda6-5775-74f0-8db0-11190ae6f5cb","019ceda4-7502-7cd5-b642-b8a83a30c71c","","null","
                <div class=""stimulus-container"">
                    <img src=""images/causal_sequence/saving_a_cat_causal/saving_a_cat_causal_8.png"" class=""exp-image"">
                    <div class=""question-area""></div> 
                </div>","null","","","","","","","",""
"","","","","","html-button-response","137","515744","0.0-137.0","EF48886CC2C442108BB50B8C21BABF8C","019ceda6-5775-74f0-8db0-11190ae6f5cb","019ceda4-7502-7cd5-b642-b8a83a30c71c","","522","
                <div class=""stimulus-container"">
                    <img src=""images/causal_sequence/saving_a_cat_causal/saving_a_cat_causal_8.png"" class=""exp-image"">
                    <div class=""question-area"">
                        <p style=""font-size: 20px; font-weight: bold; margin: 0;"">Is there a person in this image?</p>
                    </div>
                </div>","0","main_experiment_trial","8","saving_a_cat_causal","causal_sequence","","","",""
"","","","","","html-keyboard-response","138","520761","0.0-138.0","EF48886CC2C442108BB50B8C21BABF8C","019ceda6-5775-74f0-8db0-11190ae6f5cb","019ceda4-7502-7cd5-b642-b8a83a30c71c","","null","
                <div class=""stimulus-container"">
                    <img src=""images/causal_sequence/saving_a_cat_causal/saving_a_cat_causal_9.png"" class=""exp-image"">
                    <div class=""question-area""></div> 
                </div>","null","","","","","","","",""
"","","","","","html-button-response","139","521344","0.0-139.0","EF48886CC2C442108BB50B8C21BABF8C","019ceda6-5775-74f0-8db0-11190ae6f5cb","019ceda4-7502-7cd5-b642-b8a83a30c71c","","581","
                <div class=""stimulus-container"">
                    <img src=""images/causal_sequence/saving_a_cat_causal/saving_a_cat_causal_9.png"" class=""exp-image"">
                    <div class=""question-area"">
                        <p style=""font-size: 20px; font-weight: bold; margin: 0;"">Is there a person in this image?</p>
                    </div>
                </div>","0","main_experiment_trial","9","saving_a_cat_causal","causal_sequence","","","",""
"","","","","","html-keyboard-response","140","526351","0.0-140.0","EF48886CC2C442108BB50B8C21BABF8C","019ceda6-5775-74f0-8db0-11190ae6f5cb","019ceda4-7502-7cd5-b642-b8a83a30c71c","","null","
                <div class=""stimulus-container"">
                    <img src=""images/causal_sequence/saving_a_cat_causal/saving_a_cat_causal_ten.png"" class=""exp-image"">
                    <div class=""question-area""></div> 
                </div>","null","","","","","","","",""
"","","","","","html-button-response","141","526816","0.0-141.0","EF48886CC2C442108BB50B8C21BABF8C","019ceda6-5775-74f0-8db0-11190ae6f5cb","019ceda4-7502-7cd5-b642-b8a83a30c71c","","463","
                <div class=""stimulus-container"">
                    <img src=""images/causal_sequence/saving_a_cat_causal/saving_a_cat_causal_ten.png"" class=""exp-image"">
                    <div class=""question-area"">
                        <p style=""font-size: 20px; font-weight: bold; margin: 0;"">Is there a person in this image?</p>
                    </div>
                </div>","0","main_experiment_trial","ten","saving_a_cat_causal","causal_sequence","","","",""
"","","","","","html-keyboard-response","142","527820","0.0-142.0","EF48886CC2C442108BB50B8C21BABF8C","019ceda6-5775-74f0-8db0-11190ae6f5cb","019ceda4-7502-7cd5-b642-b8a83a30c71c","","null","<div style=""background-color: white; width: 100vw; height: 100vh;""></div>","null","","","","","","","",""
"","","","","","html-keyboard-response","143","532830","0.0-143.0","EF48886CC2C442108BB50B8C21BABF8C","019ceda6-5775-74f0-8db0-11190ae6f5cb","019ceda4-7502-7cd5-b642-b8a83a30c71c","","null","
                <div class=""stimulus-container"">
                    <img src=""images/causal_sequence/the_performance_causal/the_performance_causal_1.png"" class=""exp-image"">
                    <div class=""question-area""></div> 
                </div>","null","","","","","","","",""
"","","","","","html-button-response","144","533384","0.0-144.0","EF48886CC2C442108BB50B8C21BABF8C","019ceda6-5775-74f0-8db0-11190ae6f5cb","019ceda4-7502-7cd5-b642-b8a83a30c71c","","552","
                <div class=""stimulus-container"">
                    <img src=""images/causal_sequence/the_performance_causal/the_performance_causal_1.png"" class=""exp-image"">
                    <div class=""question-area"">
                        <p style=""font-size: 20px; font-weight: bold; margin: 0;"">Is there a person in this image?</p>
                    </div>
                </div>","0","main_experiment_trial","1","the_performance_causal","causal_sequence","","","",""
"","","","","","html-keyboard-response","145","538388","0.0-145.0","EF48886CC2C442108BB50B8C21BABF8C","019ceda6-5775-74f0-8db0-11190ae6f5cb","019ceda4-7502-7cd5-b642-b8a83a30c71c","","null","
                <div class=""stimulus-container"">
                    <img src=""images/causal_sequence/the_performance_causal/the_performance_causal_2.png"" class=""exp-image"">
                    <div class=""question-area""></div> 
                </div>","null","","","","","","","",""
"","","","","","html-button-response","146","538841","0.0-146.0","EF48886CC2C442108BB50B8C21BABF8C","019ceda6-5775-74f0-8db0-11190ae6f5cb","019ceda4-7502-7cd5-b642-b8a83a30c71c","","450","
                <div class=""stimulus-container"">
                    <img src=""images/causal_sequence/the_performance_causal/the_performance_causal_2.png"" class=""exp-image"">
                    <div class=""question-area"">
                        <p style=""font-size: 20px; font-weight: bold; margin: 0;"">Is there a person in this image?</p>
                    </div>
                </div>","0","main_experiment_trial","2","the_performance_causal","causal_sequence","","","",""
"","","","","","html-keyboard-response","147","543855","0.0-147.0","EF48886CC2C442108BB50B8C21BABF8C","019ceda6-5775-74f0-8db0-11190ae6f5cb","019ceda4-7502-7cd5-b642-b8a83a30c71c","","null","
                <div class=""stimulus-container"">
                    <img src=""images/causal_sequence/the_performance_causal/the_performance_causal_3.png"" class=""exp-image"">
                    <div class=""question-area""></div> 
                </div>","null","","","","","","","",""
"","","","","","html-button-response","148","544336","0.0-148.0","EF48886CC2C442108BB50B8C21BABF8C","019ceda6-5775-74f0-8db0-11190ae6f5cb","019ceda4-7502-7cd5-b642-b8a83a30c71c","","478","
                <div class=""stimulus-container"">
                    <img src=""images/causal_sequence/the_performance_causal/the_performance_causal_3.png"" class=""exp-image"">
                    <div class=""question-area"">
                        <p style=""font-size: 20px; font-weight: bold; margin: 0;"">Is there a person in this image?</p>
                    </div>
                </div>","0","main_experiment_trial","3","the_performance_causal","causal_sequence","","","",""
"","","","","","html-keyboard-response","149","549346","0.0-149.0","EF48886CC2C442108BB50B8C21BABF8C","019ceda6-5775-74f0-8db0-11190ae6f5cb","019ceda4-7502-7cd5-b642-b8a83a30c71c","","null","
                <div class=""stimulus-container"">
                    <img src=""images/causal_sequence/the_performance_causal/the_performance_causal_4.png"" class=""exp-image"">
                    <div class=""question-area""></div> 
                </div>","null","","","","","","","",""
"","","","","","html-button-response","150","549928","0.0-150.0","EF48886CC2C442108BB50B8C21BABF8C","019ceda6-5775-74f0-8db0-11190ae6f5cb","019ceda4-7502-7cd5-b642-b8a83a30c71c","","581","
                <div class=""stimulus-container"">
                    <img src=""images/causal_sequence/the_performance_causal/the_performance_causal_4.png"" class=""exp-image"">
                    <div class=""question-area"">
                        <p style=""font-size: 20px; font-weight: bold; margin: 0;"">Is there a person in this image?</p>
                    </div>
                </div>","0","main_experiment_trial","4","the_performance_causal","causal_sequence","","","",""
"","","","","","html-keyboard-response","151","554930","0.0-151.0","EF48886CC2C442108BB50B8C21BABF8C","019ceda6-5775-74f0-8db0-11190ae6f5cb","019ceda4-7502-7cd5-b642-b8a83a30c71c","","null","
                <div class=""stimulus-container"">
                    <img src=""images/causal_sequence/the_performance_causal/the_performance_causal_5.png"" class=""exp-image"">
                    <div class=""question-area""></div> 
                </div>","null","","","","","","","",""
"","","","","","html-button-response","152","555688","0.0-152.0","EF48886CC2C442108BB50B8C21BABF8C","019ceda6-5775-74f0-8db0-11190ae6f5cb","019ceda4-7502-7cd5-b642-b8a83a30c71c","","756","
                <div class=""stimulus-container"">
                    <img src=""images/causal_sequence/the_performance_causal/the_performance_causal_5.png"" class=""exp-image"">
                    <div class=""question-area"">
                        <p style=""font-size: 20px; font-weight: bold; margin: 0;"">Is there a person in this image?</p>
                    </div>
                </div>","0","main_experiment_trial","5","the_performance_causal","causal_sequence","","","",""
"","","","","","html-keyboard-response","153","560690","0.0-153.0","EF48886CC2C442108BB50B8C21BABF8C","019ceda6-5775-74f0-8db0-11190ae6f5cb","019ceda4-7502-7cd5-b642-b8a83a30c71c","","null","
                <div class=""stimulus-container"">
                    <img src=""images/causal_sequence/the_performance_causal/the_performance_causal_6.png"" class=""exp-image"">
                    <div class=""question-area""></div> 
                </div>","null","","","","","","","",""
"","","","","","html-button-response","154","561279","0.0-154.0","EF48886CC2C442108BB50B8C21BABF8C","019ceda6-5775-74f0-8db0-11190ae6f5cb","019ceda4-7502-7cd5-b642-b8a83a30c71c","","588","
                <div class=""stimulus-container"">
                    <img src=""images/causal_sequence/the_performance_causal/the_performance_causal_6.png"" class=""exp-image"">
                    <div class=""question-area"">
                        <p style=""font-size: 20px; font-weight: bold; margin: 0;"">Is there a person in this image?</p>
                    </div>
                </div>","0","main_experiment_trial","6","the_performance_causal","causal_sequence","","","",""
"","","","","","html-keyboard-response","155","566295","0.0-155.0","EF48886CC2C442108BB50B8C21BABF8C","019ceda6-5775-74f0-8db0-11190ae6f5cb","019ceda4-7502-7cd5-b642-b8a83a30c71c","","null","
                <div class=""stimulus-container"">
                    <img src=""images/causal_sequence/the_performance_causal/the_performance_causal_7.png"" class=""exp-image"">
                    <div class=""question-area""></div> 
                </div>","null","","","","","","","",""
"","","","","","html-button-response","156","567008","0.0-156.0","EF48886CC2C442108BB50B8C21BABF8C","019ceda6-5775-74f0-8db0-11190ae6f5cb","019ceda4-7502-7cd5-b642-b8a83a30c71c","","711","
                <div class=""stimulus-container"">
                    <img src=""images/causal_sequence/the_performance_causal/the_performance_causal_7.png"" class=""exp-image"">
                    <div class=""question-area"">
                        <p style=""font-size: 20px; font-weight: bold; margin: 0;"">Is there a person in this image?</p>
                    </div>
                </div>","0","main_experiment_trial","7","the_performance_causal","causal_sequence","","","",""
"","","","","","html-keyboard-response","157","572024","0.0-157.0","EF48886CC2C442108BB50B8C21BABF8C","019ceda6-5775-74f0-8db0-11190ae6f5cb","019ceda4-7502-7cd5-b642-b8a83a30c71c","","null","
                <div class=""stimulus-container"">
                    <img src=""images/causal_sequence/the_performance_causal/the_performance_causal_8.png"" class=""exp-image"">
                    <div class=""question-area""></div> 
                </div>","null","","","","","","","",""
"","","","","","html-button-response","158","572848","0.0-158.0","EF48886CC2C442108BB50B8C21BABF8C","019ceda6-5775-74f0-8db0-11190ae6f5cb","019ceda4-7502-7cd5-b642-b8a83a30c71c","","822","
                <div class=""stimulus-container"">
                    <img src=""images/causal_sequence/the_performance_causal/the_performance_causal_8.png"" class=""exp-image"">
                    <div class=""question-area"">
                        <p style=""font-size: 20px; font-weight: bold; margin: 0;"">Is there a person in this image?</p>
                    </div>
                </div>","0","main_experiment_trial","8","the_performance_causal","causal_sequence","","","",""
"","","","","","html-keyboard-response","159","577856","0.0-159.0","EF48886CC2C442108BB50B8C21BABF8C","019ceda6-5775-74f0-8db0-11190ae6f5cb","019ceda4-7502-7cd5-b642-b8a83a30c71c","","null","
                <div class=""stimulus-container"">
                    <img src=""images/causal_sequence/the_performance_causal/the_performance_causal_9.png"" class=""exp-image"">
                    <div class=""question-area""></div> 
                </div>","null","","","","","","","",""
"","","","","","html-button-response","160","578528","0.0-160.0","EF48886CC2C442108BB50B8C21BABF8C","019ceda6-5775-74f0-8db0-11190ae6f5cb","019ceda4-7502-7cd5-b642-b8a83a30c71c","","670","
                <div class=""stimulus-container"">
                    <img src=""images/causal_sequence/the_performance_causal/the_performance_causal_9.png"" class=""exp-image"">
                    <div class=""question-area"">
                        <p style=""font-size: 20px; font-weight: bold; margin: 0;"">Is there a person in this image?</p>
                    </div>
                </div>","0","main_experiment_trial","9","the_performance_causal","causal_sequence","","","",""
"","","","","","html-keyboard-response","161","583543","0.0-161.0","EF48886CC2C442108BB50B8C21BABF8C","019ceda6-5775-74f0-8db0-11190ae6f5cb","019ceda4-7502-7cd5-b642-b8a83a30c71c","","null","
                <div class=""stimulus-container"">
                    <img src=""images/causal_sequence/the_performance_causal/the_performance_causal_ten.png"" class=""exp-image"">
                    <div class=""question-area""></div> 
                </div>","null","","","","","","","",""
"","","","","","html-button-response","162","584048","0.0-162.0","EF48886CC2C442108BB50B8C21BABF8C","019ceda6-5775-74f0-8db0-11190ae6f5cb","019ceda4-7502-7cd5-b642-b8a83a30c71c","","503","
                <div class=""stimulus-container"">
                    <img src=""images/causal_sequence/the_performance_causal/the_performance_causal_ten.png"" class=""exp-image"">
                    <div class=""question-area"">
                        <p style=""font-size: 20px; font-weight: bold; margin: 0;"">Is there a person in this image?</p>
                    </div>
                </div>","0","main_experiment_trial","ten","the_performance_causal","causal_sequence","","","",""
"","","","","","html-keyboard-response","163","585051","0.0-163.0","EF48886CC2C442108BB50B8C21BABF8C","019ceda6-5775-74f0-8db0-11190ae6f5cb","019ceda4-7502-7cd5-b642-b8a83a30c71c","","null","<div style=""background-color: white; width: 100vw; height: 100vh;""></div>","null","","","","","","","",""
"","","","","","html-keyboard-response","164","590053","0.0-164.0","EF48886CC2C442108BB50B8C21BABF8C","019ceda6-5775-74f0-8db0-11190ae6f5cb","019ceda4-7502-7cd5-b642-b8a83a30c71c","","null","
                <div class=""stimulus-container"">
                    <img src=""images/causal_sequence/package_causal/package_causal_1.png"" class=""exp-image"">
                    <div class=""question-area""></div> 
                </div>","null","","","","","","","",""
"","","","","","html-button-response","165","590520","0.0-165.0","EF48886CC2C442108BB50B8C21BABF8C","019ceda6-5775-74f0-8db0-11190ae6f5cb","019ceda4-7502-7cd5-b642-b8a83a30c71c","","465","
                <div class=""stimulus-container"">
                    <img src=""images/causal_sequence/package_causal/package_causal_1.png"" class=""exp-image"">
                    <div class=""question-area"">
                        <p style=""font-size: 20px; font-weight: bold; margin: 0;"">Is there a person in this image?</p>
                    </div>
                </div>","0","main_experiment_trial","1","package_causal","causal_sequence","","","",""
"","","","","","html-keyboard-response","166","595534","0.0-166.0","EF48886CC2C442108BB50B8C21BABF8C","019ceda6-5775-74f0-8db0-11190ae6f5cb","019ceda4-7502-7cd5-b642-b8a83a30c71c","","null","
                <div class=""stimulus-container"">
                    <img src=""images/causal_sequence/package_causal/package_causal_2.png"" class=""exp-image"">
                    <div class=""question-area""></div> 
                </div>","null","","","","","","","",""
"","","","","","html-button-response","167","596824","0.0-167.0","EF48886CC2C442108BB50B8C21BABF8C","019ceda6-5775-74f0-8db0-11190ae6f5cb","019ceda4-7502-7cd5-b642-b8a83a30c71c","","1288","
                <div class=""stimulus-container"">
                    <img src=""images/causal_sequence/package_causal/package_causal_2.png"" class=""exp-image"">
                    <div class=""question-area"">
                        <p style=""font-size: 20px; font-weight: bold; margin: 0;"">Is there a person in this image?</p>
                    </div>
                </div>","0","main_experiment_trial","2","package_causal","causal_sequence","","","",""
"","","","","","html-keyboard-response","168","601837","0.0-168.0","EF48886CC2C442108BB50B8C21BABF8C","019ceda6-5775-74f0-8db0-11190ae6f5cb","019ceda4-7502-7cd5-b642-b8a83a30c71c","","null","
                <div class=""stimulus-container"">
                    <img src=""images/causal_sequence/package_causal/package_causal_3.png"" class=""exp-image"">
                    <div class=""question-area""></div> 
                </div>","null","","","","","","","",""
"","","","","","html-button-response","169","602296","0.0-169.0","EF48886CC2C442108BB50B8C21BABF8C","019ceda6-5775-74f0-8db0-11190ae6f5cb","019ceda4-7502-7cd5-b642-b8a83a30c71c","","456","
                <div class=""stimulus-container"">
                    <img src=""images/causal_sequence/package_causal/package_causal_3.png"" class=""exp-image"">
                    <div class=""question-area"">
                        <p style=""font-size: 20px; font-weight: bold; margin: 0;"">Is there a person in this image?</p>
                    </div>
                </div>","0","main_experiment_trial","3","package_causal","causal_sequence","","","",""
"","","","","","html-keyboard-response","170","607309","0.0-170.0","EF48886CC2C442108BB50B8C21BABF8C","019ceda6-5775-74f0-8db0-11190ae6f5cb","019ceda4-7502-7cd5-b642-b8a83a30c71c","","null","
                <div class=""stimulus-container"">
                    <img src=""images/causal_sequence/package_causal/package_causal_4.png"" class=""exp-image"">
                    <div class=""question-area""></div> 
                </div>","null","","","","","","","",""
"","","","","","html-button-response","171","608032","0.0-171.0","EF48886CC2C442108BB50B8C21BABF8C","019ceda6-5775-74f0-8db0-11190ae6f5cb","019ceda4-7502-7cd5-b642-b8a83a30c71c","","719","
                <div class=""stimulus-container"">
                    <img src=""images/causal_sequence/package_causal/package_causal_4.png"" class=""exp-image"">
                    <div class=""question-area"">
                        <p style=""font-size: 20px; font-weight: bold; margin: 0;"">Is there a person in this image?</p>
                    </div>
                </div>","1","main_experiment_trial","4","package_causal","causal_sequence","","","",""
"","","","","","html-keyboard-response","172","613035","0.0-172.0","EF48886CC2C442108BB50B8C21BABF8C","019ceda6-5775-74f0-8db0-11190ae6f5cb","019ceda4-7502-7cd5-b642-b8a83a30c71c","","null","
                <div class=""stimulus-container"">
                    <img src=""images/causal_sequence/package_causal/package_causal_5.png"" class=""exp-image"">
                    <div class=""question-area""></div> 
                </div>","null","","","","","","","",""
"","","","","","html-button-response","173","613608","0.0-173.0","EF48886CC2C442108BB50B8C21BABF8C","019ceda6-5775-74f0-8db0-11190ae6f5cb","019ceda4-7502-7cd5-b642-b8a83a30c71c","","570","
                <div class=""stimulus-container"">
                    <img src=""images/causal_sequence/package_causal/package_causal_5.png"" class=""exp-image"">
                    <div class=""question-area"">
                        <p style=""font-size: 20px; font-weight: bold; margin: 0;"">Is there a person in this image?</p>
                    </div>
                </div>","0","main_experiment_trial","5","package_causal","causal_sequence","","","",""
"","","","","","html-keyboard-response","174","618614","0.0-174.0","EF48886CC2C442108BB50B8C21BABF8C","019ceda6-5775-74f0-8db0-11190ae6f5cb","019ceda4-7502-7cd5-b642-b8a83a30c71c","","null","
                <div class=""stimulus-container"">
                    <img src=""images/causal_sequence/package_causal/package_causal_6.png"" class=""exp-image"">
                    <div class=""question-area""></div> 
                </div>","null","","","","","","","",""
"","","","","","html-button-response","175","620920","0.0-175.0","EF48886CC2C442108BB50B8C21BABF8C","019ceda6-5775-74f0-8db0-11190ae6f5cb","019ceda4-7502-7cd5-b642-b8a83a30c71c","","2303","
                <div class=""stimulus-container"">
                    <img src=""images/causal_sequence/package_causal/package_causal_6.png"" class=""exp-image"">
                    <div class=""question-area"">
                        <p style=""font-size: 20px; font-weight: bold; margin: 0;"">Is there a person in this image?</p>
                    </div>
                </div>","0","main_experiment_trial","6","package_causal","causal_sequence","","","",""
"","","","","","html-keyboard-response","176","625933","0.0-176.0","EF48886CC2C442108BB50B8C21BABF8C","019ceda6-5775-74f0-8db0-11190ae6f5cb","019ceda4-7502-7cd5-b642-b8a83a30c71c","","null","
                <div class=""stimulus-container"">
                    <img src=""images/causal_sequence/package_causal/package_causal_7.png"" class=""exp-image"">
                    <div class=""question-area""></div> 
                </div>","null","","","","","","","",""
"","","","","","html-button-response","177","626703","0.0-177.0","EF48886CC2C442108BB50B8C21BABF8C","019ceda6-5775-74f0-8db0-11190ae6f5cb","019ceda4-7502-7cd5-b642-b8a83a30c71c","","769","
                <div class=""stimulus-container"">
                    <img src=""images/causal_sequence/package_causal/package_causal_7.png"" class=""exp-image"">
                    <div class=""question-area"">
                        <p style=""font-size: 20px; font-weight: bold; margin: 0;"">Is there a person in this image?</p>
                    </div>
                </div>","0","main_experiment_trial","7","package_causal","causal_sequence","","","",""
"","","","","","html-keyboard-response","178","631715","0.0-178.0","EF48886CC2C442108BB50B8C21BABF8C","019ceda6-5775-74f0-8db0-11190ae6f5cb","019ceda4-7502-7cd5-b642-b8a83a30c71c","","null","
                <div class=""stimulus-container"">
                    <img src=""images/causal_sequence/package_causal/package_causal_8.png"" class=""exp-image"">
                    <div class=""question-area""></div> 
                </div>","null","","","","","","","",""
"","","","","","html-button-response","179","632144","0.0-179.0","EF48886CC2C442108BB50B8C21BABF8C","019ceda6-5775-74f0-8db0-11190ae6f5cb","019ceda4-7502-7cd5-b642-b8a83a30c71c","","427","
                <div class=""stimulus-container"">
                    <img src=""images/causal_sequence/package_causal/package_causal_8.png"" class=""exp-image"">
                    <div class=""question-area"">
                        <p style=""font-size: 20px; font-weight: bold; margin: 0;"">Is there a person in this image?</p>
                    </div>
                </div>","0","main_experiment_trial","8","package_causal","causal_sequence","","","",""
"","","","","","html-keyboard-response","180","637157","0.0-180.0","EF48886CC2C442108BB50B8C21BABF8C","019ceda6-5775-74f0-8db0-11190ae6f5cb","019ceda4-7502-7cd5-b642-b8a83a30c71c","","null","
                <div class=""stimulus-container"">
                    <img src=""images/causal_sequence/package_causal/package_causal_9.png"" class=""exp-image"">
                    <div class=""question-area""></div> 
                </div>","null","","","","","","","",""
"","","","","","html-button-response","181","637576","0.0-181.0","EF48886CC2C442108BB50B8C21BABF8C","019ceda6-5775-74f0-8db0-11190ae6f5cb","019ceda4-7502-7cd5-b642-b8a83a30c71c","","417","
                <div class=""stimulus-container"">
                    <img src=""images/causal_sequence/package_causal/package_causal_9.png"" class=""exp-image"">
                    <div class=""question-area"">
                        <p style=""font-size: 20px; font-weight: bold; margin: 0;"">Is there a person in this image?</p>
                    </div>
                </div>","0","main_experiment_trial","9","package_causal","causal_sequence","","","",""
"","","","","","html-keyboard-response","182","642593","0.0-182.0","EF48886CC2C442108BB50B8C21BABF8C","019ceda6-5775-74f0-8db0-11190ae6f5cb","019ceda4-7502-7cd5-b642-b8a83a30c71c","","null","
                <div class=""stimulus-container"">
                    <img src=""images/causal_sequence/package_causal/package_causal_ten.png"" class=""exp-image"">
                    <div class=""question-area""></div> 
                </div>","null","","","","","","","",""
"","","","","","html-button-response","183","643104","0.0-183.0","EF48886CC2C442108BB50B8C21BABF8C","019ceda6-5775-74f0-8db0-11190ae6f5cb","019ceda4-7502-7cd5-b642-b8a83a30c71c","","509","
                <div class=""stimulus-container"">
                    <img src=""images/causal_sequence/package_causal/package_causal_ten.png"" class=""exp-image"">
                    <div class=""question-area"">
                        <p style=""font-size: 20px; font-weight: bold; margin: 0;"">Is there a person in this image?</p>
                    </div>
