"success","timeout","failed_images","failed_audio","failed_video","trial_type","trial_index","time_elapsed","internal_node_id","subject_id","study_id","session_id","view_history","rt","stimulus","response","task","image_index","folder","sequence_type","valuable_image_index","reward_type","chosen_image_index","correct_choice"
"true","false","[]","[]","[]","preload","0","1154","0.0-0.0","AAD0DF2D1B764E0A89DF9F9919DCCF97","019cee71-8207-7e40-9c73-62370c07b855","019cee5f-9f1f-7e58-80c1-9ba679249cc3","","","","","","","","","","","",""
"","","","","","instructions","1","3758","0.0-1.0","AAD0DF2D1B764E0A89DF9F9919DCCF97","019cee71-8207-7e40-9c73-62370c07b855","019cee5f-9f1f-7e58-80c1-9ba679249cc3","[{""page_index"":0,""viewing_time"":2603}]","2604","","","","","","","","","",""
"","","","","","instructions","2","6115","0.0-2.0","AAD0DF2D1B764E0A89DF9F9919DCCF97","019cee71-8207-7e40-9c73-62370c07b855","019cee5f-9f1f-7e58-80c1-9ba679249cc3","[{""page_index"":0,""viewing_time"":2357}]","2357","","","","","","","","","",""
"true","","","","","fullscreen","3","8245","0.0-3.0","AAD0DF2D1B764E0A89DF9F9919DCCF97","019cee71-8207-7e40-9c73-62370c07b855","019cee5f-9f1f-7e58-80c1-9ba679249cc3","","1128","","","","","","","","","",""
"","","","","","instructions","4","21453","0.0-4.0","AAD0DF2D1B764E0A89DF9F9919DCCF97","019cee71-8207-7e40-9c73-62370c07b855","019cee5f-9f1f-7e58-80c1-9ba679249cc3","[{""page_index"":0,""viewing_time"":13207}]","13208","","","","","","","","","",""
"","","","","","instructions","5","40063","0.0-5.0","AAD0DF2D1B764E0A89DF9F9919DCCF97","019cee71-8207-7e40-9c73-62370c07b855","019cee5f-9f1f-7e58-80c1-9ba679249cc3","[{""page_index"":0,""viewing_time"":18609}]","18610","","","","","","","","","",""
"","","","","","html-keyboard-response","6","44065","0.0-6.0","AAD0DF2D1B764E0A89DF9F9919DCCF97","019cee71-8207-7e40-9c73-62370c07b855","019cee5f-9f1f-7e58-80c1-9ba679249cc3","","null","
                <div class=""stimulus-container"">
                    <img src=""images/instructions/movie_1.png"" class=""exp-image"">
                    <div class=""question-area""></div> 
                </div>","null","","","","","","","",""
"","","","","","html-button-response","7","45476","0.0-7.0","AAD0DF2D1B764E0A89DF9F9919DCCF97","019cee71-8207-7e40-9c73-62370c07b855","019cee5f-9f1f-7e58-80c1-9ba679249cc3","","1411","
                <div class=""stimulus-container"">
                    <img src=""images/instructions/movie_1.png"" class=""exp-image"">
                    <div class=""question-area"">
                        <p style=""font-size: 20px; font-weight: bold; margin: 0;"">Was there a person in this image?</p>
                    </div>
                </div>","0","example_question","1","","","","","",""
"","","","","","html-keyboard-response","8","49477","0.0-8.0","AAD0DF2D1B764E0A89DF9F9919DCCF97","019cee71-8207-7e40-9c73-62370c07b855","019cee5f-9f1f-7e58-80c1-9ba679249cc3","","null","
                <div class=""stimulus-container"">
                    <img src=""images/instructions/movie_2.png"" class=""exp-image"">
                    <div class=""question-area""></div> 
                </div>","null","","","","","","","",""
"","","","","","html-button-response","9","50081","0.0-9.0","AAD0DF2D1B764E0A89DF9F9919DCCF97","019cee71-8207-7e40-9c73-62370c07b855","019cee5f-9f1f-7e58-80c1-9ba679249cc3","","604","
                <div class=""stimulus-container"">
                    <img src=""images/instructions/movie_2.png"" class=""exp-image"">
                    <div class=""question-area"">
                        <p style=""font-size: 20px; font-weight: bold; margin: 0;"">Was there a person in this image?</p>
                    </div>
                </div>","0","example_question","2","","","","","",""
"","","","","","html-keyboard-response","10","54082","0.0-10.0","AAD0DF2D1B764E0A89DF9F9919DCCF97","019cee71-8207-7e40-9c73-62370c07b855","019cee5f-9f1f-7e58-80c1-9ba679249cc3","","null","
                <div class=""stimulus-container"">
                    <img src=""images/instructions/movie_3.png"" class=""exp-image"">
                    <div class=""question-area""></div> 
                </div>","null","","","","","","","",""
"","","","","","html-button-response","11","54685","0.0-11.0","AAD0DF2D1B764E0A89DF9F9919DCCF97","019cee71-8207-7e40-9c73-62370c07b855","019cee5f-9f1f-7e58-80c1-9ba679249cc3","","603","
                <div class=""stimulus-container"">
                    <img src=""images/instructions/movie_3.png"" class=""exp-image"">
                    <div class=""question-area"">
                        <p style=""font-size: 20px; font-weight: bold; margin: 0;"">Was there a person in this image?</p>
                    </div>
                </div>","0","example_question","3","","","","","",""
"","","","","","html-keyboard-response","12","58686","0.0-12.0","AAD0DF2D1B764E0A89DF9F9919DCCF97","019cee71-8207-7e40-9c73-62370c07b855","019cee5f-9f1f-7e58-80c1-9ba679249cc3","","null","
                <div class=""stimulus-container"">
                    <img src=""images/instructions/movie_4.png"" class=""exp-image"">
                    <div class=""question-area""></div> 
                </div>","null","","","","","","","",""
"","","","","","html-button-response","13","59384","0.0-13.0","AAD0DF2D1B764E0A89DF9F9919DCCF97","019cee71-8207-7e40-9c73-62370c07b855","019cee5f-9f1f-7e58-80c1-9ba679249cc3","","698","
                <div class=""stimulus-container"">
                    <img src=""images/instructions/movie_4.png"" class=""exp-image"">
                    <div class=""question-area"">
                        <p style=""font-size: 20px; font-weight: bold; margin: 0;"">Was there a person in this image?</p>
                    </div>
                </div>","0","example_question","4","","","","","",""
"","","","","","instructions","14","60925","0.0-14.0","AAD0DF2D1B764E0A89DF9F9919DCCF97","019cee71-8207-7e40-9c73-62370c07b855","019cee5f-9f1f-7e58-80c1-9ba679249cc3","[{""page_index"":0,""viewing_time"":1541}]","1541","","","","","","","","","",""
"","","","","","instructions","15","87174","0.0-15.0","AAD0DF2D1B764E0A89DF9F9919DCCF97","019cee71-8207-7e40-9c73-62370c07b855","019cee5f-9f1f-7e58-80c1-9ba679249cc3","[{""page_index"":0,""viewing_time"":26248}]","26248","","","","","","","","","",""
"","","","","","html-keyboard-response","16","88175","0.0-16.0","AAD0DF2D1B764E0A89DF9F9919DCCF97","019cee71-8207-7e40-9c73-62370c07b855","019cee5f-9f1f-7e58-80c1-9ba679249cc3","","null","<div style=""background-color: white; width: 100vw; height: 100vh;""></div>","null","","","","","","","",""
"","","","","","html-keyboard-response","17","93176","0.0-17.0","AAD0DF2D1B764E0A89DF9F9919DCCF97","019cee71-8207-7e40-9c73-62370c07b855","019cee5f-9f1f-7e58-80c1-9ba679249cc3","","null","
                <div class=""stimulus-container"">
                    <img src=""images/schematic_sequence/dinner_party_scheme/dinner_party_scheme_1.png"" class=""exp-image"">
                    <div class=""question-area""></div> 
                </div>","null","","","","","","","",""
"","","","","","html-button-response","18","93742","0.0-18.0","AAD0DF2D1B764E0A89DF9F9919DCCF97","019cee71-8207-7e40-9c73-62370c07b855","019cee5f-9f1f-7e58-80c1-9ba679249cc3","","566","
                <div class=""stimulus-container"">
                    <img src=""images/schematic_sequence/dinner_party_scheme/dinner_party_scheme_1.png"" class=""exp-image"">
                    <div class=""question-area"">
                        <p style=""font-size: 20px; font-weight: bold; margin: 0;"">Is there a person in this image?</p>
                    </div>
                </div>","0","main_experiment_trial","1","dinner_party_scheme","schematic_sequence","","","",""
"","","","","","html-keyboard-response","19","98743","0.0-19.0","AAD0DF2D1B764E0A89DF9F9919DCCF97","019cee71-8207-7e40-9c73-62370c07b855","019cee5f-9f1f-7e58-80c1-9ba679249cc3","","null","
                <div class=""stimulus-container"">
                    <img src=""images/schematic_sequence/dinner_party_scheme/dinner_party_scheme_2.png"" class=""exp-image"">
                    <div class=""question-area""></div> 
                </div>","null","","","","","","","",""
"","","","","","html-button-response","20","99255","0.0-20.0","AAD0DF2D1B764E0A89DF9F9919DCCF97","019cee71-8207-7e40-9c73-62370c07b855","019cee5f-9f1f-7e58-80c1-9ba679249cc3","","511","
                <div class=""stimulus-container"">
                    <img src=""images/schematic_sequence/dinner_party_scheme/dinner_party_scheme_2.png"" class=""exp-image"">
                    <div class=""question-area"">
                        <p style=""font-size: 20px; font-weight: bold; margin: 0;"">Is there a person in this image?</p>
                    </div>
                </div>","0","main_experiment_trial","2","dinner_party_scheme","schematic_sequence","","","",""
"","","","","","html-keyboard-response","21","104255","0.0-21.0","AAD0DF2D1B764E0A89DF9F9919DCCF97","019cee71-8207-7e40-9c73-62370c07b855","019cee5f-9f1f-7e58-80c1-9ba679249cc3","","null","
                <div class=""stimulus-container"">
                    <img src=""images/schematic_sequence/dinner_party_scheme/dinner_party_scheme_3.png"" class=""exp-image"">
                    <div class=""question-area""></div> 
                </div>","null","","","","","","","",""
"","","","","","html-button-response","22","105171","0.0-22.0","AAD0DF2D1B764E0A89DF9F9919DCCF97","019cee71-8207-7e40-9c73-62370c07b855","019cee5f-9f1f-7e58-80c1-9ba679249cc3","","915","
                <div class=""stimulus-container"">
                    <img src=""images/schematic_sequence/dinner_party_scheme/dinner_party_scheme_3.png"" class=""exp-image"">
                    <div class=""question-area"">
                        <p style=""font-size: 20px; font-weight: bold; margin: 0;"">Is there a person in this image?</p>
                    </div>
                </div>","0","main_experiment_trial","3","dinner_party_scheme","schematic_sequence","","","",""
"","","","","","html-keyboard-response","23","110173","0.0-23.0","AAD0DF2D1B764E0A89DF9F9919DCCF97","019cee71-8207-7e40-9c73-62370c07b855","019cee5f-9f1f-7e58-80c1-9ba679249cc3","","null","
                <div class=""stimulus-container"">
                    <img src=""images/schematic_sequence/dinner_party_scheme/dinner_party_scheme_4.png"" class=""exp-image"">
                    <div class=""question-area""></div> 
                </div>","null","","","","","","","",""
"","","","","","html-button-response","24","110629","0.0-24.0","AAD0DF2D1B764E0A89DF9F9919DCCF97","019cee71-8207-7e40-9c73-62370c07b855","019cee5f-9f1f-7e58-80c1-9ba679249cc3","","456","
                <div class=""stimulus-container"">
                    <img src=""images/schematic_sequence/dinner_party_scheme/dinner_party_scheme_4.png"" class=""exp-image"">
                    <div class=""question-area"">
                        <p style=""font-size: 20px; font-weight: bold; margin: 0;"">Is there a person in this image?</p>
                    </div>
                </div>","0","main_experiment_trial","4","dinner_party_scheme","schematic_sequence","","","",""
"","","","","","html-keyboard-response","25","115631","0.0-25.0","AAD0DF2D1B764E0A89DF9F9919DCCF97","019cee71-8207-7e40-9c73-62370c07b855","019cee5f-9f1f-7e58-80c1-9ba679249cc3","","null","
                <div class=""stimulus-container"">
                    <img src=""images/schematic_sequence/dinner_party_scheme/dinner_party_scheme_5.png"" class=""exp-image"">
                    <div class=""question-area""></div> 
                </div>","null","","","","","","","",""
"","","","","","html-button-response","26","116587","0.0-26.0","AAD0DF2D1B764E0A89DF9F9919DCCF97","019cee71-8207-7e40-9c73-62370c07b855","019cee5f-9f1f-7e58-80c1-9ba679249cc3","","956","
                <div class=""stimulus-container"">
                    <img src=""images/schematic_sequence/dinner_party_scheme/dinner_party_scheme_5.png"" class=""exp-image"">
                    <div class=""question-area"">
                        <p style=""font-size: 20px; font-weight: bold; margin: 0;"">Is there a person in this image?</p>
                    </div>
                </div>","0","main_experiment_trial","5","dinner_party_scheme","schematic_sequence","","","",""
"","","","","","html-keyboard-response","27","121588","0.0-27.0","AAD0DF2D1B764E0A89DF9F9919DCCF97","019cee71-8207-7e40-9c73-62370c07b855","019cee5f-9f1f-7e58-80c1-9ba679249cc3","","null","
                <div class=""stimulus-container"">
                    <img src=""images/schematic_sequence/dinner_party_scheme/dinner_party_scheme_6.png"" class=""exp-image"">
                    <div class=""question-area""></div> 
                </div>","null","","","","","","","",""
"","","","","","html-button-response","28","122384","0.0-28.0","AAD0DF2D1B764E0A89DF9F9919DCCF97","019cee71-8207-7e40-9c73-62370c07b855","019cee5f-9f1f-7e58-80c1-9ba679249cc3","","796","
                <div class=""stimulus-container"">
                    <img src=""images/schematic_sequence/dinner_party_scheme/dinner_party_scheme_6.png"" class=""exp-image"">
                    <div class=""question-area"">
                        <p style=""font-size: 20px; font-weight: bold; margin: 0;"">Is there a person in this image?</p>
                    </div>
                </div>","0","main_experiment_trial","6","dinner_party_scheme","schematic_sequence","","","",""
"","","","","","html-keyboard-response","29","127386","0.0-29.0","AAD0DF2D1B764E0A89DF9F9919DCCF97","019cee71-8207-7e40-9c73-62370c07b855","019cee5f-9f1f-7e58-80c1-9ba679249cc3","","null","
                <div class=""stimulus-container"">
                    <img src=""images/schematic_sequence/dinner_party_scheme/dinner_party_scheme_7.png"" class=""exp-image"">
                    <div class=""question-area""></div> 
                </div>","null","","","","","","","",""
"","","","","","html-button-response","30","127899","0.0-30.0","AAD0DF2D1B764E0A89DF9F9919DCCF97","019cee71-8207-7e40-9c73-62370c07b855","019cee5f-9f1f-7e58-80c1-9ba679249cc3","","513","
                <div class=""stimulus-container"">
                    <img src=""images/schematic_sequence/dinner_party_scheme/dinner_party_scheme_7.png"" class=""exp-image"">
                    <div class=""question-area"">
                        <p style=""font-size: 20px; font-weight: bold; margin: 0;"">Is there a person in this image?</p>
                    </div>
                </div>","0","main_experiment_trial","7","dinner_party_scheme","schematic_sequence","","","",""
"","","","","","html-keyboard-response","31","132900","0.0-31.0","AAD0DF2D1B764E0A89DF9F9919DCCF97","019cee71-8207-7e40-9c73-62370c07b855","019cee5f-9f1f-7e58-80c1-9ba679249cc3","","null","
                <div class=""stimulus-container"">
                    <img src=""images/schematic_sequence/dinner_party_scheme/dinner_party_scheme_8.png"" class=""exp-image"">
                    <div class=""question-area""></div> 
                </div>","null","","","","","","","",""
"","","","","","html-button-response","32","133658","0.0-32.0","AAD0DF2D1B764E0A89DF9F9919DCCF97","019cee71-8207-7e40-9c73-62370c07b855","019cee5f-9f1f-7e58-80c1-9ba679249cc3","","757","
                <div class=""stimulus-container"">
                    <img src=""images/schematic_sequence/dinner_party_scheme/dinner_party_scheme_8.png"" class=""exp-image"">
                    <div class=""question-area"">
                        <p style=""font-size: 20px; font-weight: bold; margin: 0;"">Is there a person in this image?</p>
                    </div>
                </div>","0","main_experiment_trial","8","dinner_party_scheme","schematic_sequence","","","",""
"","","","","","html-keyboard-response","33","138659","0.0-33.0","AAD0DF2D1B764E0A89DF9F9919DCCF97","019cee71-8207-7e40-9c73-62370c07b855","019cee5f-9f1f-7e58-80c1-9ba679249cc3","","null","
                <div class=""stimulus-container"">
                    <img src=""images/schematic_sequence/dinner_party_scheme/dinner_party_scheme_9.png"" class=""exp-image"">
                    <div class=""question-area""></div> 
                </div>","null","","","","","","","",""
"","","","","","html-button-response","34","139494","0.0-34.0","AAD0DF2D1B764E0A89DF9F9919DCCF97","019cee71-8207-7e40-9c73-62370c07b855","019cee5f-9f1f-7e58-80c1-9ba679249cc3","","835","
                <div class=""stimulus-container"">
                    <img src=""images/schematic_sequence/dinner_party_scheme/dinner_party_scheme_9.png"" class=""exp-image"">
                    <div class=""question-area"">
                        <p style=""font-size: 20px; font-weight: bold; margin: 0;"">Is there a person in this image?</p>
                    </div>
                </div>","0","main_experiment_trial","9","dinner_party_scheme","schematic_sequence","","","",""
"","","","","","html-keyboard-response","35","144496","0.0-35.0","AAD0DF2D1B764E0A89DF9F9919DCCF97","019cee71-8207-7e40-9c73-62370c07b855","019cee5f-9f1f-7e58-80c1-9ba679249cc3","","null","
                <div class=""stimulus-container"">
                    <img src=""images/schematic_sequence/dinner_party_scheme/dinner_party_scheme_ten.png"" class=""exp-image"">
                    <div class=""question-area""></div> 
                </div>","null","","","","","","","",""
"","","","","","html-button-response","36","145044","0.0-36.0","AAD0DF2D1B764E0A89DF9F9919DCCF97","019cee71-8207-7e40-9c73-62370c07b855","019cee5f-9f1f-7e58-80c1-9ba679249cc3","","548","
                <div class=""stimulus-container"">
                    <img src=""images/schematic_sequence/dinner_party_scheme/dinner_party_scheme_ten.png"" class=""exp-image"">
                    <div class=""question-area"">
                        <p style=""font-size: 20px; font-weight: bold; margin: 0;"">Is there a person in this image?</p>
                    </div>
                </div>","0","main_experiment_trial","ten","dinner_party_scheme","schematic_sequence","","","",""
"","","","","","html-keyboard-response","37","146045","0.0-37.0","AAD0DF2D1B764E0A89DF9F9919DCCF97","019cee71-8207-7e40-9c73-62370c07b855","019cee5f-9f1f-7e58-80c1-9ba679249cc3","","null","<div style=""background-color: white; width: 100vw; height: 100vh;""></div>","null","","","","","","","",""
"","","","","","html-keyboard-response","38","151046","0.0-38.0","AAD0DF2D1B764E0A89DF9F9919DCCF97","019cee71-8207-7e40-9c73-62370c07b855","019cee5f-9f1f-7e58-80c1-9ba679249cc3","","null","
                <div class=""stimulus-container"">
                    <img src=""images/causal_sequence/coin_causal/coin_causal_1.png"" class=""exp-image"">
                    <div class=""question-area""></div> 
                </div>","null","","","","","","","",""
"","","","","","html-button-response","39","151453","0.0-39.0","AAD0DF2D1B764E0A89DF9F9919DCCF97","019cee71-8207-7e40-9c73-62370c07b855","019cee5f-9f1f-7e58-80c1-9ba679249cc3","","406","
                <div class=""stimulus-container"">
                    <img src=""images/causal_sequence/coin_causal/coin_causal_1.png"" class=""exp-image"">
                    <div class=""question-area"">
                        <p style=""font-size: 20px; font-weight: bold; margin: 0;"">Is there a person in this image?</p>
                    </div>
                </div>","0","main_experiment_trial","1","coin_causal","causal_sequence","","","",""
"","","","","","html-keyboard-response","40","156454","0.0-40.0","AAD0DF2D1B764E0A89DF9F9919DCCF97","019cee71-8207-7e40-9c73-62370c07b855","019cee5f-9f1f-7e58-80c1-9ba679249cc3","","null","
                <div class=""stimulus-container"">
                    <img src=""images/causal_sequence/coin_causal/coin_causal_2.png"" class=""exp-image"">
                    <div class=""question-area""></div> 
                </div>","null","","","","","","","",""
"","","","","","html-button-response","41","157033","0.0-41.0","AAD0DF2D1B764E0A89DF9F9919DCCF97","019cee71-8207-7e40-9c73-62370c07b855","019cee5f-9f1f-7e58-80c1-9ba679249cc3","","579","
                <div class=""stimulus-container"">
                    <img src=""images/causal_sequence/coin_causal/coin_causal_2.png"" class=""exp-image"">
                    <div class=""question-area"">
                        <p style=""font-size: 20px; font-weight: bold; margin: 0;"">Is there a person in this image?</p>
                    </div>
                </div>","0","main_experiment_trial","2","coin_causal","causal_sequence","","","",""
"","","","","","html-keyboard-response","42","162034","0.0-42.0","AAD0DF2D1B764E0A89DF9F9919DCCF97","019cee71-8207-7e40-9c73-62370c07b855","019cee5f-9f1f-7e58-80c1-9ba679249cc3","","null","
                <div class=""stimulus-container"">
                    <img src=""images/causal_sequence/coin_causal/coin_causal_3.png"" class=""exp-image"">
                    <div class=""question-area""></div> 
                </div>","null","","","","","","","",""
"","","","","","html-button-response","43","162592","0.0-43.0","AAD0DF2D1B764E0A89DF9F9919DCCF97","019cee71-8207-7e40-9c73-62370c07b855","019cee5f-9f1f-7e58-80c1-9ba679249cc3","","558","
                <div class=""stimulus-container"">
                    <img src=""images/causal_sequence/coin_causal/coin_causal_3.png"" class=""exp-image"">
                    <div class=""question-area"">
                        <p style=""font-size: 20px; font-weight: bold; margin: 0;"">Is there a person in this image?</p>
                    </div>
                </div>","0","main_experiment_trial","3","coin_causal","causal_sequence","","","",""
"","","","","","html-keyboard-response","44","167594","0.0-44.0","AAD0DF2D1B764E0A89DF9F9919DCCF97","019cee71-8207-7e40-9c73-62370c07b855","019cee5f-9f1f-7e58-80c1-9ba679249cc3","","null","
                <div class=""stimulus-container"">
                    <img src=""images/causal_sequence/coin_causal/coin_causal_4.png"" class=""exp-image"">
                    <div class=""question-area""></div> 
                </div>","null","","","","","","","",""
"","","","","","html-button-response","45","168437","0.0-45.0","AAD0DF2D1B764E0A89DF9F9919DCCF97","019cee71-8207-7e40-9c73-62370c07b855","019cee5f-9f1f-7e58-80c1-9ba679249cc3","","843","
                <div class=""stimulus-container"">
                    <img src=""images/causal_sequence/coin_causal/coin_causal_4.png"" class=""exp-image"">
                    <div class=""question-area"">
                        <p style=""font-size: 20px; font-weight: bold; margin: 0;"">Is there a person in this image?</p>
                    </div>
                </div>","0","main_experiment_trial","4","coin_causal","causal_sequence","","","",""
"","","","","","html-keyboard-response","46","173439","0.0-46.0","AAD0DF2D1B764E0A89DF9F9919DCCF97","019cee71-8207-7e40-9c73-62370c07b855","019cee5f-9f1f-7e58-80c1-9ba679249cc3","","null","
                <div class=""stimulus-container"">
                    <img src=""images/causal_sequence/coin_causal/coin_causal_5.png"" class=""exp-image"">
                    <div class=""question-area""></div> 
                </div>","null","","","","","","","",""
"","","","","","html-button-response","47","174268","0.0-47.0","AAD0DF2D1B764E0A89DF9F9919DCCF97","019cee71-8207-7e40-9c73-62370c07b855","019cee5f-9f1f-7e58-80c1-9ba679249cc3","","829","
                <div class=""stimulus-container"">
                    <img src=""images/causal_sequence/coin_causal/coin_causal_5.png"" class=""exp-image"">
                    <div class=""question-area"">
                        <p style=""font-size: 20px; font-weight: bold; margin: 0;"">Is there a person in this image?</p>
                    </div>
                </div>","0","main_experiment_trial","5","coin_causal","causal_sequence","","","",""
"","","","","","html-keyboard-response","48","179268","0.0-48.0","AAD0DF2D1B764E0A89DF9F9919DCCF97","019cee71-8207-7e40-9c73-62370c07b855","019cee5f-9f1f-7e58-80c1-9ba679249cc3","","null","
                <div class=""stimulus-container"">
                    <img src=""images/causal_sequence/coin_causal/coin_causal_6.png"" class=""exp-image"">
                    <div class=""question-area""></div> 
                </div>","null","","","","","","","",""
"","","","","","html-button-response","49","180329","0.0-49.0","AAD0DF2D1B764E0A89DF9F9919DCCF97","019cee71-8207-7e40-9c73-62370c07b855","019cee5f-9f1f-7e58-80c1-9ba679249cc3","","1060","
                <div class=""stimulus-container"">
                    <img src=""images/causal_sequence/coin_causal/coin_causal_6.png"" class=""exp-image"">
                    <div class=""question-area"">
                        <p style=""font-size: 20px; font-weight: bold; margin: 0;"">Is there a person in this image?</p>
                    </div>
                </div>","0","main_experiment_trial","6","coin_causal","causal_sequence","","","",""
"","","","","","html-keyboard-response","50","185331","0.0-50.0","AAD0DF2D1B764E0A89DF9F9919DCCF97","019cee71-8207-7e40-9c73-62370c07b855","019cee5f-9f1f-7e58-80c1-9ba679249cc3","","null","
                <div class=""stimulus-container"">
                    <img src=""images/causal_sequence/coin_causal/coin_causal_7.png"" class=""exp-image"">
                    <div class=""question-area""></div> 
                </div>","null","","","","","","","",""
"","","","","","html-button-response","51","186943","0.0-51.0","AAD0DF2D1B764E0A89DF9F9919DCCF97","019cee71-8207-7e40-9c73-62370c07b855","019cee5f-9f1f-7e58-80c1-9ba679249cc3","","1612","
                <div class=""stimulus-container"">
                    <img src=""images/causal_sequence/coin_causal/coin_causal_7.png"" class=""exp-image"">
                    <div class=""question-area"">
                        <p style=""font-size: 20px; font-weight: bold; margin: 0;"">Is there a person in this image?</p>
                    </div>
                </div>","1","main_experiment_trial","7","coin_causal","causal_sequence","","","",""
"","","","","","html-keyboard-response","52","191944","0.0-52.0","AAD0DF2D1B764E0A89DF9F9919DCCF97","019cee71-8207-7e40-9c73-62370c07b855","019cee5f-9f1f-7e58-80c1-9ba679249cc3","","null","
                <div class=""stimulus-container"">
                    <img src=""images/causal_sequence/coin_causal/coin_causal_8.png"" class=""exp-image"">
                    <div class=""question-area""></div> 
                </div>","null","","","","","","","",""
"","","","","","html-button-response","53","193941","0.0-53.0","AAD0DF2D1B764E0A89DF9F9919DCCF97","019cee71-8207-7e40-9c73-62370c07b855","019cee5f-9f1f-7e58-80c1-9ba679249cc3","","1996","
                <div class=""stimulus-container"">
                    <img src=""images/causal_sequence/coin_causal/coin_causal_8.png"" class=""exp-image"">
                    <div class=""question-area"">
                        <p style=""font-size: 20px; font-weight: bold; margin: 0;"">Is there a person in this image?</p>
                    </div>
                </div>","0","main_experiment_trial","8","coin_causal","causal_sequence","","","",""
"","","","","","html-keyboard-response","54","198942","0.0-54.0","AAD0DF2D1B764E0A89DF9F9919DCCF97","019cee71-8207-7e40-9c73-62370c07b855","019cee5f-9f1f-7e58-80c1-9ba679249cc3","","null","
                <div class=""stimulus-container"">
                    <img src=""images/causal_sequence/coin_causal/coin_causal_9.png"" class=""exp-image"">
                    <div class=""question-area""></div> 
                </div>","null","","","","","","","",""
"","","","","","html-button-response","55","199706","0.0-55.0","AAD0DF2D1B764E0A89DF9F9919DCCF97","019cee71-8207-7e40-9c73-62370c07b855","019cee5f-9f1f-7e58-80c1-9ba679249cc3","","764","
                <div class=""stimulus-container"">
                    <img src=""images/causal_sequence/coin_causal/coin_causal_9.png"" class=""exp-image"">
                    <div class=""question-area"">
                        <p style=""font-size: 20px; font-weight: bold; margin: 0;"">Is there a person in this image?</p>
                    </div>
                </div>","0","main_experiment_trial","9","coin_causal","causal_sequence","","","",""
"","","","","","html-keyboard-response","56","204707","0.0-56.0","AAD0DF2D1B764E0A89DF9F9919DCCF97","019cee71-8207-7e40-9c73-62370c07b855","019cee5f-9f1f-7e58-80c1-9ba679249cc3","","null","
                <div class=""stimulus-container"">
                    <img src=""images/causal_sequence/coin_causal/coin_causal_ten.png"" class=""exp-image"">
                    <div class=""question-area""></div> 
                </div>","null","","","","","","","",""
"","","","","","html-button-response","57","205391","0.0-57.0","AAD0DF2D1B764E0A89DF9F9919DCCF97","019cee71-8207-7e40-9c73-62370c07b855","019cee5f-9f1f-7e58-80c1-9ba679249cc3","","683","
                <div class=""stimulus-container"">
                    <img src=""images/causal_sequence/coin_causal/coin_causal_ten.png"" class=""exp-image"">
                    <div class=""question-area"">
                        <p style=""font-size: 20px; font-weight: bold; margin: 0;"">Is there a person in this image?</p>
                    </div>
                </div>","0","main_experiment_trial","ten","coin_causal","causal_sequence","","","",""
"","","","","","html-keyboard-response","58","206392","0.0-58.0","AAD0DF2D1B764E0A89DF9F9919DCCF97","019cee71-8207-7e40-9c73-62370c07b855","019cee5f-9f1f-7e58-80c1-9ba679249cc3","","null","<div style=""background-color: white; width: 100vw; height: 100vh;""></div>","null","","","","","","","",""
"","","","","","html-keyboard-response","59","211393","0.0-59.0","AAD0DF2D1B764E0A89DF9F9919DCCF97","019cee71-8207-7e40-9c73-62370c07b855","019cee5f-9f1f-7e58-80c1-9ba679249cc3","","null","
                <div class=""stimulus-container"">
                    <img src=""images/causal_sequence/package_causal/package_causal_1.png"" class=""exp-image"">
                    <div class=""question-area""></div> 
                </div>","null","","","","","","","",""
"","","","","","html-button-response","60","212091","0.0-60.0","AAD0DF2D1B764E0A89DF9F9919DCCF97","019cee71-8207-7e40-9c73-62370c07b855","019cee5f-9f1f-7e58-80c1-9ba679249cc3","","697","
                <div class=""stimulus-container"">
                    <img src=""images/causal_sequence/package_causal/package_causal_1.png"" class=""exp-image"">
                    <div class=""question-area"">
                        <p style=""font-size: 20px; font-weight: bold; margin: 0;"">Is there a person in this image?</p>
                    </div>
                </div>","0","main_experiment_trial","1","package_causal","causal_sequence","","","",""
"","","","","","html-keyboard-response","61","217092","0.0-61.0","AAD0DF2D1B764E0A89DF9F9919DCCF97","019cee71-8207-7e40-9c73-62370c07b855","019cee5f-9f1f-7e58-80c1-9ba679249cc3","","null","
                <div class=""stimulus-container"">
                    <img src=""images/causal_sequence/package_causal/package_causal_2.png"" class=""exp-image"">
                    <div class=""question-area""></div> 
                </div>","null","","","","","","","",""
"","","","","","html-button-response","62","217792","0.0-62.0","AAD0DF2D1B764E0A89DF9F9919DCCF97","019cee71-8207-7e40-9c73-62370c07b855","019cee5f-9f1f-7e58-80c1-9ba679249cc3","","699","
                <div class=""stimulus-container"">
                    <img src=""images/causal_sequence/package_causal/package_causal_2.png"" class=""exp-image"">
                    <div class=""question-area"">
                        <p style=""font-size: 20px; font-weight: bold; margin: 0;"">Is there a person in this image?</p>
                    </div>
                </div>","0","main_experiment_trial","2","package_causal","causal_sequence","","","",""
"","","","","","html-keyboard-response","63","222793","0.0-63.0","AAD0DF2D1B764E0A89DF9F9919DCCF97","019cee71-8207-7e40-9c73-62370c07b855","019cee5f-9f1f-7e58-80c1-9ba679249cc3","","null","
                <div class=""stimulus-container"">
                    <img src=""images/causal_sequence/package_causal/package_causal_3.png"" class=""exp-image"">
                    <div class=""question-area""></div> 
                </div>","null","","","","","","","",""
"","","","","","html-button-response","64","223530","0.0-64.0","AAD0DF2D1B764E0A89DF9F9919DCCF97","019cee71-8207-7e40-9c73-62370c07b855","019cee5f-9f1f-7e58-80c1-9ba679249cc3","","736","
                <div class=""stimulus-container"">
                    <img src=""images/causal_sequence/package_causal/package_causal_3.png"" class=""exp-image"">
                    <div class=""question-area"">
                        <p style=""font-size: 20px; font-weight: bold; margin: 0;"">Is there a person in this image?</p>
                    </div>
                </div>","0","main_experiment_trial","3","package_causal","causal_sequence","","","",""
"","","","","","html-keyboard-response","65","228531","0.0-65.0","AAD0DF2D1B764E0A89DF9F9919DCCF97","019cee71-8207-7e40-9c73-62370c07b855","019cee5f-9f1f-7e58-80c1-9ba679249cc3","","null","
                <div class=""stimulus-container"">
                    <img src=""images/causal_sequence/package_causal/package_causal_4.png"" class=""exp-image"">
                    <div class=""question-area""></div> 
                </div>","null","","","","","","","",""
"","","","","","html-button-response","66","229327","0.0-66.0","AAD0DF2D1B764E0A89DF9F9919DCCF97","019cee71-8207-7e40-9c73-62370c07b855","019cee5f-9f1f-7e58-80c1-9ba679249cc3","","796","
                <div class=""stimulus-container"">
                    <img src=""images/causal_sequence/package_causal/package_causal_4.png"" class=""exp-image"">
                    <div class=""question-area"">
                        <p style=""font-size: 20px; font-weight: bold; margin: 0;"">Is there a person in this image?</p>
                    </div>
                </div>","1","main_experiment_trial","4","package_causal","causal_sequence","","","",""
"","","","","","html-keyboard-response","67","234329","0.0-67.0","AAD0DF2D1B764E0A89DF9F9919DCCF97","019cee71-8207-7e40-9c73-62370c07b855","019cee5f-9f1f-7e58-80c1-9ba679249cc3","","null","
                <div class=""stimulus-container"">
                    <img src=""images/causal_sequence/package_causal/package_causal_5.png"" class=""exp-image"">
                    <div class=""question-area""></div> 
                </div>","null","","","","","","","",""
"","","","","","html-button-response","68","234959","0.0-68.0","AAD0DF2D1B764E0A89DF9F9919DCCF97","019cee71-8207-7e40-9c73-62370c07b855","019cee5f-9f1f-7e58-80c1-9ba679249cc3","","630","
                <div class=""stimulus-container"">
                    <img src=""images/causal_sequence/package_causal/package_causal_5.png"" class=""exp-image"">
                    <div class=""question-area"">
                        <p style=""font-size: 20px; font-weight: bold; margin: 0;"">Is there a person in this image?</p>
                    </div>
                </div>","0","main_experiment_trial","5","package_causal","causal_sequence","","","",""
"","","","","","html-keyboard-response","69","239961","0.0-69.0","AAD0DF2D1B764E0A89DF9F9919DCCF97","019cee71-8207-7e40-9c73-62370c07b855","019cee5f-9f1f-7e58-80c1-9ba679249cc3","","null","
                <div class=""stimulus-container"">
                    <img src=""images/causal_sequence/package_causal/package_causal_6.png"" class=""exp-image"">
                    <div class=""question-area""></div> 
                </div>","null","","","","","","","",""
"","","","","","html-button-response","70","240521","0.0-70.0","AAD0DF2D1B764E0A89DF9F9919DCCF97","019cee71-8207-7e40-9c73-62370c07b855","019cee5f-9f1f-7e58-80c1-9ba679249cc3","","560","
                <div class=""stimulus-container"">
                    <img src=""images/causal_sequence/package_causal/package_causal_6.png"" class=""exp-image"">
                    <div class=""question-area"">
                        <p style=""font-size: 20px; font-weight: bold; margin: 0;"">Is there a person in this image?</p>
                    </div>
                </div>","0","main_experiment_trial","6","package_causal","causal_sequence","","","",""
"","","","","","html-keyboard-response","71","245522","0.0-71.0","AAD0DF2D1B764E0A89DF9F9919DCCF97","019cee71-8207-7e40-9c73-62370c07b855","019cee5f-9f1f-7e58-80c1-9ba679249cc3","","null","
                <div class=""stimulus-container"">
                    <img src=""images/causal_sequence/package_causal/package_causal_7.png"" class=""exp-image"">
                    <div class=""question-area""></div> 
                </div>","null","","","","","","","",""
"","","","","","html-button-response","72","246353","0.0-72.0","AAD0DF2D1B764E0A89DF9F9919DCCF97","019cee71-8207-7e40-9c73-62370c07b855","019cee5f-9f1f-7e58-80c1-9ba679249cc3","","830","
                <div class=""stimulus-container"">
                    <img src=""images/causal_sequence/package_causal/package_causal_7.png"" class=""exp-image"">
                    <div class=""question-area"">
                        <p style=""font-size: 20px; font-weight: bold; margin: 0;"">Is there a person in this image?</p>
                    </div>
                </div>","0","main_experiment_trial","7","package_causal","causal_sequence","","","",""
"","","","","","html-keyboard-response","73","251354","0.0-73.0","AAD0DF2D1B764E0A89DF9F9919DCCF97","019cee71-8207-7e40-9c73-62370c07b855","019cee5f-9f1f-7e58-80c1-9ba679249cc3","","null","
                <div class=""stimulus-container"">
                    <img src=""images/causal_sequence/package_causal/package_causal_8.png"" class=""exp-image"">
                    <div class=""question-area""></div> 
                </div>","null","","","","","","","",""
"","","","","","html-button-response","74","252165","0.0-74.0","AAD0DF2D1B764E0A89DF9F9919DCCF97","019cee71-8207-7e40-9c73-62370c07b855","019cee5f-9f1f-7e58-80c1-9ba679249cc3","","810","
                <div class=""stimulus-container"">
                    <img src=""images/causal_sequence/package_causal/package_causal_8.png"" class=""exp-image"">
                    <div class=""question-area"">
                        <p style=""font-size: 20px; font-weight: bold; margin: 0;"">Is there a person in this image?</p>
                    </div>
                </div>","0","main_experiment_trial","8","package_causal","causal_sequence","","","",""
"","","","","","html-keyboard-response","75","257166","0.0-75.0","AAD0DF2D1B764E0A89DF9F9919DCCF97","019cee71-8207-7e40-9c73-62370c07b855","019cee5f-9f1f-7e58-80c1-9ba679249cc3","","null","
                <div class=""stimulus-container"">
                    <img src=""images/causal_sequence/package_causal/package_causal_9.png"" class=""exp-image"">
                    <div class=""question-area""></div> 
                </div>","null","","","","","","","",""
"","","","","","html-button-response","76","257688","0.0-76.0","AAD0DF2D1B764E0A89DF9F9919DCCF97","019cee71-8207-7e40-9c73-62370c07b855","019cee5f-9f1f-7e58-80c1-9ba679249cc3","","522","
                <div class=""stimulus-container"">
                    <img src=""images/causal_sequence/package_causal/package_causal_9.png"" class=""exp-image"">
                    <div class=""question-area"">
                        <p style=""font-size: 20px; font-weight: bold; margin: 0;"">Is there a person in this image?</p>
                    </div>
                </div>","0","main_experiment_trial","9","package_causal","causal_sequence","","","",""
"","","","","","html-keyboard-response","77","262688","0.0-77.0","AAD0DF2D1B764E0A89DF9F9919DCCF97","019cee71-8207-7e40-9c73-62370c07b855","019cee5f-9f1f-7e58-80c1-9ba679249cc3","","null","
                <div class=""stimulus-container"">
                    <img src=""images/causal_sequence/package_causal/package_causal_ten.png"" class=""exp-image"">
                    <div class=""question-area""></div> 
                </div>","null","","","","","","","",""
"","","","","","html-button-response","78","263674","0.0-78.0","AAD0DF2D1B764E0A89DF9F9919DCCF97","019cee71-8207-7e40-9c73-62370c07b855","019cee5f-9f1f-7e58-80c1-9ba679249cc3","","986","
                <div class=""stimulus-container"">
                    <img src=""images/causal_sequence/package_causal/package_causal_ten.png"" class=""exp-image"">
                    <div class=""question-area"">
                        <p style=""font-size: 20px; font-weight: bold; margin: 0;"">Is there a person in this image?</p>
                    </div>
                </div>","0","main_experiment_trial","ten","package_causal","causal_sequence","","","",""
"","","","","","html-keyboard-response","79","264675","0.0-79.0","AAD0DF2D1B764E0A89DF9F9919DCCF97","019cee71-8207-7e40-9c73-62370c07b855","019cee5f-9f1f-7e58-80c1-9ba679249cc3","","null","<div style=""background-color: white; width: 100vw; height: 100vh;""></div>","null","","","","","","","",""
"","","","","","html-keyboard-response","80","269676","0.0-80.0","AAD0DF2D1B764E0A89DF9F9919DCCF97","019cee71-8207-7e40-9c73-62370c07b855","019cee5f-9f1f-7e58-80c1-9ba679249cc3","","null","
                <div class=""stimulus-container"">
                    <img src=""images/schematic_sequence/interview_scheme/interview_scheme_1.png"" class=""exp-image"">
                    <div class=""question-area""></div> 
                </div>","null","","","","","","","",""
"","","","","","html-button-response","81","272651","0.0-81.0","AAD0DF2D1B764E0A89DF9F9919DCCF97","019cee71-8207-7e40-9c73-62370c07b855","019cee5f-9f1f-7e58-80c1-9ba679249cc3","","2975","
                <div class=""stimulus-container"">
                    <img src=""images/schematic_sequence/interview_scheme/interview_scheme_1.png"" class=""exp-image"">
                    <div class=""question-area"">
                        <p style=""font-size: 20px; font-weight: bold; margin: 0;"">Is there a person in this image?</p>
                    </div>
                </div>","0","main_experiment_trial","1","interview_scheme","schematic_sequence","","","",""
"","","","","","html-keyboard-response","82","277652","0.0-82.0","AAD0DF2D1B764E0A89DF9F9919DCCF97","019cee71-8207-7e40-9c73-62370c07b855","019cee5f-9f1f-7e58-80c1-9ba679249cc3","","null","
                <div class=""stimulus-container"">
                    <img src=""images/schematic_sequence/interview_scheme/interview_scheme_2.png"" class=""exp-image"">
                    <div class=""question-area""></div> 
                </div>","null","","","","","","","",""
"","","","","","html-button-response","83","280008","0.0-83.0","AAD0DF2D1B764E0A89DF9F9919DCCF97","019cee71-8207-7e40-9c73-62370c07b855","019cee5f-9f1f-7e58-80c1-9ba679249cc3","","2355","
                <div class=""stimulus-container"">
                    <img src=""images/schematic_sequence/interview_scheme/interview_scheme_2.png"" class=""exp-image"">
                    <div class=""question-area"">
                        <p style=""font-size: 20px; font-weight: bold; margin: 0;"">Is there a person in this image?</p>
                    </div>
                </div>","0","main_experiment_trial","2","interview_scheme","schematic_sequence","","","",""
"","","","","","html-keyboard-response","84","285009","0.0-84.0","AAD0DF2D1B764E0A89DF9F9919DCCF97","019cee71-8207-7e40-9c73-62370c07b855","019cee5f-9f1f-7e58-80c1-9ba679249cc3","","null","
                <div class=""stimulus-container"">
                    <img src=""images/schematic_sequence/interview_scheme/interview_scheme_3.png"" class=""exp-image"">
                    <div class=""question-area""></div> 
                </div>","null","","","","","","","",""
"","","","","","html-button-response","85","285433","0.0-85.0","AAD0DF2D1B764E0A89DF9F9919DCCF97","019cee71-8207-7e40-9c73-62370c07b855","019cee5f-9f1f-7e58-80c1-9ba679249cc3","","423","
                <div class=""stimulus-container"">
                    <img src=""images/schematic_sequence/interview_scheme/interview_scheme_3.png"" class=""exp-image"">
                    <div class=""question-area"">
                        <p style=""font-size: 20px; font-weight: bold; margin: 0;"">Is there a person in this image?</p>
                    </div>
                </div>","1","main_experiment_trial","3","interview_scheme","schematic_sequence","","","",""
"","","","","","html-keyboard-response","86","290433","0.0-86.0","AAD0DF2D1B764E0A89DF9F9919DCCF97","019cee71-8207-7e40-9c73-62370c07b855","019cee5f-9f1f-7e58-80c1-9ba679249cc3","","null","
                <div class=""stimulus-container"">
                    <img src=""images/schematic_sequence/interview_scheme/interview_scheme_4.png"" class=""exp-image"">
                    <div class=""question-area""></div> 
                </div>","null","","","","","","","",""
"","","","","","html-button-response","87","290936","0.0-87.0","AAD0DF2D1B764E0A89DF9F9919DCCF97","019cee71-8207-7e40-9c73-62370c07b855","019cee5f-9f1f-7e58-80c1-9ba679249cc3","","502","
                <div class=""stimulus-container"">
                    <img src=""images/schematic_sequence/interview_scheme/interview_scheme_4.png"" class=""exp-image"">
                    <div class=""question-area"">
                        <p style=""font-size: 20px; font-weight: bold; margin: 0;"">Is there a person in this image?</p>
                    </div>
                </div>","1","main_experiment_trial","4","interview_scheme","schematic_sequence","","","",""
"","","","","","html-keyboard-response","88","295937","0.0-88.0","AAD0DF2D1B764E0A89DF9F9919DCCF97","019cee71-8207-7e40-9c73-62370c07b855","019cee5f-9f1f-7e58-80c1-9ba679249cc3","","null","
                <div class=""stimulus-container"">
                    <img src=""images/schematic_sequence/interview_scheme/interview_scheme_5.png"" class=""exp-image"">
                    <div class=""question-area""></div> 
                </div>","null","","","","","","","",""
"","","","","","html-button-response","89","297132","0.0-89.0","AAD0DF2D1B764E0A89DF9F9919DCCF97","019cee71-8207-7e40-9c73-62370c07b855","019cee5f-9f1f-7e58-80c1-9ba679249cc3","","1194","
                <div class=""stimulus-container"">
                    <img src=""images/schematic_sequence/interview_scheme/interview_scheme_5.png"" class=""exp-image"">
                    <div class=""question-area"">
                        <p style=""font-size: 20px; font-weight: bold; margin: 0;"">Is there a person in this image?</p>
                    </div>
                </div>","0","main_experiment_trial","5","interview_scheme","schematic_sequence","","","",""
"","","","","","html-keyboard-response","90","302134","0.0-90.0","AAD0DF2D1B764E0A89DF9F9919DCCF97","019cee71-8207-7e40-9c73-62370c07b855","019cee5f-9f1f-7e58-80c1-9ba679249cc3","","null","
                <div class=""stimulus-container"">
                    <img src=""images/schematic_sequence/interview_scheme/interview_scheme_6.png"" class=""exp-image"">
                    <div class=""question-area""></div> 
                </div>","null","","","","","","","",""
"","","","","","html-button-response","91","303224","0.0-91.0","AAD0DF2D1B764E0A89DF9F9919DCCF97","019cee71-8207-7e40-9c73-62370c07b855","019cee5f-9f1f-7e58-80c1-9ba679249cc3","","1090","
                <div class=""stimulus-container"">
                    <img src=""images/schematic_sequence/interview_scheme/interview_scheme_6.png"" class=""exp-image"">
                    <div class=""question-area"">
                        <p style=""font-size: 20px; font-weight: bold; margin: 0;"">Is there a person in this image?</p>
                    </div>
                </div>","0","main_experiment_trial","6","interview_scheme","schematic_sequence","","","",""
"","","","","","html-keyboard-response","92","308224","0.0-92.0","AAD0DF2D1B764E0A89DF9F9919DCCF97","019cee71-8207-7e40-9c73-62370c07b855","019cee5f-9f1f-7e58-80c1-9ba679249cc3","","null","
                <div class=""stimulus-container"">
                    <img src=""images/schematic_sequence/interview_scheme/interview_scheme_7.png"" class=""exp-image"">
                    <div class=""question-area""></div> 
                </div>","null","","","","","","","",""
"","","","","","html-button-response","93","309170","0.0-93.0","AAD0DF2D1B764E0A89DF9F9919DCCF97","019cee71-8207-7e40-9c73-62370c07b855","019cee5f-9f1f-7e58-80c1-9ba679249cc3","","945","
                <div class=""stimulus-container"">
                    <img src=""images/schematic_sequence/interview_scheme/interview_scheme_7.png"" class=""exp-image"">
                    <div class=""question-area"">
                        <p style=""font-size: 20px; font-weight: bold; margin: 0;"">Is there a person in this image?</p>
                    </div>
                </div>","0","main_experiment_trial","7","interview_scheme","schematic_sequence","","","",""
"","","","","","html-keyboard-response","94","314170","0.0-94.0","AAD0DF2D1B764E0A89DF9F9919DCCF97","019cee71-8207-7e40-9c73-62370c07b855","019cee5f-9f1f-7e58-80c1-9ba679249cc3","","null","
                <div class=""stimulus-container"">
                    <img src=""images/schematic_sequence/interview_scheme/interview_scheme_8.png"" class=""exp-image"">
                    <div class=""question-area""></div> 
                </div>","null","","","","","","","",""
"","","","","","html-button-response","95","314565","0.0-95.0","AAD0DF2D1B764E0A89DF9F9919DCCF97","019cee71-8207-7e40-9c73-62370c07b855","019cee5f-9f1f-7e58-80c1-9ba679249cc3","","394","
                <div class=""stimulus-container"">
                    <img src=""images/schematic_sequence/interview_scheme/interview_scheme_8.png"" class=""exp-image"">
                    <div class=""question-area"">
                        <p style=""font-size: 20px; font-weight: bold; margin: 0;"">Is there a person in this image?</p>
                    </div>
                </div>","0","main_experiment_trial","8","interview_scheme","schematic_sequence","","","",""
"","","","","","html-keyboard-response","96","319566","0.0-96.0","AAD0DF2D1B764E0A89DF9F9919DCCF97","019cee71-8207-7e40-9c73-62370c07b855","019cee5f-9f1f-7e58-80c1-9ba679249cc3","","null","
                <div class=""stimulus-container"">
                    <img src=""images/schematic_sequence/interview_scheme/interview_scheme_9.png"" class=""exp-image"">
                    <div class=""question-area""></div> 
                </div>","null","","","","","","","",""
"","","","","","html-button-response","97","320260","0.0-97.0","AAD0DF2D1B764E0A89DF9F9919DCCF97","019cee71-8207-7e40-9c73-62370c07b855","019cee5f-9f1f-7e58-80c1-9ba679249cc3","","693","
                <div class=""stimulus-container"">
                    <img src=""images/schematic_sequence/interview_scheme/interview_scheme_9.png"" class=""exp-image"">
                    <div class=""question-area"">
                        <p style=""font-size: 20px; font-weight: bold; margin: 0;"">Is there a person in this image?</p>
                    </div>
                </div>","0","main_experiment_trial","9","interview_scheme","schematic_sequence","","","",""
"","","","","","html-keyboard-response","98","325261","0.0-98.0","AAD0DF2D1B764E0A89DF9F9919DCCF97","019cee71-8207-7e40-9c73-62370c07b855","019cee5f-9f1f-7e58-80c1-9ba679249cc3","","null","
                <div class=""stimulus-container"">
                    <img src=""images/schematic_sequence/interview_scheme/interview_scheme_ten.png"" class=""exp-image"">
                    <div class=""question-area""></div> 
                </div>","null","","","","","","","",""
"","","","","","html-button-response","99","325927","0.0-99.0","AAD0DF2D1B764E0A89DF9F9919DCCF97","019cee71-8207-7e40-9c73-62370c07b855","019cee5f-9f1f-7e58-80c1-9ba679249cc3","","666","
                <div class=""stimulus-container"">
                    <img src=""images/schematic_sequence/interview_scheme/interview_scheme_ten.png"" class=""exp-image"">
                    <div class=""question-area"">
                        <p style=""font-size: 20px; font-weight: bold; margin: 0;"">Is there a person in this image?</p>
                    </div>
                </div>","0","main_experiment_trial","ten","interview_scheme","schematic_sequence","","","",""
"","","","","","html-keyboard-response","100","326928","0.0-100.0","AAD0DF2D1B764E0A89DF9F9919DCCF97","019cee71-8207-7e40-9c73-62370c07b855","019cee5f-9f1f-7e58-80c1-9ba679249cc3","","null","<div style=""background-color: white; width: 100vw; height: 100vh;""></div>","null","","","","","","","",""
"","","","","","html-keyboard-response","101","331928","0.0-101.0","AAD0DF2D1B764E0A89DF9F9919DCCF97","019cee71-8207-7e40-9c73-62370c07b855","019cee5f-9f1f-7e58-80c1-9ba679249cc3","","null","
                <div class=""stimulus-container"">
                    <img src=""images/causal_sequence/museum_causal/museum_causal_1.png"" class=""exp-image"">
                    <div class=""question-area""></div> 
                </div>","null","","","","","","","",""
"","","","","","html-button-response","102","333065","0.0-102.0","AAD0DF2D1B764E0A89DF9F9919DCCF97","019cee71-8207-7e40-9c73-62370c07b855","019cee5f-9f1f-7e58-80c1-9ba679249cc3","","1137","
                <div class=""stimulus-container"">
                    <img src=""images/causal_sequence/museum_causal/museum_causal_1.png"" class=""exp-image"">
                    <div class=""question-area"">
                        <p style=""font-size: 20px; font-weight: bold; margin: 0;"">Is there a person in this image?</p>
                    </div>
                </div>","0","main_experiment_trial","1","museum_causal","causal_sequence","","","",""
"","","","","","html-keyboard-response","103","338066","0.0-103.0","AAD0DF2D1B764E0A89DF9F9919DCCF97","019cee71-8207-7e40-9c73-62370c07b855","019cee5f-9f1f-7e58-80c1-9ba679249cc3","","null","
                <div class=""stimulus-container"">
                    <img src=""images/causal_sequence/museum_causal/museum_causal_2.png"" class=""exp-image"">
                    <div class=""question-area""></div> 
                </div>","null","","","","","","","",""
"","","","","","html-button-response","104","338824","0.0-104.0","AAD0DF2D1B764E0A89DF9F9919DCCF97","019cee71-8207-7e40-9c73-62370c07b855","019cee5f-9f1f-7e58-80c1-9ba679249cc3","","758","
                <div class=""stimulus-container"">
                    <img src=""images/causal_sequence/museum_causal/museum_causal_2.png"" class=""exp-image"">
                    <div class=""question-area"">
                        <p style=""font-size: 20px; font-weight: bold; margin: 0;"">Is there a person in this image?</p>
                    </div>
                </div>","0","main_experiment_trial","2","museum_causal","causal_sequence","","","",""
"","","","","","html-keyboard-response","105","343825","0.0-105.0","AAD0DF2D1B764E0A89DF9F9919DCCF97","019cee71-8207-7e40-9c73-62370c07b855","019cee5f-9f1f-7e58-80c1-9ba679249cc3","","null","
                <div class=""stimulus-container"">
                    <img src=""images/causal_sequence/museum_causal/museum_causal_3.png"" class=""exp-image"">
                    <div class=""question-area""></div> 
                </div>","null","","","","","","","",""
"","","","","","html-button-response","106","344668","0.0-106.0","AAD0DF2D1B764E0A89DF9F9919DCCF97","019cee71-8207-7e40-9c73-62370c07b855","019cee5f-9f1f-7e58-80c1-9ba679249cc3","","842","
                <div class=""stimulus-container"">
                    <img src=""images/causal_sequence/museum_causal/museum_causal_3.png"" class=""exp-image"">
                    <div class=""question-area"">
                        <p style=""font-size: 20px; font-weight: bold; margin: 0;"">Is there a person in this image?</p>
                    </div>
                </div>","0","main_experiment_trial","3","museum_causal","causal_sequence","","","",""
"","","","","","html-keyboard-response","107","349668","0.0-107.0","AAD0DF2D1B764E0A89DF9F9919DCCF97","019cee71-8207-7e40-9c73-62370c07b855","019cee5f-9f1f-7e58-80c1-9ba679249cc3","","null","
                <div class=""stimulus-container"">
                    <img src=""images/causal_sequence/museum_causal/museum_causal_4.png"" class=""exp-image"">
                    <div class=""question-area""></div> 
                </div>","null","","","","","","","",""
"","","","","","html-button-response","108","350167","0.0-108.0","AAD0DF2D1B764E0A89DF9F9919DCCF97","019cee71-8207-7e40-9c73-62370c07b855","019cee5f-9f1f-7e58-80c1-9ba679249cc3","","498","
                <div class=""stimulus-container"">
                    <img src=""images/causal_sequence/museum_causal/museum_causal_4.png"" class=""exp-image"">
                    <div class=""question-area"">
                        <p style=""font-size: 20px; font-weight: bold; margin: 0;"">Is there a person in this image?</p>
                    </div>
                </div>","1","main_experiment_trial","4","museum_causal","causal_sequence","","","",""
"","","","","","html-keyboard-response","109","355168","0.0-109.0","AAD0DF2D1B764E0A89DF9F9919DCCF97","019cee71-8207-7e40-9c73-62370c07b855","019cee5f-9f1f-7e58-80c1-9ba679249cc3","","null","
                <div class=""stimulus-container"">
                    <img src=""images/causal_sequence/museum_causal/museum_causal_5.png"" class=""exp-image"">
                    <div class=""question-area""></div> 
                </div>","null","","","","","","","",""
"","","","","","html-button-response","110","357004","0.0-110.0","AAD0DF2D1B764E0A89DF9F9919DCCF97","019cee71-8207-7e40-9c73-62370c07b855","019cee5f-9f1f-7e58-80c1-9ba679249cc3","","1836","
                <div class=""stimulus-container"">
                    <img src=""images/causal_sequence/museum_causal/museum_causal_5.png"" class=""exp-image"">
                    <div class=""question-area"">
                        <p style=""font-size: 20px; font-weight: bold; margin: 0;"">Is there a person in this image?</p>
                    </div>
                </div>","0","main_experiment_trial","5","museum_causal","causal_sequence","","","",""
"","","","","","html-keyboard-response","111","362005","0.0-111.0","AAD0DF2D1B764E0A89DF9F9919DCCF97","019cee71-8207-7e40-9c73-62370c07b855","019cee5f-9f1f-7e58-80c1-9ba679249cc3","","null","
                <div class=""stimulus-container"">
                    <img src=""images/causal_sequence/museum_causal/museum_causal_6.png"" class=""exp-image"">
                    <div class=""question-area""></div> 
                </div>","null","","","","","","","",""
"","","","","","html-button-response","112","362924","0.0-112.0","AAD0DF2D1B764E0A89DF9F9919DCCF97","019cee71-8207-7e40-9c73-62370c07b855","019cee5f-9f1f-7e58-80c1-9ba679249cc3","","919","
                <div class=""stimulus-container"">
                    <img src=""images/causal_sequence/museum_causal/museum_causal_6.png"" class=""exp-image"">
                    <div class=""question-area"">
                        <p style=""font-size: 20px; font-weight: bold; margin: 0;"">Is there a person in this image?</p>
                    </div>
                </div>","0","main_experiment_trial","6","museum_causal","causal_sequence","","","",""
"","","","","","html-keyboard-response","113","367925","0.0-113.0","AAD0DF2D1B764E0A89DF9F9919DCCF97","019cee71-8207-7e40-9c73-62370c07b855","019cee5f-9f1f-7e58-80c1-9ba679249cc3","","null","
                <div class=""stimulus-container"">
                    <img src=""images/causal_sequence/museum_causal/museum_causal_7.png"" class=""exp-image"">
                    <div class=""question-area""></div> 
                </div>","null","","","","","","","",""
"","","","","","html-button-response","114","369326","0.0-114.0","AAD0DF2D1B764E0A89DF9F9919DCCF97","019cee71-8207-7e40-9c73-62370c07b855","019cee5f-9f1f-7e58-80c1-9ba679249cc3","","1401","
                <div class=""stimulus-container"">
                    <img src=""images/causal_sequence/museum_causal/museum_causal_7.png"" class=""exp-image"">
                    <div class=""question-area"">
                        <p style=""font-size: 20px; font-weight: bold; margin: 0;"">Is there a person in this image?</p>
                    </div>
                </div>","1","main_experiment_trial","7","museum_causal","causal_sequence","","","",""
"","","","","","html-keyboard-response","115","374327","0.0-115.0","AAD0DF2D1B764E0A89DF9F9919DCCF97","019cee71-8207-7e40-9c73-62370c07b855","019cee5f-9f1f-7e58-80c1-9ba679249cc3","","null","
                <div class=""stimulus-container"">
                    <img src=""images/causal_sequence/museum_causal/museum_causal_8.png"" class=""exp-image"">
                    <div class=""question-area""></div> 
                </div>","null","","","","","","","",""
"","","","","","html-button-response","116","374844","0.0-116.0","AAD0DF2D1B764E0A89DF9F9919DCCF97","019cee71-8207-7e40-9c73-62370c07b855","019cee5f-9f1f-7e58-80c1-9ba679249cc3","","517","
                <div class=""stimulus-container"">
                    <img src=""images/causal_sequence/museum_causal/museum_causal_8.png"" class=""exp-image"">
                    <div class=""question-area"">
                        <p style=""font-size: 20px; font-weight: bold; margin: 0;"">Is there a person in this image?</p>
                    </div>
                </div>","0","main_experiment_trial","8","museum_causal","causal_sequence","","","",""
"","","","","","html-keyboard-response","117","379845","0.0-117.0","AAD0DF2D1B764E0A89DF9F9919DCCF97","019cee71-8207-7e40-9c73-62370c07b855","019cee5f-9f1f-7e58-80c1-9ba679249cc3","","null","
                <div class=""stimulus-container"">
                    <img src=""images/causal_sequence/museum_causal/museum_causal_9.png"" class=""exp-image"">
                    <div class=""question-area""></div> 
                </div>","null","","","","","","","",""
"","","","","","html-button-response","118","380308","0.0-118.0","AAD0DF2D1B764E0A89DF9F9919DCCF97","019cee71-8207-7e40-9c73-62370c07b855","019cee5f-9f1f-7e58-80c1-9ba679249cc3","","463","
                <div class=""stimulus-container"">
                    <img src=""images/causal_sequence/museum_causal/museum_causal_9.png"" class=""exp-image"">
                    <div class=""question-area"">
                        <p style=""font-size: 20px; font-weight: bold; margin: 0;"">Is there a person in this image?</p>
                    </div>
                </div>","1","main_experiment_trial","9","museum_causal","causal_sequence","","","",""
"","","","","","html-keyboard-response","119","385308","0.0-119.0","AAD0DF2D1B764E0A89DF9F9919DCCF97","019cee71-8207-7e40-9c73-62370c07b855","019cee5f-9f1f-7e58-80c1-9ba679249cc3","","null","
                <div class=""stimulus-container"">
                    <img src=""images/causal_sequence/museum_causal/museum_causal_ten.png"" class=""exp-image"">
                    <div class=""question-area""></div> 
                </div>","null","","","","","","","",""
"","","","","","html-button-response","120","386124","0.0-120.0","AAD0DF2D1B764E0A89DF9F9919DCCF97","019cee71-8207-7e40-9c73-62370c07b855","019cee5f-9f1f-7e58-80c1-9ba679249cc3","","815","
                <div class=""stimulus-container"">
                    <img src=""images/causal_sequence/museum_causal/museum_causal_ten.png"" class=""exp-image"">
                    <div class=""question-area"">
                        <p style=""font-size: 20px; font-weight: bold; margin: 0;"">Is there a person in this image?</p>
                    </div>
                </div>","0","main_experiment_trial","ten","museum_causal","causal_sequence","","","",""
"","","","","","html-keyboard-response","121","387125","0.0-121.0","AAD0DF2D1B764E0A89DF9F9919DCCF97","019cee71-8207-7e40-9c73-62370c07b855","019cee5f-9f1f-7e58-80c1-9ba679249cc3","","null","<div style=""background-color: white; width: 100vw; height: 100vh;""></div>","null","","","","","","","",""
"","","","","","html-keyboard-response","122","392126","0.0-122.0","AAD0DF2D1B764E0A89DF9F9919DCCF97","019cee71-8207-7e40-9c73-62370c07b855","019cee5f-9f1f-7e58-80c1-9ba679249cc3","","null","
                <div class=""stimulus-container"">
                    <img src=""images/schematic_sequence/supermarket_scheme/supermarket_scheme_1.png"" class=""exp-image"">
                    <div class=""question-area""></div> 
                </div>","null","","","","","","","",""
"","","","","","html-button-response","123","392824","0.0-123.0","AAD0DF2D1B764E0A89DF9F9919DCCF97","019cee71-8207-7e40-9c73-62370c07b855","019cee5f-9f1f-7e58-80c1-9ba679249cc3","","697","
                <div class=""stimulus-container"">
                    <img src=""images/schematic_sequence/supermarket_scheme/supermarket_scheme_1.png"" class=""exp-image"">
                    <div class=""question-area"">
                        <p style=""font-size: 20px; font-weight: bold; margin: 0;"">Is there a person in this image?</p>
                    </div>
                </div>","1","main_experiment_trial","1","supermarket_scheme","schematic_sequence","","","",""
"","","","","","html-keyboard-response","124","397825","0.0-124.0","AAD0DF2D1B764E0A89DF9F9919DCCF97","019cee71-8207-7e40-9c73-62370c07b855","019cee5f-9f1f-7e58-80c1-9ba679249cc3","","null","
                <div class=""stimulus-container"">
                    <img src=""images/schematic_sequence/supermarket_scheme/supermarket_scheme_2.png"" class=""exp-image"">
                    <div class=""question-area""></div> 
                </div>","null","","","","","","","",""
"","","","","","html-button-response","125","398969","0.0-125.0","AAD0DF2D1B764E0A89DF9F9919DCCF97","019cee71-8207-7e40-9c73-62370c07b855","019cee5f-9f1f-7e58-80c1-9ba679249cc3","","1144","
                <div class=""stimulus-container"">
                    <img src=""images/schematic_sequence/supermarket_scheme/supermarket_scheme_2.png"" class=""exp-image"">
                    <div class=""question-area"">
                        <p style=""font-size: 20px; font-weight: bold; margin: 0;"">Is there a person in this image?</p>
                    </div>
                </div>","1","main_experiment_trial","2","supermarket_scheme","schematic_sequence","","","",""
"","","","","","html-keyboard-response","126","403970","0.0-126.0","AAD0DF2D1B764E0A89DF9F9919DCCF97","019cee71-8207-7e40-9c73-62370c07b855","019cee5f-9f1f-7e58-80c1-9ba679249cc3","","null","
                <div class=""stimulus-container"">
                    <img src=""images/schematic_sequence/supermarket_scheme/supermarket_scheme_3.png"" class=""exp-image"">
                    <div class=""question-area""></div> 
                </div>","null","","","","","","","",""
"","","","","","html-button-response","127","404986","0.0-127.0","AAD0DF2D1B764E0A89DF9F9919DCCF97","019cee71-8207-7e40-9c73-62370c07b855","019cee5f-9f1f-7e58-80c1-9ba679249cc3","","1015","
                <div class=""stimulus-container"">
                    <img src=""images/schematic_sequence/supermarket_scheme/supermarket_scheme_3.png"" class=""exp-image"">
                    <div class=""question-area"">
                        <p style=""font-size: 20px; font-weight: bold; margin: 0;"">Is there a person in this image?</p>
                    </div>
                </div>","1","main_experiment_trial","3","supermarket_scheme","schematic_sequence","","","",""
"","","","","","html-keyboard-response","128","409987","0.0-128.0","AAD0DF2D1B764E0A89DF9F9919DCCF97","019cee71-8207-7e40-9c73-62370c07b855","019cee5f-9f1f-7e58-80c1-9ba679249cc3","","null","
                <div class=""stimulus-container"">
                    <img src=""images/schematic_sequence/supermarket_scheme/supermarket_scheme_4.png"" class=""exp-image"">
                    <div class=""question-area""></div> 
                </div>","null","","","","","","","",""
"","","","","","html-button-response","129","410745","0.0-129.0","AAD0DF2D1B764E0A89DF9F9919DCCF97","019cee71-8207-7e40-9c73-62370c07b855","019cee5f-9f1f-7e58-80c1-9ba679249cc3","","757","
                <div class=""stimulus-container"">
                    <img src=""images/schematic_sequence/supermarket_scheme/supermarket_scheme_4.png"" class=""exp-image"">
                    <div class=""question-area"">
                        <p style=""font-size: 20px; font-weight: bold; margin: 0;"">Is there a person in this image?</p>
                    </div>
                </div>","0","main_experiment_trial","4","supermarket_scheme","schematic_sequence","","","",""
"","","","","","html-keyboard-response","130","415746","0.0-130.0","AAD0DF2D1B764E0A89DF9F9919DCCF97","019cee71-8207-7e40-9c73-62370c07b855","019cee5f-9f1f-7e58-80c1-9ba679249cc3","","null","
                <div class=""stimulus-container"">
                    <img src=""images/schematic_sequence/supermarket_scheme/supermarket_scheme_5.png"" class=""exp-image"">
                    <div class=""question-area""></div> 
                </div>","null","","","","","","","",""
"","","","","","html-button-response","131","416160","0.0-131.0","AAD0DF2D1B764E0A89DF9F9919DCCF97","019cee71-8207-7e40-9c73-62370c07b855","019cee5f-9f1f-7e58-80c1-9ba679249cc3","","414","
                <div class=""stimulus-container"">
                    <img src=""images/schematic_sequence/supermarket_scheme/supermarket_scheme_5.png"" class=""exp-image"">
                    <div class=""question-area"">
                        <p style=""font-size: 20px; font-weight: bold; margin: 0;"">Is there a person in this image?</p>
                    </div>
                </div>","1","main_experiment_trial","5","supermarket_scheme","schematic_sequence","","","",""
"","","","","","html-keyboard-response","132","421161","0.0-132.0","AAD0DF2D1B764E0A89DF9F9919DCCF97","019cee71-8207-7e40-9c73-62370c07b855","019cee5f-9f1f-7e58-80c1-9ba679249cc3","","null","
                <div class=""stimulus-container"">
                    <img src=""images/schematic_sequence/supermarket_scheme/supermarket_scheme_6.png"" class=""exp-image"">
                    <div class=""question-area""></div> 
                </div>","null","","","","","","","",""
"","","","","","html-button-response","133","422331","0.0-133.0","AAD0DF2D1B764E0A89DF9F9919DCCF97","019cee71-8207-7e40-9c73-62370c07b855","019cee5f-9f1f-7e58-80c1-9ba679249cc3","","1169","
                <div class=""stimulus-container"">
                    <img src=""images/schematic_sequence/supermarket_scheme/supermarket_scheme_6.png"" class=""exp-image"">
                    <div class=""question-area"">
                        <p style=""font-size: 20px; font-weight: bold; margin: 0;"">Is there a person in this image?</p>
                    </div>
                </div>","0","main_experiment_trial","6","supermarket_scheme","schematic_sequence","","","",""
"","","","","","html-keyboard-response","134","427332","0.0-134.0","AAD0DF2D1B764E0A89DF9F9919DCCF97","019cee71-8207-7e40-9c73-62370c07b855","019cee5f-9f1f-7e58-80c1-9ba679249cc3","","null","
                <div class=""stimulus-container"">
                    <img src=""images/schematic_sequence/supermarket_scheme/supermarket_scheme_7.png"" class=""exp-image"">
                    <div class=""question-area""></div> 
                </div>","null","","","","","","","",""
"","","","","","html-button-response","135","428036","0.0-135.0","AAD0DF2D1B764E0A89DF9F9919DCCF97","019cee71-8207-7e40-9c73-62370c07b855","019cee5f-9f1f-7e58-80c1-9ba679249cc3","","703","
                <div class=""stimulus-container"">
                    <img src=""images/schematic_sequence/supermarket_scheme/supermarket_scheme_7.png"" class=""exp-image"">
                    <div class=""question-area"">
                        <p style=""font-size: 20px; font-weight: bold; margin: 0;"">Is there a person in this image?</p>
                    </div>
                </div>","0","main_experiment_trial","7","supermarket_scheme","schematic_sequence","","","",""
"","","","","","html-keyboard-response","136","433036","0.0-136.0","AAD0DF2D1B764E0A89DF9F9919DCCF97","019cee71-8207-7e40-9c73-62370c07b855","019cee5f-9f1f-7e58-80c1-9ba679249cc3","","null","
                <div class=""stimulus-container"">
                    <img src=""images/schematic_sequence/supermarket_scheme/supermarket_scheme_8.png"" class=""exp-image"">
                    <div class=""question-area""></div> 
                </div>","null","","","","","","","",""
"","","","","","html-button-response","137","433728","0.0-137.0","AAD0DF2D1B764E0A89DF9F9919DCCF97","019cee71-8207-7e40-9c73-62370c07b855","019cee5f-9f1f-7e58-80c1-9ba679249cc3","","692","
                <div class=""stimulus-container"">
                    <img src=""images/schematic_sequence/supermarket_scheme/supermarket_scheme_8.png"" class=""exp-image"">
                    <div class=""question-area"">
                        <p style=""font-size: 20px; font-weight: bold; margin: 0;"">Is there a person in this image?</p>
                    </div>
                </div>","0","main_experiment_trial","8","supermarket_scheme","schematic_sequence","","","",""
"","","","","","html-keyboard-response","138","438729","0.0-138.0","AAD0DF2D1B764E0A89DF9F9919DCCF97","019cee71-8207-7e40-9c73-62370c07b855","019cee5f-9f1f-7e58-80c1-9ba679249cc3","","null","
                <div class=""stimulus-container"">
                    <img src=""images/schematic_sequence/supermarket_scheme/supermarket_scheme_9.png"" class=""exp-image"">
                    <div class=""question-area""></div> 
                </div>","null","","","","","","","",""
"","","","","","html-button-response","139","439846","0.0-139.0","AAD0DF2D1B764E0A89DF9F9919DCCF97","019cee71-8207-7e40-9c73-62370c07b855","019cee5f-9f1f-7e58-80c1-9ba679249cc3","","1116","
                <div class=""stimulus-container"">
                    <img src=""images/schematic_sequence/supermarket_scheme/supermarket_scheme_9.png"" class=""exp-image"">
                    <div class=""question-area"">
                        <p style=""font-size: 20px; font-weight: bold; margin: 0;"">Is there a person in this image?</p>
                    </div>
                </div>","0","main_experiment_trial","9","supermarket_scheme","schematic_sequence","","","",""
"","","","","","html-keyboard-response","140","444848","0.0-140.0","AAD0DF2D1B764E0A89DF9F9919DCCF97","019cee71-8207-7e40-9c73-62370c07b855","019cee5f-9f1f-7e58-80c1-9ba679249cc3","","null","
                <div class=""stimulus-container"">
                    <img src=""images/schematic_sequence/supermarket_scheme/supermarket_scheme_ten.png"" class=""exp-image"">
                    <div class=""question-area""></div> 
                </div>","null","","","","","","","",""
"","","","","","html-button-response","141","445752","0.0-141.0","AAD0DF2D1B764E0A89DF9F9919DCCF97","019cee71-8207-7e40-9c73-62370c07b855","019cee5f-9f1f-7e58-80c1-9ba679249cc3","","903","
                <div class=""stimulus-container"">
                    <img src=""images/schematic_sequence/supermarket_scheme/supermarket_scheme_ten.png"" class=""exp-image"">
                    <div class=""question-area"">
                        <p style=""font-size: 20px; font-weight: bold; margin: 0;"">Is there a person in this image?</p>
                    </div>
                </div>","1","main_experiment_trial","ten","supermarket_scheme","schematic_sequence","","","",""
"","","","","","html-keyboard-response","142","446753","0.0-142.0","AAD0DF2D1B764E0A89DF9F9919DCCF97","019cee71-8207-7e40-9c73-62370c07b855","019cee5f-9f1f-7e58-80c1-9ba679249cc3","","null","<div style=""background-color: white; width: 100vw; height: 100vh;""></div>","null","","","","","","","",""
"","","","","","html-keyboard-response","143","451754","0.0-143.0","AAD0DF2D1B764E0A89DF9F9919DCCF97","019cee71-8207-7e40-9c73-62370c07b855","019cee5f-9f1f-7e58-80c1-9ba679249cc3","","null","
                <div class=""stimulus-container"">
                    <img src=""images/causal_sequence/the_performance_causal/the_performance_causal_1.png"" class=""exp-image"">
                    <div class=""question-area""></div> 
                </div>","null","","","","","","","",""
"","","","","","html-button-response","144","453089","0.0-144.0","AAD0DF2D1B764E0A89DF9F9919DCCF97","019cee71-8207-7e40-9c73-62370c07b855","019cee5f-9f1f-7e58-80c1-9ba679249cc3","","1334","
                <div class=""stimulus-container"">
                    <img src=""images/causal_sequence/the_performance_causal/the_performance_causal_1.png"" class=""exp-image"">
                    <div class=""question-area"">
                        <p style=""font-size: 20px; font-weight: bold; margin: 0;"">Is there a person in this image?</p>
                    </div>
                </div>","0","main_experiment_trial","1","the_performance_causal","causal_sequence","","","",""
"","","","","","html-keyboard-response","145","458090","0.0-145.0","AAD0DF2D1B764E0A89DF9F9919DCCF97","019cee71-8207-7e40-9c73-62370c07b855","019cee5f-9f1f-7e58-80c1-9ba679249cc3","","null","
                <div class=""stimulus-container"">
                    <img src=""images/causal_sequence/the_performance_causal/the_performance_causal_2.png"" class=""exp-image"">
                    <div class=""question-area""></div> 
                </div>","null","","","","","","","",""
"","","","","","html-button-response","146","458974","0.0-146.0","AAD0DF2D1B764E0A89DF9F9919DCCF97","019cee71-8207-7e40-9c73-62370c07b855","019cee5f-9f1f-7e58-80c1-9ba679249cc3","","884","
                <div class=""stimulus-container"">
                    <img src=""images/causal_sequence/the_performance_causal/the_performance_causal_2.png"" class=""exp-image"">
                    <div class=""question-area"">
                        <p style=""font-size: 20px; font-weight: bold; margin: 0;"">Is there a person in this image?</p>
                    </div>
                </div>","0","main_experiment_trial","2","the_performance_causal","causal_sequence","","","",""
"","","","","","html-keyboard-response","147","463976","0.0-147.0","AAD0DF2D1B764E0A89DF9F9919DCCF97","019cee71-8207-7e40-9c73-62370c07b855","019cee5f-9f1f-7e58-80c1-9ba679249cc3","","null","
                <div class=""stimulus-container"">
                    <img src=""images/causal_sequence/the_performance_causal/the_performance_causal_3.png"" class=""exp-image"">
                    <div class=""question-area""></div> 
                </div>","null","","","","","","","",""
"","","","","","html-button-response","148","464527","0.0-148.0","AAD0DF2D1B764E0A89DF9F9919DCCF97","019cee71-8207-7e40-9c73-62370c07b855","019cee5f-9f1f-7e58-80c1-9ba679249cc3","","550","
                <div class=""stimulus-container"">
                    <img src=""images/causal_sequence/the_performance_causal/the_performance_causal_3.png"" class=""exp-image"">
                    <div class=""question-area"">
                        <p style=""font-size: 20px; font-weight: bold; margin: 0;"">Is there a person in this image?</p>
                    </div>
                </div>","0","main_experiment_trial","3","the_performance_causal","causal_sequence","","","",""
"","","","","","html-keyboard-response","149","469528","0.0-149.0","AAD0DF2D1B764E0A89DF9F9919DCCF97","019cee71-8207-7e40-9c73-62370c07b855","019cee5f-9f1f-7e58-80c1-9ba679249cc3","","null","
                <div class=""stimulus-container"">
                    <img src=""images/causal_sequence/the_performance_causal/the_performance_causal_4.png"" class=""exp-image"">
                    <div class=""question-area""></div> 
                </div>","null","","","","","","","",""
"","","","","","html-button-response","150","470022","0.0-150.0","AAD0DF2D1B764E0A89DF9F9919DCCF97","019cee71-8207-7e40-9c73-62370c07b855","019cee5f-9f1f-7e58-80c1-9ba679249cc3","","494","
                <div class=""stimulus-container"">
                    <img src=""images/causal_sequence/the_performance_causal/the_performance_causal_4.png"" class=""exp-image"">
                    <div class=""question-area"">
                        <p style=""font-size: 20px; font-weight: bold; margin: 0;"">Is there a person in this image?</p>
                    </div>
                </div>","0","main_experiment_trial","4","the_performance_causal","causal_sequence","","","",""
"","","","","","html-keyboard-response","151","475022","0.0-151.0","AAD0DF2D1B764E0A89DF9F9919DCCF97","019cee71-8207-7e40-9c73-62370c07b855","019cee5f-9f1f-7e58-80c1-9ba679249cc3","","null","
                <div class=""stimulus-container"">
                    <img src=""images/causal_sequence/the_performance_causal/the_performance_causal_5.png"" class=""exp-image"">
                    <div class=""question-area""></div> 
                </div>","null","","","","","","","",""
"","","","","","html-button-response","152","476203","0.0-152.0","AAD0DF2D1B764E0A89DF9F9919DCCF97","019cee71-8207-7e40-9c73-62370c07b855","019cee5f-9f1f-7e58-80c1-9ba679249cc3","","1180","
                <div class=""stimulus-container"">
                    <img src=""images/causal_sequence/the_performance_causal/the_performance_causal_5.png"" class=""exp-image"">
                    <div class=""question-area"">
                        <p style=""font-size: 20px; font-weight: bold; margin: 0;"">Is there a person in this image?</p>
                    </div>
                </div>","0","main_experiment_trial","5","the_performance_causal","causal_sequence","","","",""
"","","","","","html-keyboard-response","153","481203","0.0-153.0","AAD0DF2D1B764E0A89DF9F9919DCCF97","019cee71-8207-7e40-9c73-62370c07b855","019cee5f-9f1f-7e58-80c1-9ba679249cc3","","null","
                <div class=""stimulus-container"">
                    <img src=""images/causal_sequence/the_performance_causal/the_performance_causal_6.png"" class=""exp-image"">
                    <div class=""question-area""></div> 
                </div>","null","","","","","","","",""
"","","","","","html-button-response","154","482226","0.0-154.0","AAD0DF2D1B764E0A89DF9F9919DCCF97","019cee71-8207-7e40-9c73-62370c07b855","019cee5f-9f1f-7e58-80c1-9ba679249cc3","","1023","
                <div class=""stimulus-container"">
                    <img src=""images/causal_sequence/the_performance_causal/the_performance_causal_6.png"" class=""exp-image"">
                    <div class=""question-area"">
                        <p style=""font-size: 20px; font-weight: bold; margin: 0;"">Is there a person in this image?</p>
                    </div>
                </div>","0","main_experiment_trial","6","the_performance_causal","causal_sequence","","","",""
"","","","","","html-keyboard-response","155","487227","0.0-155.0","AAD0DF2D1B764E0A89DF9F9919DCCF97","019cee71-8207-7e40-9c73-62370c07b855","019cee5f-9f1f-7e58-80c1-9ba679249cc3","","null","
                <div class=""stimulus-container"">
                    <img src=""images/causal_sequence/the_performance_causal/the_performance_causal_7.png"" class=""exp-image"">
                    <div class=""question-area""></div> 
                </div>","null","","","","","","","",""
"","","","","","html-button-response","156","488225","0.0-156.0","AAD0DF2D1B764E0A89DF9F9919DCCF97","019cee71-8207-7e40-9c73-62370c07b855","019cee5f-9f1f-7e58-80c1-9ba679249cc3","","997","
                <div class=""stimulus-container"">
                    <img src=""images/causal_sequence/the_performance_causal/the_performance_causal_7.png"" class=""exp-image"">
                    <div class=""question-area"">
                        <p style=""font-size: 20px; font-weight: bold; margin: 0;"">Is there a person in this image?</p>
                    </div>
                </div>","0","main_experiment_trial","7","the_performance_causal","causal_sequence","","","",""
"","","","","","html-keyboard-response","157","493225","0.0-157.0","AAD0DF2D1B764E0A89DF9F9919DCCF97","019cee71-8207-7e40-9c73-62370c07b855","019cee5f-9f1f-7e58-80c1-9ba679249cc3","","null","
                <div class=""stimulus-container"">
                    <img src=""images/causal_sequence/the_performance_causal/the_performance_causal_8.png"" class=""exp-image"">
                    <div class=""question-area""></div> 
                </div>","null","","","","","","","",""
"","","","","","html-button-response","158","493760","0.0-158.0","AAD0DF2D1B764E0A89DF9F9919DCCF97","019cee71-8207-7e40-9c73-62370c07b855","019cee5f-9f1f-7e58-80c1-9ba679249cc3","","534","
                <div class=""stimulus-container"">
                    <img src=""images/causal_sequence/the_performance_causal/the_performance_causal_8.png"" class=""exp-image"">
                    <div class=""question-area"">
                        <p style=""font-size: 20px; font-weight: bold; margin: 0;"">Is there a person in this image?</p>
                    </div>
                </div>","0","main_experiment_trial","8","the_performance_causal","causal_sequence","","","",""
"","","","","","html-keyboard-response","159","498762","0.0-159.0","AAD0DF2D1B764E0A89DF9F9919DCCF97","019cee71-8207-7e40-9c73-62370c07b855","019cee5f-9f1f-7e58-80c1-9ba679249cc3","","null","
                <div class=""stimulus-container"">
                    <img src=""images/causal_sequence/the_performance_causal/the_performance_causal_9.png"" class=""exp-image"">
                    <div class=""question-area""></div> 
                </div>","null","","","","","","","",""
"","","","","","html-button-response","160","499415","0.0-160.0","AAD0DF2D1B764E0A89DF9F9919DCCF97","019cee71-8207-7e40-9c73-62370c07b855","019cee5f-9f1f-7e58-80c1-9ba679249cc3","","653","
                <div class=""stimulus-container"">
                    <img src=""images/causal_sequence/the_performance_causal/the_performance_causal_9.png"" class=""exp-image"">
                    <div class=""question-area"">
                        <p style=""font-size: 20px; font-weight: bold; margin: 0;"">Is there a person in this image?</p>
                    </div>
                </div>","0","main_experiment_trial","9","the_performance_causal","causal_sequence","","","",""
"","","","","","html-keyboard-response","161","504416","0.0-161.0","AAD0DF2D1B764E0A89DF9F9919DCCF97","019cee71-8207-7e40-9c73-62370c07b855","019cee5f-9f1f-7e58-80c1-9ba679249cc3","","null","
                <div class=""stimulus-container"">
                    <img src=""images/causal_sequence/the_performance_causal/the_performance_causal_ten.png"" class=""exp-image"">
                    <div class=""question-area""></div> 
                </div>","null","","","","","","","",""
"","","","","","html-button-response","162","505071","0.0-162.0","AAD0DF2D1B764E0A89DF9F9919DCCF97","019cee71-8207-7e40-9c73-62370c07b855","019cee5f-9f1f-7e58-80c1-9ba679249cc3","","654","
                <div class=""stimulus-container"">
                    <img src=""images/causal_sequence/the_performance_causal/the_performance_causal_ten.png"" class=""exp-image"">
                    <div class=""question-area"">
                        <p style=""font-size: 20px; font-weight: bold; margin: 0;"">Is there a person in this image?</p>
                    </div>
                </div>","0","main_experiment_trial","ten","the_performance_causal","causal_sequence","","","",""
"","","","","","html-keyboard-response","163","506071","0.0-163.0","AAD0DF2D1B764E0A89DF9F9919DCCF97","019cee71-8207-7e40-9c73-62370c07b855","019cee5f-9f1f-7e58-80c1-9ba679249cc3","","null","<div style=""background-color: white; width: 100vw; height: 100vh;""></div>","null","","","","","","","",""
"","","","","","html-keyboard-response","164","511072","0.0-164.0","AAD0DF2D1B764E0A89DF9F9919DCCF97","019cee71-8207-7e40-9c73-62370c07b855","019cee5f-9f1f-7e58-80c1-9ba679249cc3","","null","
                <div class=""stimulus-container"">
                    <img src=""images/schematic_sequence/hotel_scheme/hotel_scheme_1.png"" class=""exp-image"">
                    <div class=""question-area""></div> 
                </div>","null","","","","","","","",""
"","","","","","html-button-response","165","512042","0.0-165.0","AAD0DF2D1B764E0A89DF9F9919DCCF97","019cee71-8207-7e40-9c73-62370c07b855","019cee5f-9f1f-7e58-80c1-9ba679249cc3","","970","
                <div class=""stimulus-container"">
                    <img src=""images/schematic_sequence/hotel_scheme/hotel_scheme_1.png"" class=""exp-image"">
                    <div class=""question-area"">
                        <p style=""font-size: 20px; font-weight: bold; margin: 0;"">Is there a person in this image?</p>
                    </div>
                </div>","1","main_experiment_trial","1","hotel_scheme","schematic_sequence","","","",""
"","","","","","html-keyboard-response","166","517044","0.0-166.0","AAD0DF2D1B764E0A89DF9F9919DCCF97","019cee71-8207-7e40-9c73-62370c07b855","019cee5f-9f1f-7e58-80c1-9ba679249cc3","","null","
                <div class=""stimulus-container"">
                    <img src=""images/schematic_sequence/hotel_scheme/hotel_scheme_2.png"" class=""exp-image"">
                    <div class=""question-area""></div> 
                </div>","null","","","","","","","",""
"","","","","","html-button-response","167","518234","0.0-167.0","AAD0DF2D1B764E0A89DF9F9919DCCF97","019cee71-8207-7e40-9c73-62370c07b855","019cee5f-9f1f-7e58-80c1-9ba679249cc3","","1190","
                <div class=""stimulus-container"">
                    <img src=""images/schematic_sequence/hotel_scheme/hotel_scheme_2.png"" class=""exp-image"">
                    <div class=""question-area"">
                        <p style=""font-size: 20px; font-weight: bold; margin: 0;"">Is there a person in this image?</p>
                    </div>
                </div>","0","main_experiment_trial","2","hotel_scheme","schematic_sequence","","","",""
"","","","","","html-keyboard-response","168","523235","0.0-168.0","AAD0DF2D1B764E0A89DF9F9919DCCF97","019cee71-8207-7e40-9c73-62370c07b855","019cee5f-9f1f-7e58-80c1-9ba679249cc3","","null","
                <div class=""stimulus-container"">
                    <img src=""images/schematic_sequence/hotel_scheme/hotel_scheme_3.png"" class=""exp-image"">
                    <div class=""question-area""></div> 
                </div>","null","","","","","","","",""
"","","","","","html-button-response","169","524210","0.0-169.0","AAD0DF2D1B764E0A89DF9F9919DCCF97","019cee71-8207-7e40-9c73-62370c07b855","019cee5f-9f1f-7e58-80c1-9ba679249cc3","","974","
                <div class=""stimulus-container"">
                    <img src=""images/schematic_sequence/hotel_scheme/hotel_scheme_3.png"" class=""exp-image"">
                    <div class=""question-area"">
                        <p style=""font-size: 20px; font-weight: bold; margin: 0;"">Is there a person in this image?</p>
                    </div>
                </div>","0","main_experiment_trial","3","hotel_scheme","schematic_sequence","","","",""
"","","","","","html-keyboard-response","170","529211","0.0-170.0","AAD0DF2D1B764E0A89DF9F9919DCCF97","019cee71-8207-7e40-9c73-62370c07b855","019cee5f-9f1f-7e58-80c1-9ba679249cc3","","null","
                <div class=""stimulus-container"">
                    <img src=""images/schematic_sequence/hotel_scheme/hotel_scheme_4.png"" class=""exp-image"">
                    <div class=""question-area""></div> 
                </div>","null","","","","","","","",""
"","","","","","html-button-response","171","530208","0.0-171.0","AAD0DF2D1B764E0A89DF9F9919DCCF97","019cee71-8207-7e40-9c73-62370c07b855","019cee5f-9f1f-7e58-80c1-9ba679249cc3","","997","
                <div class=""stimulus-container"">
                    <img src=""images/schematic_sequence/hotel_scheme/hotel_scheme_4.png"" class=""exp-image"">
                    <div class=""question-area"">
                        <p style=""font-size: 20px; font-weight: bold; margin: 0;"">Is there a person in this image?</p>
                    </div>
                </div>","1","main_experiment_trial","4","hotel_scheme","schematic_sequence","","","",""
"","","","","","html-keyboard-response","172","535210","0.0-172.0","AAD0DF2D1B764E0A89DF9F9919DCCF97","019cee71-8207-7e40-9c73-62370c07b855","019cee5f-9f1f-7e58-80c1-9ba679249cc3","","null","
                <div class=""stimulus-container"">
                    <img src=""images/schematic_sequence/hotel_scheme/hotel_scheme_5.png"" class=""exp-image"">
                    <div class=""question-area""></div> 
                </div>","null","","","","","","","",""
"","","","","","html-button-response","173","535881","0.0-173.0","AAD0DF2D1B764E0A89DF9F9919DCCF97","019cee71-8207-7e40-9c73-62370c07b855","019cee5f-9f1f-7e58-80c1-9ba679249cc3","","670","
                <div class=""stimulus-container"">
                    <img src=""images/schematic_sequence/hotel_scheme/hotel_scheme_5.png"" class=""exp-image"">
                    <div class=""question-area"">
                        <p style=""font-size: 20px; font-weight: bold; margin: 0;"">Is there a person in this image?</p>
                    </div>
                </div>","0","main_experiment_trial","5","hotel_scheme","schematic_sequence","","","",""
"","","","","","html-keyboard-response","174","540882","0.0-174.0","AAD0DF2D1B764E0A89DF9F9919DCCF97","019cee71-8207-7e40-9c73-62370c07b855","019cee5f-9f1f-7e58-80c1-9ba679249cc3","","null","
                <div class=""stimulus-container"">
                    <img src=""images/schematic_sequence/hotel_scheme/hotel_scheme_6.png"" class=""exp-image"">
                    <div class=""question-area""></div> 
                </div>","null","","","","","","","",""
"","","","","","html-button-response","175","541589","0.0-175.0","AAD0DF2D1B764E0A89DF9F9919DCCF97","019cee71-8207-7e40-9c73-62370c07b855","019cee5f-9f1f-7e58-80c1-9ba679249cc3","","707","
                <div class=""stimulus-container"">
                    <img src=""images/schematic_sequence/hotel_scheme/hotel_scheme_6.png"" class=""exp-image"">
                    <div class=""question-area"">
                        <p style=""font-size: 20px; font-weight: bold; margin: 0;"">Is there a person in this image?</p>
                    </div>
                </div>","0","main_experiment_trial","6","hotel_scheme","schematic_sequence","","","",""
"","","","","","html-keyboard-response","176","546591","0.0-176.0","AAD0DF2D1B764E0A89DF9F9919DCCF97","019cee71-8207-7e40-9c73-62370c07b855","019cee5f-9f1f-7e58-80c1-9ba679249cc3","","null","
                <div class=""stimulus-container"">
                    <img src=""images/schematic_sequence/hotel_scheme/hotel_scheme_7.png"" class=""exp-image"">
                    <div class=""question-area""></div> 
                </div>","null","","","","","","","",""
"","","","","","html-button-response","177","547485","0.0-177.0","AAD0DF2D1B764E0A89DF9F9919DCCF97","019cee71-8207-7e40-9c73-62370c07b855","019cee5f-9f1f-7e58-80c1-9ba679249cc3","","893","
                <div class=""stimulus-container"">
                    <img src=""images/schematic_sequence/hotel_scheme/hotel_scheme_7.png"" class=""exp-image"">
                    <div class=""question-area"">
                        <p style=""font-size: 20px; font-weight: bold; margin: 0;"">Is there a person in this image?</p>
                    </div>
                </div>","0","main_experiment_trial","7","hotel_scheme","schematic_sequence","","","",""
"","","","","","html-keyboard-response","178","552487","0.0-178.0","AAD0DF2D1B764E0A89DF9F9919DCCF97","019cee71-8207-7e40-9c73-62370c07b855","019cee5f-9f1f-7e58-80c1-9ba679249cc3","","null","
                <div class=""stimulus-container"">
                    <img src=""images/schematic_sequence/hotel_scheme/hotel_scheme_8.png"" class=""exp-image"">
                    <div class=""question-area""></div> 
                </div>","null","","","","","","","",""
"","","","","","html-button-response","179","552899","0.0-179.0","AAD0DF2D1B764E0A89DF9F9919DCCF97","019cee71-8207-7e40-9c73-62370c07b855","019cee5f-9f1f-7e58-80c1-9ba679249cc3","","412","
                <div class=""stimulus-container"">
                    <img src=""images/schematic_sequence/hotel_scheme/hotel_scheme_8.png"" class=""exp-image"">
                    <div class=""question-area"">
                        <p style=""font-size: 20px; font-weight: bold; margin: 0;"">Is there a person in this image?</p>
                    </div>
                </div>","0","main_experiment_trial","8","hotel_scheme","schematic_sequence","","","",""
"","","","","","html-keyboard-response","180","557900","0.0-180.0","AAD0DF2D1B764E0A89DF9F9919DCCF97","019cee71-8207-7e40-9c73-62370c07b855","019cee5f-9f1f-7e58-80c1-9ba679249cc3","","null","
                <div class=""stimulus-container"">
                    <img src=""images/schematic_sequence/hotel_scheme/hotel_scheme_9.png"" class=""exp-image"">
                    <div class=""question-area""></div> 
                </div>","null","","","","","","","",""
"","","","","","html-button-response","181","559193","0.0-181.0","AAD0DF2D1B764E0A89DF9F9919DCCF97","019cee71-8207-7e40-9c73-62370c07b855","019cee5f-9f1f-7e58-80c1-9ba679249cc3","","1293","
                <div class=""stimulus-container"">
                    <img src=""images/schematic_sequence/hotel_scheme/hotel_scheme_9.png"" class=""exp-image"">
                    <div class=""question-area"">
                        <p style=""font-size: 20px; font-weight: bold; margin: 0;"">Is there a person in this image?</p>
                    </div>
                </div>","0","main_experiment_trial","9","hotel_scheme","schematic_sequence","","","",""
"","","","","","html-keyboard-response","182","564194","0.0-182.0","AAD0DF2D1B764E0A89DF9F9919DCCF97","019cee71-8207-7e40-9c73-62370c07b855","019cee5f-9f1f-7e58-80c1-9ba679249cc3","","null","
                <div class=""stimulus-container"">
                    <img src=""images/schematic_sequence/hotel_scheme/hotel_scheme_ten.png"" class=""exp-image"">
                    <div class=""question-area""></div> 
                </div>","null","","","","","","","",""
"","","","","","html-button-response","183","564557","0.0-183.0","AAD0DF2D1B764E0A89DF9F9919DCCF97","019cee71-8207-7e40-9c73-62370c07b855","019cee5f-9f1f-7e58-80c1-9ba679249cc3","","363","
                <div class=""stimulus-container"">
                    <img src=""images/schematic_sequence/hotel_scheme/hotel_scheme_ten.png"" class=""exp-image"">
                    <div class=""question-area"">
                        <p style=""font-size: 20px; font-weight: bold; margin: 0;"">Is there a person in this image?</p>
                    </div>
                </div>","0","main_experiment_trial","ten","hotel_scheme","schematic_sequence","","","",""
"","","","","","html-keyboard-response","184","565558","0.0-184.0","AAD0DF2D1B764E0A89DF9F9919DCCF97","019cee71-8207-7e40-9c73-62370c07b855","019cee5f-9f1f-7e58-80c1-9ba679249cc3","","null","<div style=""background-color: white; width: 100vw; height: 100vh;""></div>","null","","","","","","","",""
