"success","timeout","failed_images","failed_audio","failed_video","trial_type","trial_index","time_elapsed","internal_node_id","subject_id","study_id","session_id","view_history","rt","stimulus","response","task","image_index","folder","sequence_type","valuable_image_index","reward_type","chosen_image_index","target_X","correct_choice"
"true","false","[]","[]","[]","preload","0","7801","0.0-0.0","9F16264C4DC546E5A9F79C69618D71B6","019cf546-d56a-7649-8685-02b7d2b84fef","019cf509-e3f1-72d9-bf6b-e2f1118fdaab","","","","","","","","","","","","",""
"","","","","","instructions","1","11580","0.0-1.0","9F16264C4DC546E5A9F79C69618D71B6","019cf546-d56a-7649-8685-02b7d2b84fef","019cf509-e3f1-72d9-bf6b-e2f1118fdaab","[{""page_index"":0,""viewing_time"":3777}]","3777","","","","","","","","","","",""
"","","","","","instructions","2","28769","0.0-2.0","9F16264C4DC546E5A9F79C69618D71B6","019cf546-d56a-7649-8685-02b7d2b84fef","019cf509-e3f1-72d9-bf6b-e2f1118fdaab","[{""page_index"":0,""viewing_time"":17181}]","17188","","","","","","","","","","",""
"true","","","","","fullscreen","3","39988","0.0-3.0","9F16264C4DC546E5A9F79C69618D71B6","019cf546-d56a-7649-8685-02b7d2b84fef","019cf509-e3f1-72d9-bf6b-e2f1118fdaab","","10216","","","","","","","","","","",""
"","","","","","instructions","4","53349","0.0-4.0","9F16264C4DC546E5A9F79C69618D71B6","019cf546-d56a-7649-8685-02b7d2b84fef","019cf509-e3f1-72d9-bf6b-e2f1118fdaab","[{""page_index"":0,""viewing_time"":13360}]","13360","","","","","","","","","","",""
"","","","","","instructions","5","59821","0.0-5.0","9F16264C4DC546E5A9F79C69618D71B6","019cf546-d56a-7649-8685-02b7d2b84fef","019cf509-e3f1-72d9-bf6b-e2f1118fdaab","[{""page_index"":0,""viewing_time"":6471}]","6472","","","","","","","","","","",""
"","","","","","html-keyboard-response","6","63824","0.0-6.0","9F16264C4DC546E5A9F79C69618D71B6","019cf546-d56a-7649-8685-02b7d2b84fef","019cf509-e3f1-72d9-bf6b-e2f1118fdaab","","null","
                <div class=""stimulus-container"">
                    <img src=""images/instructions/movie_1.png"" class=""exp-image"">
                    <div class=""question-area""></div> 
                </div>","null","","","","","","","","",""
"","","","","","html-button-response","7","65193","0.0-7.0","9F16264C4DC546E5A9F79C69618D71B6","019cf546-d56a-7649-8685-02b7d2b84fef","019cf509-e3f1-72d9-bf6b-e2f1118fdaab","","1368","
                <div class=""stimulus-container"">
                    <img src=""images/instructions/movie_1.png"" class=""exp-image"">
                    <div class=""question-area"">
                        <p style=""font-size: 20px; font-weight: bold; margin: 0;"">Was there a person in this image?</p>
                    </div>
                </div>","0","example_question","1","","","","","","",""
"","","","","","html-keyboard-response","8","69194","0.0-8.0","9F16264C4DC546E5A9F79C69618D71B6","019cf546-d56a-7649-8685-02b7d2b84fef","019cf509-e3f1-72d9-bf6b-e2f1118fdaab","","null","
                <div class=""stimulus-container"">
                    <img src=""images/instructions/movie_2.png"" class=""exp-image"">
                    <div class=""question-area""></div> 
                </div>","null","","","","","","","","",""
"","","","","","html-button-response","9","70130","0.0-9.0","9F16264C4DC546E5A9F79C69618D71B6","019cf546-d56a-7649-8685-02b7d2b84fef","019cf509-e3f1-72d9-bf6b-e2f1118fdaab","","935","
                <div class=""stimulus-container"">
                    <img src=""images/instructions/movie_2.png"" class=""exp-image"">
                    <div class=""question-area"">
                        <p style=""font-size: 20px; font-weight: bold; margin: 0;"">Was there a person in this image?</p>
                    </div>
                </div>","0","example_question","2","","","","","","",""
"","","","","","html-keyboard-response","10","74132","0.0-10.0","9F16264C4DC546E5A9F79C69618D71B6","019cf546-d56a-7649-8685-02b7d2b84fef","019cf509-e3f1-72d9-bf6b-e2f1118fdaab","","null","
                <div class=""stimulus-container"">
                    <img src=""images/instructions/movie_3.png"" class=""exp-image"">
                    <div class=""question-area""></div> 
                </div>","null","","","","","","","","",""
"","","","","","html-button-response","11","75485","0.0-11.0","9F16264C4DC546E5A9F79C69618D71B6","019cf546-d56a-7649-8685-02b7d2b84fef","019cf509-e3f1-72d9-bf6b-e2f1118fdaab","","1351","
                <div class=""stimulus-container"">
                    <img src=""images/instructions/movie_3.png"" class=""exp-image"">
                    <div class=""question-area"">
                        <p style=""font-size: 20px; font-weight: bold; margin: 0;"">Was there a person in this image?</p>
                    </div>
                </div>","0","example_question","3","","","","","","",""
"","","","","","html-keyboard-response","12","79486","0.0-12.0","9F16264C4DC546E5A9F79C69618D71B6","019cf546-d56a-7649-8685-02b7d2b84fef","019cf509-e3f1-72d9-bf6b-e2f1118fdaab","","null","
                <div class=""stimulus-container"">
                    <img src=""images/instructions/movie_4.png"" class=""exp-image"">
                    <div class=""question-area""></div> 
                </div>","null","","","","","","","","",""
"","","","","","html-button-response","13","80188","0.0-13.0","9F16264C4DC546E5A9F79C69618D71B6","019cf546-d56a-7649-8685-02b7d2b84fef","019cf509-e3f1-72d9-bf6b-e2f1118fdaab","","701","
                <div class=""stimulus-container"">
                    <img src=""images/instructions/movie_4.png"" class=""exp-image"">
                    <div class=""question-area"">
                        <p style=""font-size: 20px; font-weight: bold; margin: 0;"">Was there a person in this image?</p>
                    </div>
                </div>","0","example_question","4","","","","","","",""
"","","","","","instructions","14","81873","0.0-14.0","9F16264C4DC546E5A9F79C69618D71B6","019cf546-d56a-7649-8685-02b7d2b84fef","019cf509-e3f1-72d9-bf6b-e2f1118fdaab","[{""page_index"":0,""viewing_time"":1684}]","1684","","","","","","","","","","",""
"","","","","","instructions","15","87195","0.0-15.0","9F16264C4DC546E5A9F79C69618D71B6","019cf546-d56a-7649-8685-02b7d2b84fef","019cf509-e3f1-72d9-bf6b-e2f1118fdaab","[{""page_index"":0,""viewing_time"":5320}]","5320","","","","","","","","","","",""
"","","","","","html-keyboard-response","16","88196","0.0-16.0","9F16264C4DC546E5A9F79C69618D71B6","019cf546-d56a-7649-8685-02b7d2b84fef","019cf509-e3f1-72d9-bf6b-e2f1118fdaab","","null","<div style=""background-color: white; width: 100vw; height: 100vh;""></div>","null","","","","","","","","",""
"","","","","","html-keyboard-response","17","93207","0.0-17.0","9F16264C4DC546E5A9F79C69618D71B6","019cf546-d56a-7649-8685-02b7d2b84fef","019cf509-e3f1-72d9-bf6b-e2f1118fdaab","","null","
                <div class=""stimulus-container"">
                    <img src=""images/causal_sequence/saving_a_cat_causal/saving_a_cat_causal_1.png"" class=""exp-image"">
                    <div class=""question-area""></div> 
                </div>","null","","","","","","","","",""
"","","","","","html-button-response","18","94167","0.0-18.0","9F16264C4DC546E5A9F79C69618D71B6","019cf546-d56a-7649-8685-02b7d2b84fef","019cf509-e3f1-72d9-bf6b-e2f1118fdaab","","959","
                <div class=""stimulus-container"">
                    <img src=""images/causal_sequence/saving_a_cat_causal/saving_a_cat_causal_1.png"" class=""exp-image"">
                    <div class=""question-area"">
                        <p style=""font-size: 20px; font-weight: bold; margin: 0;"">Is there a person in this image?</p>
                    </div>
                </div>","0","main_experiment_trial","1","saving_a_cat_causal","causal_sequence","","","","",""
"","","","","","html-keyboard-response","19","99168","0.0-19.0","9F16264C4DC546E5A9F79C69618D71B6","019cf546-d56a-7649-8685-02b7d2b84fef","019cf509-e3f1-72d9-bf6b-e2f1118fdaab","","null","
                <div class=""stimulus-container"">
                    <img src=""images/causal_sequence/saving_a_cat_causal/saving_a_cat_causal_2.png"" class=""exp-image"">
                    <div class=""question-area""></div> 
                </div>","null","","","","","","","","",""
"","","","","","html-button-response","20","100006","0.0-20.0","9F16264C4DC546E5A9F79C69618D71B6","019cf546-d56a-7649-8685-02b7d2b84fef","019cf509-e3f1-72d9-bf6b-e2f1118fdaab","","837","
                <div class=""stimulus-container"">
                    <img src=""images/causal_sequence/saving_a_cat_causal/saving_a_cat_causal_2.png"" class=""exp-image"">
                    <div class=""question-area"">
                        <p style=""font-size: 20px; font-weight: bold; margin: 0;"">Is there a person in this image?</p>
                    </div>
                </div>","1","main_experiment_trial","2","saving_a_cat_causal","causal_sequence","","","","",""
"","","","","","html-keyboard-response","21","105007","0.0-21.0","9F16264C4DC546E5A9F79C69618D71B6","019cf546-d56a-7649-8685-02b7d2b84fef","019cf509-e3f1-72d9-bf6b-e2f1118fdaab","","null","
                <div class=""stimulus-container"">
                    <img src=""images/causal_sequence/saving_a_cat_causal/saving_a_cat_causal_3.png"" class=""exp-image"">
                    <div class=""question-area""></div> 
                </div>","null","","","","","","","","",""
"","","","","","html-button-response","22","105710","0.0-22.0","9F16264C4DC546E5A9F79C69618D71B6","019cf546-d56a-7649-8685-02b7d2b84fef","019cf509-e3f1-72d9-bf6b-e2f1118fdaab","","702","
                <div class=""stimulus-container"">
                    <img src=""images/causal_sequence/saving_a_cat_causal/saving_a_cat_causal_3.png"" class=""exp-image"">
                    <div class=""question-area"">
                        <p style=""font-size: 20px; font-weight: bold; margin: 0;"">Is there a person in this image?</p>
                    </div>
                </div>","1","main_experiment_trial","3","saving_a_cat_causal","causal_sequence","","","","",""
"","","","","","html-keyboard-response","23","110712","0.0-23.0","9F16264C4DC546E5A9F79C69618D71B6","019cf546-d56a-7649-8685-02b7d2b84fef","019cf509-e3f1-72d9-bf6b-e2f1118fdaab","","null","
                <div class=""stimulus-container"">
                    <img src=""images/causal_sequence/saving_a_cat_causal/saving_a_cat_causal_4.png"" class=""exp-image"">
                    <div class=""question-area""></div> 
                </div>","null","","","","","","","","",""
"","","","","","html-button-response","24","111866","0.0-24.0","9F16264C4DC546E5A9F79C69618D71B6","019cf546-d56a-7649-8685-02b7d2b84fef","019cf509-e3f1-72d9-bf6b-e2f1118fdaab","","1154","
                <div class=""stimulus-container"">
                    <img src=""images/causal_sequence/saving_a_cat_causal/saving_a_cat_causal_4.png"" class=""exp-image"">
                    <div class=""question-area"">
                        <p style=""font-size: 20px; font-weight: bold; margin: 0;"">Is there a person in this image?</p>
                    </div>
                </div>","0","main_experiment_trial","4","saving_a_cat_causal","causal_sequence","","","","",""
"","","","","","html-keyboard-response","25","116867","0.0-25.0","9F16264C4DC546E5A9F79C69618D71B6","019cf546-d56a-7649-8685-02b7d2b84fef","019cf509-e3f1-72d9-bf6b-e2f1118fdaab","","null","
                <div class=""stimulus-container"">
                    <img src=""images/causal_sequence/saving_a_cat_causal/saving_a_cat_causal_5.png"" class=""exp-image"">
                    <div class=""question-area""></div> 
                </div>","null","","","","","","","","",""
"","","","","","html-button-response","26","117437","0.0-26.0","9F16264C4DC546E5A9F79C69618D71B6","019cf546-d56a-7649-8685-02b7d2b84fef","019cf509-e3f1-72d9-bf6b-e2f1118fdaab","","569","
                <div class=""stimulus-container"">
                    <img src=""images/causal_sequence/saving_a_cat_causal/saving_a_cat_causal_5.png"" class=""exp-image"">
                    <div class=""question-area"">
                        <p style=""font-size: 20px; font-weight: bold; margin: 0;"">Is there a person in this image?</p>
                    </div>
                </div>","0","main_experiment_trial","5","saving_a_cat_causal","causal_sequence","","","","",""
"","","","","","html-keyboard-response","27","122438","0.0-27.0","9F16264C4DC546E5A9F79C69618D71B6","019cf546-d56a-7649-8685-02b7d2b84fef","019cf509-e3f1-72d9-bf6b-e2f1118fdaab","","null","
                <div class=""stimulus-container"">
                    <img src=""images/causal_sequence/saving_a_cat_causal/saving_a_cat_causal_6.png"" class=""exp-image"">
                    <div class=""question-area""></div> 
                </div>","null","","","","","","","","",""
"","","","","","html-button-response","28","123192","0.0-28.0","9F16264C4DC546E5A9F79C69618D71B6","019cf546-d56a-7649-8685-02b7d2b84fef","019cf509-e3f1-72d9-bf6b-e2f1118fdaab","","753","
                <div class=""stimulus-container"">
                    <img src=""images/causal_sequence/saving_a_cat_causal/saving_a_cat_causal_6.png"" class=""exp-image"">
                    <div class=""question-area"">
                        <p style=""font-size: 20px; font-weight: bold; margin: 0;"">Is there a person in this image?</p>
                    </div>
                </div>","0","main_experiment_trial","6","saving_a_cat_causal","causal_sequence","","","","",""
"","","","","","html-keyboard-response","29","128193","0.0-29.0","9F16264C4DC546E5A9F79C69618D71B6","019cf546-d56a-7649-8685-02b7d2b84fef","019cf509-e3f1-72d9-bf6b-e2f1118fdaab","","null","
                <div class=""stimulus-container"">
                    <img src=""images/causal_sequence/saving_a_cat_causal/saving_a_cat_causal_7.png"" class=""exp-image"">
                    <div class=""question-area""></div> 
                </div>","null","","","","","","","","",""
"","","","","","html-button-response","30","129431","0.0-30.0","9F16264C4DC546E5A9F79C69618D71B6","019cf546-d56a-7649-8685-02b7d2b84fef","019cf509-e3f1-72d9-bf6b-e2f1118fdaab","","1236","
                <div class=""stimulus-container"">
                    <img src=""images/causal_sequence/saving_a_cat_causal/saving_a_cat_causal_7.png"" class=""exp-image"">
                    <div class=""question-area"">
                        <p style=""font-size: 20px; font-weight: bold; margin: 0;"">Is there a person in this image?</p>
                    </div>
                </div>","0","main_experiment_trial","7","saving_a_cat_causal","causal_sequence","","","","",""
"","","","","","html-keyboard-response","31","134432","0.0-31.0","9F16264C4DC546E5A9F79C69618D71B6","019cf546-d56a-7649-8685-02b7d2b84fef","019cf509-e3f1-72d9-bf6b-e2f1118fdaab","","null","
                <div class=""stimulus-container"">
                    <img src=""images/causal_sequence/saving_a_cat_causal/saving_a_cat_causal_8.png"" class=""exp-image"">
                    <div class=""question-area""></div> 
                </div>","null","","","","","","","","",""
"","","","","","html-button-response","32","136037","0.0-32.0","9F16264C4DC546E5A9F79C69618D71B6","019cf546-d56a-7649-8685-02b7d2b84fef","019cf509-e3f1-72d9-bf6b-e2f1118fdaab","","1604","
                <div class=""stimulus-container"">
                    <img src=""images/causal_sequence/saving_a_cat_causal/saving_a_cat_causal_8.png"" class=""exp-image"">
                    <div class=""question-area"">
                        <p style=""font-size: 20px; font-weight: bold; margin: 0;"">Is there a person in this image?</p>
                    </div>
                </div>","0","main_experiment_trial","8","saving_a_cat_causal","causal_sequence","","","","",""
"","","","","","html-keyboard-response","33","141039","0.0-33.0","9F16264C4DC546E5A9F79C69618D71B6","019cf546-d56a-7649-8685-02b7d2b84fef","019cf509-e3f1-72d9-bf6b-e2f1118fdaab","","null","
                <div class=""stimulus-container"">
                    <img src=""images/causal_sequence/saving_a_cat_causal/saving_a_cat_causal_9.png"" class=""exp-image"">
                    <div class=""question-area""></div> 
                </div>","null","","","","","","","","",""
"","","","","","html-button-response","34","141641","0.0-34.0","9F16264C4DC546E5A9F79C69618D71B6","019cf546-d56a-7649-8685-02b7d2b84fef","019cf509-e3f1-72d9-bf6b-e2f1118fdaab","","600","
                <div class=""stimulus-container"">
                    <img src=""images/causal_sequence/saving_a_cat_causal/saving_a_cat_causal_9.png"" class=""exp-image"">
                    <div class=""question-area"">
                        <p style=""font-size: 20px; font-weight: bold; margin: 0;"">Is there a person in this image?</p>
                    </div>
                </div>","0","main_experiment_trial","9","saving_a_cat_causal","causal_sequence","","","","",""
"","","","","","html-keyboard-response","35","146643","0.0-35.0","9F16264C4DC546E5A9F79C69618D71B6","019cf546-d56a-7649-8685-02b7d2b84fef","019cf509-e3f1-72d9-bf6b-e2f1118fdaab","","null","
                <div class=""stimulus-container"">
                    <img src=""images/causal_sequence/saving_a_cat_causal/saving_a_cat_causal_ten.png"" class=""exp-image"">
                    <div class=""question-area""></div> 
                </div>","null","","","","","","","","",""
"","","","","","html-button-response","36","147530","0.0-36.0","9F16264C4DC546E5A9F79C69618D71B6","019cf546-d56a-7649-8685-02b7d2b84fef","019cf509-e3f1-72d9-bf6b-e2f1118fdaab","","886","
                <div class=""stimulus-container"">
                    <img src=""images/causal_sequence/saving_a_cat_causal/saving_a_cat_causal_ten.png"" class=""exp-image"">
                    <div class=""question-area"">
                        <p style=""font-size: 20px; font-weight: bold; margin: 0;"">Is there a person in this image?</p>
                    </div>
                </div>","0","main_experiment_trial","ten","saving_a_cat_causal","causal_sequence","","","","",""
"","","","","","html-keyboard-response","37","148531","0.0-37.0","9F16264C4DC546E5A9F79C69618D71B6","019cf546-d56a-7649-8685-02b7d2b84fef","019cf509-e3f1-72d9-bf6b-e2f1118fdaab","","null","<div style=""background-color: white; width: 100vw; height: 100vh;""></div>","null","","","","","","","","",""
"","","","","","html-keyboard-response","38","153533","0.0-38.0","9F16264C4DC546E5A9F79C69618D71B6","019cf546-d56a-7649-8685-02b7d2b84fef","019cf509-e3f1-72d9-bf6b-e2f1118fdaab","","null","
                <div class=""stimulus-container"">
                    <img src=""images/schematic_sequence/hotel_scheme/hotel_scheme_1.png"" class=""exp-image"">
                    <div class=""question-area""></div> 
                </div>","null","","","","","","","","",""
"","","","","","html-button-response","39","154237","0.0-39.0","9F16264C4DC546E5A9F79C69618D71B6","019cf546-d56a-7649-8685-02b7d2b84fef","019cf509-e3f1-72d9-bf6b-e2f1118fdaab","","702","
                <div class=""stimulus-container"">
                    <img src=""images/schematic_sequence/hotel_scheme/hotel_scheme_1.png"" class=""exp-image"">
                    <div class=""question-area"">
                        <p style=""font-size: 20px; font-weight: bold; margin: 0;"">Is there a person in this image?</p>
                    </div>
                </div>","1","main_experiment_trial","1","hotel_scheme","schematic_sequence","","","","",""
"","","","","","html-keyboard-response","40","159238","0.0-40.0","9F16264C4DC546E5A9F79C69618D71B6","019cf546-d56a-7649-8685-02b7d2b84fef","019cf509-e3f1-72d9-bf6b-e2f1118fdaab","","null","
                <div class=""stimulus-container"">
                    <img src=""images/schematic_sequence/hotel_scheme/hotel_scheme_2.png"" class=""exp-image"">
                    <div class=""question-area""></div> 
                </div>","null","","","","","","","","",""
"","","","","","html-button-response","41","160307","0.0-41.0","9F16264C4DC546E5A9F79C69618D71B6","019cf546-d56a-7649-8685-02b7d2b84fef","019cf509-e3f1-72d9-bf6b-e2f1118fdaab","","1068","
                <div class=""stimulus-container"">
                    <img src=""images/schematic_sequence/hotel_scheme/hotel_scheme_2.png"" class=""exp-image"">
                    <div class=""question-area"">
                        <p style=""font-size: 20px; font-weight: bold; margin: 0;"">Is there a person in this image?</p>
                    </div>
                </div>","0","main_experiment_trial","2","hotel_scheme","schematic_sequence","","","","",""
"","","","","","html-keyboard-response","42","165309","0.0-42.0","9F16264C4DC546E5A9F79C69618D71B6","019cf546-d56a-7649-8685-02b7d2b84fef","019cf509-e3f1-72d9-bf6b-e2f1118fdaab","","null","
                <div class=""stimulus-container"">
                    <img src=""images/schematic_sequence/hotel_scheme/hotel_scheme_3.png"" class=""exp-image"">
                    <div class=""question-area""></div> 
                </div>","null","","","","","","","","",""
"","","","","","html-button-response","43","165879","0.0-43.0","9F16264C4DC546E5A9F79C69618D71B6","019cf546-d56a-7649-8685-02b7d2b84fef","019cf509-e3f1-72d9-bf6b-e2f1118fdaab","","569","
                <div class=""stimulus-container"">
                    <img src=""images/schematic_sequence/hotel_scheme/hotel_scheme_3.png"" class=""exp-image"">
                    <div class=""question-area"">
                        <p style=""font-size: 20px; font-weight: bold; margin: 0;"">Is there a person in this image?</p>
                    </div>
                </div>","0","main_experiment_trial","3","hotel_scheme","schematic_sequence","","","","",""
"","","","","","html-keyboard-response","44","170881","0.0-44.0","9F16264C4DC546E5A9F79C69618D71B6","019cf546-d56a-7649-8685-02b7d2b84fef","019cf509-e3f1-72d9-bf6b-e2f1118fdaab","","null","
                <div class=""stimulus-container"">
                    <img src=""images/schematic_sequence/hotel_scheme/hotel_scheme_4.png"" class=""exp-image"">
                    <div class=""question-area""></div> 
                </div>","null","","","","","","","","",""
"","","","","","html-button-response","45","171684","0.0-45.0","9F16264C4DC546E5A9F79C69618D71B6","019cf546-d56a-7649-8685-02b7d2b84fef","019cf509-e3f1-72d9-bf6b-e2f1118fdaab","","802","
                <div class=""stimulus-container"">
                    <img src=""images/schematic_sequence/hotel_scheme/hotel_scheme_4.png"" class=""exp-image"">
                    <div class=""question-area"">
                        <p style=""font-size: 20px; font-weight: bold; margin: 0;"">Is there a person in this image?</p>
                    </div>
                </div>","1","main_experiment_trial","4","hotel_scheme","schematic_sequence","","","","",""
"","","","","","html-keyboard-response","46","176685","0.0-46.0","9F16264C4DC546E5A9F79C69618D71B6","019cf546-d56a-7649-8685-02b7d2b84fef","019cf509-e3f1-72d9-bf6b-e2f1118fdaab","","null","
                <div class=""stimulus-container"">
                    <img src=""images/schematic_sequence/hotel_scheme/hotel_scheme_5.png"" class=""exp-image"">
                    <div class=""question-area""></div> 
                </div>","null","","","","","","","","",""
"","","","","","html-button-response","47","177255","0.0-47.0","9F16264C4DC546E5A9F79C69618D71B6","019cf546-d56a-7649-8685-02b7d2b84fef","019cf509-e3f1-72d9-bf6b-e2f1118fdaab","","569","
                <div class=""stimulus-container"">
                    <img src=""images/schematic_sequence/hotel_scheme/hotel_scheme_5.png"" class=""exp-image"">
                    <div class=""question-area"">
                        <p style=""font-size: 20px; font-weight: bold; margin: 0;"">Is there a person in this image?</p>
                    </div>
                </div>","0","main_experiment_trial","5","hotel_scheme","schematic_sequence","","","","",""
"","","","","","html-keyboard-response","48","182256","0.0-48.0","9F16264C4DC546E5A9F79C69618D71B6","019cf546-d56a-7649-8685-02b7d2b84fef","019cf509-e3f1-72d9-bf6b-e2f1118fdaab","","null","
                <div class=""stimulus-container"">
                    <img src=""images/schematic_sequence/hotel_scheme/hotel_scheme_6.png"" class=""exp-image"">
                    <div class=""question-area""></div> 
                </div>","null","","","","","","","","",""
"","","","","","html-button-response","49","182877","0.0-49.0","9F16264C4DC546E5A9F79C69618D71B6","019cf546-d56a-7649-8685-02b7d2b84fef","019cf509-e3f1-72d9-bf6b-e2f1118fdaab","","619","
                <div class=""stimulus-container"">
                    <img src=""images/schematic_sequence/hotel_scheme/hotel_scheme_6.png"" class=""exp-image"">
                    <div class=""question-area"">
                        <p style=""font-size: 20px; font-weight: bold; margin: 0;"">Is there a person in this image?</p>
                    </div>
                </div>","0","main_experiment_trial","6","hotel_scheme","schematic_sequence","","","","",""
"","","","","","html-keyboard-response","50","187879","0.0-50.0","9F16264C4DC546E5A9F79C69618D71B6","019cf546-d56a-7649-8685-02b7d2b84fef","019cf509-e3f1-72d9-bf6b-e2f1118fdaab","","null","
                <div class=""stimulus-container"">
                    <img src=""images/schematic_sequence/hotel_scheme/hotel_scheme_7.png"" class=""exp-image"">
                    <div class=""question-area""></div> 
                </div>","null","","","","","","","","",""
"","","","","","html-button-response","51","188532","0.0-51.0","9F16264C4DC546E5A9F79C69618D71B6","019cf546-d56a-7649-8685-02b7d2b84fef","019cf509-e3f1-72d9-bf6b-e2f1118fdaab","","651","
                <div class=""stimulus-container"">
                    <img src=""images/schematic_sequence/hotel_scheme/hotel_scheme_7.png"" class=""exp-image"">
                    <div class=""question-area"">
                        <p style=""font-size: 20px; font-weight: bold; margin: 0;"">Is there a person in this image?</p>
                    </div>
                </div>","0","main_experiment_trial","7","hotel_scheme","schematic_sequence","","","","",""
"","","","","","html-keyboard-response","52","193533","0.0-52.0","9F16264C4DC546E5A9F79C69618D71B6","019cf546-d56a-7649-8685-02b7d2b84fef","019cf509-e3f1-72d9-bf6b-e2f1118fdaab","","null","
                <div class=""stimulus-container"">
                    <img src=""images/schematic_sequence/hotel_scheme/hotel_scheme_8.png"" class=""exp-image"">
                    <div class=""question-area""></div> 
                </div>","null","","","","","","","","",""
"","","","","","html-button-response","53","195120","0.0-53.0","9F16264C4DC546E5A9F79C69618D71B6","019cf546-d56a-7649-8685-02b7d2b84fef","019cf509-e3f1-72d9-bf6b-e2f1118fdaab","","1586","
                <div class=""stimulus-container"">
                    <img src=""images/schematic_sequence/hotel_scheme/hotel_scheme_8.png"" class=""exp-image"">
                    <div class=""question-area"">
                        <p style=""font-size: 20px; font-weight: bold; margin: 0;"">Is there a person in this image?</p>
                    </div>
                </div>","0","main_experiment_trial","8","hotel_scheme","schematic_sequence","","","","",""
"","","","","","html-keyboard-response","54","200122","0.0-54.0","9F16264C4DC546E5A9F79C69618D71B6","019cf546-d56a-7649-8685-02b7d2b84fef","019cf509-e3f1-72d9-bf6b-e2f1118fdaab","","null","
                <div class=""stimulus-container"">
                    <img src=""images/schematic_sequence/hotel_scheme/hotel_scheme_9.png"" class=""exp-image"">
                    <div class=""question-area""></div> 
                </div>","null","","","","","","","","",""
"","","","","","html-button-response","55","200759","0.0-55.0","9F16264C4DC546E5A9F79C69618D71B6","019cf546-d56a-7649-8685-02b7d2b84fef","019cf509-e3f1-72d9-bf6b-e2f1118fdaab","","636","
                <div class=""stimulus-container"">
                    <img src=""images/schematic_sequence/hotel_scheme/hotel_scheme_9.png"" class=""exp-image"">
                    <div class=""question-area"">
                        <p style=""font-size: 20px; font-weight: bold; margin: 0;"">Is there a person in this image?</p>
                    </div>
                </div>","0","main_experiment_trial","9","hotel_scheme","schematic_sequence","","","","",""
"","","","","","html-keyboard-response","56","205760","0.0-56.0","9F16264C4DC546E5A9F79C69618D71B6","019cf546-d56a-7649-8685-02b7d2b84fef","019cf509-e3f1-72d9-bf6b-e2f1118fdaab","","null","
                <div class=""stimulus-container"">
                    <img src=""images/schematic_sequence/hotel_scheme/hotel_scheme_ten.png"" class=""exp-image"">
                    <div class=""question-area""></div> 
                </div>","null","","","","","","","","",""
"","","","","","html-button-response","57","206897","0.0-57.0","9F16264C4DC546E5A9F79C69618D71B6","019cf546-d56a-7649-8685-02b7d2b84fef","019cf509-e3f1-72d9-bf6b-e2f1118fdaab","","1136","
                <div class=""stimulus-container"">
                    <img src=""images/schematic_sequence/hotel_scheme/hotel_scheme_ten.png"" class=""exp-image"">
                    <div class=""question-area"">
                        <p style=""font-size: 20px; font-weight: bold; margin: 0;"">Is there a person in this image?</p>
                    </div>
                </div>","0","main_experiment_trial","ten","hotel_scheme","schematic_sequence","","","","",""
"","","","","","html-keyboard-response","58","207899","0.0-58.0","9F16264C4DC546E5A9F79C69618D71B6","019cf546-d56a-7649-8685-02b7d2b84fef","019cf509-e3f1-72d9-bf6b-e2f1118fdaab","","null","<div style=""background-color: white; width: 100vw; height: 100vh;""></div>","null","","","","","","","","",""
"","","","","","html-keyboard-response","59","212901","0.0-59.0","9F16264C4DC546E5A9F79C69618D71B6","019cf546-d56a-7649-8685-02b7d2b84fef","019cf509-e3f1-72d9-bf6b-e2f1118fdaab","","null","
                <div class=""stimulus-container"">
                    <img src=""images/schematic_sequence/dinner_party_scheme/dinner_party_scheme_1.png"" class=""exp-image"">
                    <div class=""question-area""></div> 
                </div>","null","","","","","","","","",""
"","","","","","html-button-response","60","213670","0.0-60.0","9F16264C4DC546E5A9F79C69618D71B6","019cf546-d56a-7649-8685-02b7d2b84fef","019cf509-e3f1-72d9-bf6b-e2f1118fdaab","","768","
                <div class=""stimulus-container"">
                    <img src=""images/schematic_sequence/dinner_party_scheme/dinner_party_scheme_1.png"" class=""exp-image"">
                    <div class=""question-area"">
                        <p style=""font-size: 20px; font-weight: bold; margin: 0;"">Is there a person in this image?</p>
                    </div>
                </div>","0","main_experiment_trial","1","dinner_party_scheme","schematic_sequence","","","","",""
"","","","","","html-keyboard-response","61","218671","0.0-61.0","9F16264C4DC546E5A9F79C69618D71B6","019cf546-d56a-7649-8685-02b7d2b84fef","019cf509-e3f1-72d9-bf6b-e2f1118fdaab","","null","
                <div class=""stimulus-container"">
                    <img src=""images/schematic_sequence/dinner_party_scheme/dinner_party_scheme_2.png"" class=""exp-image"">
                    <div class=""question-area""></div> 
                </div>","null","","","","","","","","",""
"","","","","","html-button-response","62","219325","0.0-62.0","9F16264C4DC546E5A9F79C69618D71B6","019cf546-d56a-7649-8685-02b7d2b84fef","019cf509-e3f1-72d9-bf6b-e2f1118fdaab","","653","
                <div class=""stimulus-container"">
                    <img src=""images/schematic_sequence/dinner_party_scheme/dinner_party_scheme_2.png"" class=""exp-image"">
                    <div class=""question-area"">
                        <p style=""font-size: 20px; font-weight: bold; margin: 0;"">Is there a person in this image?</p>
                    </div>
                </div>","0","main_experiment_trial","2","dinner_party_scheme","schematic_sequence","","","","",""
"","","","","","html-keyboard-response","63","224327","0.0-63.0","9F16264C4DC546E5A9F79C69618D71B6","019cf546-d56a-7649-8685-02b7d2b84fef","019cf509-e3f1-72d9-bf6b-e2f1118fdaab","","null","
                <div class=""stimulus-container"">
                    <img src=""images/schematic_sequence/dinner_party_scheme/dinner_party_scheme_3.png"" class=""exp-image"">
                    <div class=""question-area""></div> 
                </div>","null","","","","","","","","",""
"","","","","","html-button-response","64","224946","0.0-64.0","9F16264C4DC546E5A9F79C69618D71B6","019cf546-d56a-7649-8685-02b7d2b84fef","019cf509-e3f1-72d9-bf6b-e2f1118fdaab","","618","
                <div class=""stimulus-container"">
                    <img src=""images/schematic_sequence/dinner_party_scheme/dinner_party_scheme_3.png"" class=""exp-image"">
                    <div class=""question-area"">
                        <p style=""font-size: 20px; font-weight: bold; margin: 0;"">Is there a person in this image?</p>
                    </div>
                </div>","0","main_experiment_trial","3","dinner_party_scheme","schematic_sequence","","","","",""
"","","","","","html-keyboard-response","65","229947","0.0-65.0","9F16264C4DC546E5A9F79C69618D71B6","019cf546-d56a-7649-8685-02b7d2b84fef","019cf509-e3f1-72d9-bf6b-e2f1118fdaab","","null","
                <div class=""stimulus-container"">
                    <img src=""images/schematic_sequence/dinner_party_scheme/dinner_party_scheme_4.png"" class=""exp-image"">
                    <div class=""question-area""></div> 
                </div>","null","","","","","","","","",""
"","","","","","html-button-response","66","230651","0.0-66.0","9F16264C4DC546E5A9F79C69618D71B6","019cf546-d56a-7649-8685-02b7d2b84fef","019cf509-e3f1-72d9-bf6b-e2f1118fdaab","","703","
                <div class=""stimulus-container"">
                    <img src=""images/schematic_sequence/dinner_party_scheme/dinner_party_scheme_4.png"" class=""exp-image"">
                    <div class=""question-area"">
                        <p style=""font-size: 20px; font-weight: bold; margin: 0;"">Is there a person in this image?</p>
                    </div>
                </div>","0","main_experiment_trial","4","dinner_party_scheme","schematic_sequence","","","","",""
"","","","","","html-keyboard-response","67","235652","0.0-67.0","9F16264C4DC546E5A9F79C69618D71B6","019cf546-d56a-7649-8685-02b7d2b84fef","019cf509-e3f1-72d9-bf6b-e2f1118fdaab","","null","
                <div class=""stimulus-container"">
                    <img src=""images/schematic_sequence/dinner_party_scheme/dinner_party_scheme_5.png"" class=""exp-image"">
                    <div class=""question-area""></div> 
                </div>","null","","","","","","","","",""
"","","","","","html-button-response","68","236839","0.0-68.0","9F16264C4DC546E5A9F79C69618D71B6","019cf546-d56a-7649-8685-02b7d2b84fef","019cf509-e3f1-72d9-bf6b-e2f1118fdaab","","1186","
                <div class=""stimulus-container"">
                    <img src=""images/schematic_sequence/dinner_party_scheme/dinner_party_scheme_5.png"" class=""exp-image"">
                    <div class=""question-area"">
                        <p style=""font-size: 20px; font-weight: bold; margin: 0;"">Is there a person in this image?</p>
                    </div>
                </div>","0","main_experiment_trial","5","dinner_party_scheme","schematic_sequence","","","","",""
"","","","","","html-keyboard-response","69","241841","0.0-69.0","9F16264C4DC546E5A9F79C69618D71B6","019cf546-d56a-7649-8685-02b7d2b84fef","019cf509-e3f1-72d9-bf6b-e2f1118fdaab","","null","
                <div class=""stimulus-container"">
                    <img src=""images/schematic_sequence/dinner_party_scheme/dinner_party_scheme_6.png"" class=""exp-image"">
                    <div class=""question-area""></div> 
                </div>","null","","","","","","","","",""
"","","","","","html-button-response","70","243062","0.0-70.0","9F16264C4DC546E5A9F79C69618D71B6","019cf546-d56a-7649-8685-02b7d2b84fef","019cf509-e3f1-72d9-bf6b-e2f1118fdaab","","1220","
                <div class=""stimulus-container"">
                    <img src=""images/schematic_sequence/dinner_party_scheme/dinner_party_scheme_6.png"" class=""exp-image"">
                    <div class=""question-area"">
                        <p style=""font-size: 20px; font-weight: bold; margin: 0;"">Is there a person in this image?</p>
                    </div>
                </div>","0","main_experiment_trial","6","dinner_party_scheme","schematic_sequence","","","","",""
"","","","","","html-keyboard-response","71","248064","0.0-71.0","9F16264C4DC546E5A9F79C69618D71B6","019cf546-d56a-7649-8685-02b7d2b84fef","019cf509-e3f1-72d9-bf6b-e2f1118fdaab","","null","
                <div class=""stimulus-container"">
                    <img src=""images/schematic_sequence/dinner_party_scheme/dinner_party_scheme_7.png"" class=""exp-image"">
                    <div class=""question-area""></div> 
                </div>","null","","","","","","","","",""
"","","","","","html-button-response","72","249567","0.0-72.0","9F16264C4DC546E5A9F79C69618D71B6","019cf546-d56a-7649-8685-02b7d2b84fef","019cf509-e3f1-72d9-bf6b-e2f1118fdaab","","1502","
                <div class=""stimulus-container"">
                    <img src=""images/schematic_sequence/dinner_party_scheme/dinner_party_scheme_7.png"" class=""exp-image"">
                    <div class=""question-area"">
                        <p style=""font-size: 20px; font-weight: bold; margin: 0;"">Is there a person in this image?</p>
                    </div>
                </div>","0","main_experiment_trial","7","dinner_party_scheme","schematic_sequence","","","","",""
"","","","","","html-keyboard-response","73","254568","0.0-73.0","9F16264C4DC546E5A9F79C69618D71B6","019cf546-d56a-7649-8685-02b7d2b84fef","019cf509-e3f1-72d9-bf6b-e2f1118fdaab","","null","
                <div class=""stimulus-container"">
                    <img src=""images/schematic_sequence/dinner_party_scheme/dinner_party_scheme_8.png"" class=""exp-image"">
                    <div class=""question-area""></div> 
                </div>","null","","","","","","","","",""
"","","","","","html-button-response","74","255706","0.0-74.0","9F16264C4DC546E5A9F79C69618D71B6","019cf546-d56a-7649-8685-02b7d2b84fef","019cf509-e3f1-72d9-bf6b-e2f1118fdaab","","1136","
                <div class=""stimulus-container"">
                    <img src=""images/schematic_sequence/dinner_party_scheme/dinner_party_scheme_8.png"" class=""exp-image"">
                    <div class=""question-area"">
                        <p style=""font-size: 20px; font-weight: bold; margin: 0;"">Is there a person in this image?</p>
                    </div>
                </div>","0","main_experiment_trial","8","dinner_party_scheme","schematic_sequence","","","","",""
"","","","","","html-keyboard-response","75","260707","0.0-75.0","9F16264C4DC546E5A9F79C69618D71B6","019cf546-d56a-7649-8685-02b7d2b84fef","019cf509-e3f1-72d9-bf6b-e2f1118fdaab","","null","
                <div class=""stimulus-container"">
                    <img src=""images/schematic_sequence/dinner_party_scheme/dinner_party_scheme_9.png"" class=""exp-image"">
                    <div class=""question-area""></div> 
                </div>","null","","","","","","","","",""
"","","","","","html-button-response","76","261310","0.0-76.0","9F16264C4DC546E5A9F79C69618D71B6","019cf546-d56a-7649-8685-02b7d2b84fef","019cf509-e3f1-72d9-bf6b-e2f1118fdaab","","602","
                <div class=""stimulus-container"">
                    <img src=""images/schematic_sequence/dinner_party_scheme/dinner_party_scheme_9.png"" class=""exp-image"">
                    <div class=""question-area"">
                        <p style=""font-size: 20px; font-weight: bold; margin: 0;"">Is there a person in this image?</p>
                    </div>
                </div>","0","main_experiment_trial","9","dinner_party_scheme","schematic_sequence","","","","",""
"","","","","","html-keyboard-response","77","266312","0.0-77.0","9F16264C4DC546E5A9F79C69618D71B6","019cf546-d56a-7649-8685-02b7d2b84fef","019cf509-e3f1-72d9-bf6b-e2f1118fdaab","","null","
                <div class=""stimulus-container"">
                    <img src=""images/schematic_sequence/dinner_party_scheme/dinner_party_scheme_ten.png"" class=""exp-image"">
                    <div class=""question-area""></div> 
                </div>","null","","","","","","","","",""
"","","","","","html-button-response","78","267383","0.0-78.0","9F16264C4DC546E5A9F79C69618D71B6","019cf546-d56a-7649-8685-02b7d2b84fef","019cf509-e3f1-72d9-bf6b-e2f1118fdaab","","1069","
                <div class=""stimulus-container"">
                    <img src=""images/schematic_sequence/dinner_party_scheme/dinner_party_scheme_ten.png"" class=""exp-image"">
                    <div class=""question-area"">
                        <p style=""font-size: 20px; font-weight: bold; margin: 0;"">Is there a person in this image?</p>
                    </div>
                </div>","0","main_experiment_trial","ten","dinner_party_scheme","schematic_sequence","","","","",""
"","","","","","html-keyboard-response","79","268385","0.0-79.0","9F16264C4DC546E5A9F79C69618D71B6","019cf546-d56a-7649-8685-02b7d2b84fef","019cf509-e3f1-72d9-bf6b-e2f1118fdaab","","null","<div style=""background-color: white; width: 100vw; height: 100vh;""></div>","null","","","","","","","","",""
"","","","","","html-keyboard-response","80","273387","0.0-80.0","9F16264C4DC546E5A9F79C69618D71B6","019cf546-d56a-7649-8685-02b7d2b84fef","019cf509-e3f1-72d9-bf6b-e2f1118fdaab","","null","
                <div class=""stimulus-container"">
                    <img src=""images/causal_sequence/museum_causal/museum_causal_1.png"" class=""exp-image"">
                    <div class=""question-area""></div> 
                </div>","null","","","","","","","","",""
"","","","","","html-button-response","81","274939","0.0-81.0","9F16264C4DC546E5A9F79C69618D71B6","019cf546-d56a-7649-8685-02b7d2b84fef","019cf509-e3f1-72d9-bf6b-e2f1118fdaab","","1550","
                <div class=""stimulus-container"">
                    <img src=""images/causal_sequence/museum_causal/museum_causal_1.png"" class=""exp-image"">
                    <div class=""question-area"">
                        <p style=""font-size: 20px; font-weight: bold; margin: 0;"">Is there a person in this image?</p>
                    </div>
                </div>","0","main_experiment_trial","1","museum_causal","causal_sequence","","","","",""
"","","","","","html-keyboard-response","82","279940","0.0-82.0","9F16264C4DC546E5A9F79C69618D71B6","019cf546-d56a-7649-8685-02b7d2b84fef","019cf509-e3f1-72d9-bf6b-e2f1118fdaab","","null","
                <div class=""stimulus-container"">
                    <img src=""images/causal_sequence/museum_causal/museum_causal_2.png"" class=""exp-image"">
                    <div class=""question-area""></div> 
                </div>","null","","","","","","","","",""
"","","","","","html-button-response","83","281111","0.0-83.0","9F16264C4DC546E5A9F79C69618D71B6","019cf546-d56a-7649-8685-02b7d2b84fef","019cf509-e3f1-72d9-bf6b-e2f1118fdaab","","1171","
                <div class=""stimulus-container"">
                    <img src=""images/causal_sequence/museum_causal/museum_causal_2.png"" class=""exp-image"">
                    <div class=""question-area"">
                        <p style=""font-size: 20px; font-weight: bold; margin: 0;"">Is there a person in this image?</p>
                    </div>
                </div>","0","main_experiment_trial","2","museum_causal","causal_sequence","","","","",""
"","","","","","html-keyboard-response","84","286113","0.0-84.0","9F16264C4DC546E5A9F79C69618D71B6","019cf546-d56a-7649-8685-02b7d2b84fef","019cf509-e3f1-72d9-bf6b-e2f1118fdaab","","null","
                <div class=""stimulus-container"">
                    <img src=""images/causal_sequence/museum_causal/museum_causal_3.png"" class=""exp-image"">
                    <div class=""question-area""></div> 
                </div>","null","","","","","","","","",""
"","","","","","html-button-response","85","287316","0.0-85.0","9F16264C4DC546E5A9F79C69618D71B6","019cf546-d56a-7649-8685-02b7d2b84fef","019cf509-e3f1-72d9-bf6b-e2f1118fdaab","","1203","
                <div class=""stimulus-container"">
                    <img src=""images/causal_sequence/museum_causal/museum_causal_3.png"" class=""exp-image"">
                    <div class=""question-area"">
                        <p style=""font-size: 20px; font-weight: bold; margin: 0;"">Is there a person in this image?</p>
                    </div>
                </div>","0","main_experiment_trial","3","museum_causal","causal_sequence","","","","",""
"","","","","","html-keyboard-response","86","292317","0.0-86.0","9F16264C4DC546E5A9F79C69618D71B6","019cf546-d56a-7649-8685-02b7d2b84fef","019cf509-e3f1-72d9-bf6b-e2f1118fdaab","","null","
                <div class=""stimulus-container"">
                    <img src=""images/causal_sequence/museum_causal/museum_causal_4.png"" class=""exp-image"">
                    <div class=""question-area""></div> 
                </div>","null","","","","","","","","",""
"","","","","","html-button-response","87","293572","0.0-87.0","9F16264C4DC546E5A9F79C69618D71B6","019cf546-d56a-7649-8685-02b7d2b84fef","019cf509-e3f1-72d9-bf6b-e2f1118fdaab","","1253","
                <div class=""stimulus-container"">
                    <img src=""images/causal_sequence/museum_causal/museum_causal_4.png"" class=""exp-image"">
                    <div class=""question-area"">
                        <p style=""font-size: 20px; font-weight: bold; margin: 0;"">Is there a person in this image?</p>
                    </div>
                </div>","1","main_experiment_trial","4","museum_causal","causal_sequence","","","","",""
"","","","","","html-keyboard-response","88","298574","0.0-88.0","9F16264C4DC546E5A9F79C69618D71B6","019cf546-d56a-7649-8685-02b7d2b84fef","019cf509-e3f1-72d9-bf6b-e2f1118fdaab","","null","
                <div class=""stimulus-container"">
                    <img src=""images/causal_sequence/museum_causal/museum_causal_5.png"" class=""exp-image"">
                    <div class=""question-area""></div> 
                </div>","null","","","","","","","","",""
"","","","","","html-button-response","89","299560","0.0-89.0","9F16264C4DC546E5A9F79C69618D71B6","019cf546-d56a-7649-8685-02b7d2b84fef","019cf509-e3f1-72d9-bf6b-e2f1118fdaab","","984","
                <div class=""stimulus-container"">
                    <img src=""images/causal_sequence/museum_causal/museum_causal_5.png"" class=""exp-image"">
                    <div class=""question-area"">
                        <p style=""font-size: 20px; font-weight: bold; margin: 0;"">Is there a person in this image?</p>
                    </div>
                </div>","0","main_experiment_trial","5","museum_causal","causal_sequence","","","","",""
"","","","","","html-keyboard-response","90","304561","0.0-90.0","9F16264C4DC546E5A9F79C69618D71B6","019cf546-d56a-7649-8685-02b7d2b84fef","019cf509-e3f1-72d9-bf6b-e2f1118fdaab","","null","
                <div class=""stimulus-container"">
                    <img src=""images/causal_sequence/museum_causal/museum_causal_6.png"" class=""exp-image"">
                    <div class=""question-area""></div> 
                </div>","null","","","","","","","","",""
"","","","","","html-button-response","91","305748","0.0-91.0","9F16264C4DC546E5A9F79C69618D71B6","019cf546-d56a-7649-8685-02b7d2b84fef","019cf509-e3f1-72d9-bf6b-e2f1118fdaab","","1186","
                <div class=""stimulus-container"">
                    <img src=""images/causal_sequence/museum_causal/museum_causal_6.png"" class=""exp-image"">
                    <div class=""question-area"">
                        <p style=""font-size: 20px; font-weight: bold; margin: 0;"">Is there a person in this image?</p>
                    </div>
                </div>","0","main_experiment_trial","6","museum_causal","causal_sequence","","","","",""
"","","","","","html-keyboard-response","92","310750","0.0-92.0","9F16264C4DC546E5A9F79C69618D71B6","019cf546-d56a-7649-8685-02b7d2b84fef","019cf509-e3f1-72d9-bf6b-e2f1118fdaab","","null","
                <div class=""stimulus-container"">
                    <img src=""images/causal_sequence/museum_causal/museum_causal_7.png"" class=""exp-image"">
                    <div class=""question-area""></div> 
                </div>","null","","","","","","","","",""
"","","","","","html-button-response","93","312337","0.0-93.0","9F16264C4DC546E5A9F79C69618D71B6","019cf546-d56a-7649-8685-02b7d2b84fef","019cf509-e3f1-72d9-bf6b-e2f1118fdaab","","1587","
                <div class=""stimulus-container"">
                    <img src=""images/causal_sequence/museum_causal/museum_causal_7.png"" class=""exp-image"">
                    <div class=""question-area"">
                        <p style=""font-size: 20px; font-weight: bold; margin: 0;"">Is there a person in this image?</p>
                    </div>
                </div>","1","main_experiment_trial","7","museum_causal","causal_sequence","","","","",""
"","","","","","html-keyboard-response","94","317339","0.0-94.0","9F16264C4DC546E5A9F79C69618D71B6","019cf546-d56a-7649-8685-02b7d2b84fef","019cf509-e3f1-72d9-bf6b-e2f1118fdaab","","null","
                <div class=""stimulus-container"">
                    <img src=""images/causal_sequence/museum_causal/museum_causal_8.png"" class=""exp-image"">
                    <div class=""question-area""></div> 
                </div>","null","","","","","","","","",""
"","","","","","html-button-response","95","318577","0.0-95.0","9F16264C4DC546E5A9F79C69618D71B6","019cf546-d56a-7649-8685-02b7d2b84fef","019cf509-e3f1-72d9-bf6b-e2f1118fdaab","","1237","
                <div class=""stimulus-container"">
                    <img src=""images/causal_sequence/museum_causal/museum_causal_8.png"" class=""exp-image"">
                    <div class=""question-area"">
                        <p style=""font-size: 20px; font-weight: bold; margin: 0;"">Is there a person in this image?</p>
                    </div>
                </div>","0","main_experiment_trial","8","museum_causal","causal_sequence","","","","",""
"","","","","","html-keyboard-response","96","323578","0.0-96.0","9F16264C4DC546E5A9F79C69618D71B6","019cf546-d56a-7649-8685-02b7d2b84fef","019cf509-e3f1-72d9-bf6b-e2f1118fdaab","","null","
                <div class=""stimulus-container"">
                    <img src=""images/causal_sequence/museum_causal/museum_causal_9.png"" class=""exp-image"">
                    <div class=""question-area""></div> 
                </div>","null","","","","","","","","",""
"","","","","","html-button-response","97","324515","0.0-97.0","9F16264C4DC546E5A9F79C69618D71B6","019cf546-d56a-7649-8685-02b7d2b84fef","019cf509-e3f1-72d9-bf6b-e2f1118fdaab","","935","
                <div class=""stimulus-container"">
                    <img src=""images/causal_sequence/museum_causal/museum_causal_9.png"" class=""exp-image"">
                    <div class=""question-area"">
                        <p style=""font-size: 20px; font-weight: bold; margin: 0;"">Is there a person in this image?</p>
                    </div>
                </div>","1","main_experiment_trial","9","museum_causal","causal_sequence","","","","",""
"","","","","","html-keyboard-response","98","329517","0.0-98.0","9F16264C4DC546E5A9F79C69618D71B6","019cf546-d56a-7649-8685-02b7d2b84fef","019cf509-e3f1-72d9-bf6b-e2f1118fdaab","","null","
                <div class=""stimulus-container"">
                    <img src=""images/causal_sequence/museum_causal/museum_causal_ten.png"" class=""exp-image"">
                    <div class=""question-area""></div> 
                </div>","null","","","","","","","","",""
"","","","","","html-button-response","99","330787","0.0-99.0","9F16264C4DC546E5A9F79C69618D71B6","019cf546-d56a-7649-8685-02b7d2b84fef","019cf509-e3f1-72d9-bf6b-e2f1118fdaab","","1269","
                <div class=""stimulus-container"">
                    <img src=""images/causal_sequence/museum_causal/museum_causal_ten.png"" class=""exp-image"">
                    <div class=""question-area"">
                        <p style=""font-size: 20px; font-weight: bold; margin: 0;"">Is there a person in this image?</p>
                    </div>
                </div>","0","main_experiment_trial","ten","museum_causal","causal_sequence","","","","",""
"","","","","","html-keyboard-response","100","331789","0.0-100.0","9F16264C4DC546E5A9F79C69618D71B6","019cf546-d56a-7649-8685-02b7d2b84fef","019cf509-e3f1-72d9-bf6b-e2f1118fdaab","","null","<div style=""background-color: white; width: 100vw; height: 100vh;""></div>","null","","","","","","","","",""
"","","","","","html-keyboard-response","101","336791","0.0-101.0","9F16264C4DC546E5A9F79C69618D71B6","019cf546-d56a-7649-8685-02b7d2b84fef","019cf509-e3f1-72d9-bf6b-e2f1118fdaab","","null","
                <div class=""stimulus-container"">
                    <img src=""images/schematic_sequence/flight_scheme/flight_scheme_1.png"" class=""exp-image"">
                    <div class=""question-area""></div> 
                </div>","null","","","","","","","","",""
"","","","","","html-button-response","102","337959","0.0-102.0","9F16264C4DC546E5A9F79C69618D71B6","019cf546-d56a-7649-8685-02b7d2b84fef","019cf509-e3f1-72d9-bf6b-e2f1118fdaab","","1168","
                <div class=""stimulus-container"">
                    <img src=""images/schematic_sequence/flight_scheme/flight_scheme_1.png"" class=""exp-image"">
                    <div class=""question-area"">
                        <p style=""font-size: 20px; font-weight: bold; margin: 0;"">Is there a person in this image?</p>
                    </div>
                </div>","0","main_experiment_trial","1","flight_scheme","schematic_sequence","","","","",""
"","","","","","html-keyboard-response","103","342960","0.0-103.0","9F16264C4DC546E5A9F79C69618D71B6","019cf546-d56a-7649-8685-02b7d2b84fef","019cf509-e3f1-72d9-bf6b-e2f1118fdaab","","null","
                <div class=""stimulus-container"">
                    <img src=""images/schematic_sequence/flight_scheme/flight_scheme_2.png"" class=""exp-image"">
                    <div class=""question-area""></div> 
                </div>","null","","","","","","","","",""
"","","","","","html-button-response","104","344432","0.0-104.0","9F16264C4DC546E5A9F79C69618D71B6","019cf546-d56a-7649-8685-02b7d2b84fef","019cf509-e3f1-72d9-bf6b-e2f1118fdaab","","1470","
                <div class=""stimulus-container"">
                    <img src=""images/schematic_sequence/flight_scheme/flight_scheme_2.png"" class=""exp-image"">
                    <div class=""question-area"">
                        <p style=""font-size: 20px; font-weight: bold; margin: 0;"">Is there a person in this image?</p>
                    </div>
                </div>","1","main_experiment_trial","2","flight_scheme","schematic_sequence","","","","",""
"","","","","","html-keyboard-response","105","349433","0.0-105.0","9F16264C4DC546E5A9F79C69618D71B6","019cf546-d56a-7649-8685-02b7d2b84fef","019cf509-e3f1-72d9-bf6b-e2f1118fdaab","","null","
                <div class=""stimulus-container"">
                    <img src=""images/schematic_sequence/flight_scheme/flight_scheme_3.png"" class=""exp-image"">
                    <div class=""question-area""></div> 
                </div>","null","","","","","","","","",""
"","","","","","html-button-response","106","350387","0.0-106.0","9F16264C4DC546E5A9F79C69618D71B6","019cf546-d56a-7649-8685-02b7d2b84fef","019cf509-e3f1-72d9-bf6b-e2f1118fdaab","","954","
                <div class=""stimulus-container"">
                    <img src=""images/schematic_sequence/flight_scheme/flight_scheme_3.png"" class=""exp-image"">
                    <div class=""question-area"">
                        <p style=""font-size: 20px; font-weight: bold; margin: 0;"">Is there a person in this image?</p>
                    </div>
                </div>","0","main_experiment_trial","3","flight_scheme","schematic_sequence","","","","",""
"","","","","","html-keyboard-response","107","355388","0.0-107.0","9F16264C4DC546E5A9F79C69618D71B6","019cf546-d56a-7649-8685-02b7d2b84fef","019cf509-e3f1-72d9-bf6b-e2f1118fdaab","","null","
                <div class=""stimulus-container"">
                    <img src=""images/schematic_sequence/flight_scheme/flight_scheme_4.png"" class=""exp-image"">
                    <div class=""question-area""></div> 
                </div>","null","","","","","","","","",""
"","","","","","html-button-response","108","355908","0.0-108.0","9F16264C4DC546E5A9F79C69618D71B6","019cf546-d56a-7649-8685-02b7d2b84fef","019cf509-e3f1-72d9-bf6b-e2f1118fdaab","","519","
                <div class=""stimulus-container"">
                    <img src=""images/schematic_sequence/flight_scheme/flight_scheme_4.png"" class=""exp-image"">
                    <div class=""question-area"">
                        <p style=""font-size: 20px; font-weight: bold; margin: 0;"">Is there a person in this image?</p>
                    </div>
                </div>","0","main_experiment_trial","4","flight_scheme","schematic_sequence","","","","",""
"","","","","","html-keyboard-response","109","360911","0.0-109.0","9F16264C4DC546E5A9F79C69618D71B6","019cf546-d56a-7649-8685-02b7d2b84fef","019cf509-e3f1-72d9-bf6b-e2f1118fdaab","","null","
                <div class=""stimulus-container"">
                    <img src=""images/schematic_sequence/flight_scheme/flight_scheme_5.png"" class=""exp-image"">
                    <div class=""question-area""></div> 
                </div>","null","","","","","","","","",""
"","","","","","html-button-response","110","361680","0.0-110.0","9F16264C4DC546E5A9F79C69618D71B6","019cf546-d56a-7649-8685-02b7d2b84fef","019cf509-e3f1-72d9-bf6b-e2f1118fdaab","","768","
                <div class=""stimulus-container"">
                    <img src=""images/schematic_sequence/flight_scheme/flight_scheme_5.png"" class=""exp-image"">
                    <div class=""question-area"">
                        <p style=""font-size: 20px; font-weight: bold; margin: 0;"">Is there a person in this image?</p>
                    </div>
                </div>","0","main_experiment_trial","5","flight_scheme","schematic_sequence","","","","",""
"","","","","","html-keyboard-response","111","366681","0.0-111.0","9F16264C4DC546E5A9F79C69618D71B6","019cf546-d56a-7649-8685-02b7d2b84fef","019cf509-e3f1-72d9-bf6b-e2f1118fdaab","","null","
                <div class=""stimulus-container"">
                    <img src=""images/schematic_sequence/flight_scheme/flight_scheme_6.png"" class=""exp-image"">
                    <div class=""question-area""></div> 
                </div>","null","","","","","","","","",""
"","","","","","html-button-response","112","367301","0.0-112.0","9F16264C4DC546E5A9F79C69618D71B6","019cf546-d56a-7649-8685-02b7d2b84fef","019cf509-e3f1-72d9-bf6b-e2f1118fdaab","","620","
                <div class=""stimulus-container"">
                    <img src=""images/schematic_sequence/flight_scheme/flight_scheme_6.png"" class=""exp-image"">
                    <div class=""question-area"">
                        <p style=""font-size: 20px; font-weight: bold; margin: 0;"">Is there a person in this image?</p>
                    </div>
                </div>","1","main_experiment_trial","6","flight_scheme","schematic_sequence","","","","",""
"","","","","","html-keyboard-response","113","372302","0.0-113.0","9F16264C4DC546E5A9F79C69618D71B6","019cf546-d56a-7649-8685-02b7d2b84fef","019cf509-e3f1-72d9-bf6b-e2f1118fdaab","","null","
                <div class=""stimulus-container"">
                    <img src=""images/schematic_sequence/flight_scheme/flight_scheme_7.png"" class=""exp-image"">
                    <div class=""question-area""></div> 
                </div>","null","","","","","","","","",""
"","","","","","html-button-response","114","373023","0.0-114.0","9F16264C4DC546E5A9F79C69618D71B6","019cf546-d56a-7649-8685-02b7d2b84fef","019cf509-e3f1-72d9-bf6b-e2f1118fdaab","","719","
                <div class=""stimulus-container"">
                    <img src=""images/schematic_sequence/flight_scheme/flight_scheme_7.png"" class=""exp-image"">
                    <div class=""question-area"">
                        <p style=""font-size: 20px; font-weight: bold; margin: 0;"">Is there a person in this image?</p>
                    </div>
                </div>","1","main_experiment_trial","7","flight_scheme","schematic_sequence","","","","",""
"","","","","","html-keyboard-response","115","378024","0.0-115.0","9F16264C4DC546E5A9F79C69618D71B6","019cf546-d56a-7649-8685-02b7d2b84fef","019cf509-e3f1-72d9-bf6b-e2f1118fdaab","","null","
                <div class=""stimulus-container"">
                    <img src=""images/schematic_sequence/flight_scheme/flight_scheme_8.png"" class=""exp-image"">
                    <div class=""question-area""></div> 
                </div>","null","","","","","","","","",""
"","","","","","html-button-response","116","378644","0.0-116.0","9F16264C4DC546E5A9F79C69618D71B6","019cf546-d56a-7649-8685-02b7d2b84fef","019cf509-e3f1-72d9-bf6b-e2f1118fdaab","","620","
                <div class=""stimulus-container"">
                    <img src=""images/schematic_sequence/flight_scheme/flight_scheme_8.png"" class=""exp-image"">
                    <div class=""question-area"">
                        <p style=""font-size: 20px; font-weight: bold; margin: 0;"">Is there a person in this image?</p>
                    </div>
                </div>","1","main_experiment_trial","8","flight_scheme","schematic_sequence","","","","",""
"","","","","","html-keyboard-response","117","383645","0.0-117.0","9F16264C4DC546E5A9F79C69618D71B6","019cf546-d56a-7649-8685-02b7d2b84fef","019cf509-e3f1-72d9-bf6b-e2f1118fdaab","","null","
                <div class=""stimulus-container"">
                    <img src=""images/schematic_sequence/flight_scheme/flight_scheme_9.png"" class=""exp-image"">
                    <div class=""question-area""></div> 
                </div>","null","","","","","","","","",""
"","","","","","html-button-response","118","385967","0.0-118.0","9F16264C4DC546E5A9F79C69618D71B6","019cf546-d56a-7649-8685-02b7d2b84fef","019cf509-e3f1-72d9-bf6b-e2f1118fdaab","","2321","
                <div class=""stimulus-container"">
                    <img src=""images/schematic_sequence/flight_scheme/flight_scheme_9.png"" class=""exp-image"">
                    <div class=""question-area"">
                        <p style=""font-size: 20px; font-weight: bold; margin: 0;"">Is there a person in this image?</p>
                    </div>
                </div>","0","main_experiment_trial","9","flight_scheme","schematic_sequence","","","","",""
"","","","","","html-keyboard-response","119","390968","0.0-119.0","9F16264C4DC546E5A9F79C69618D71B6","019cf546-d56a-7649-8685-02b7d2b84fef","019cf509-e3f1-72d9-bf6b-e2f1118fdaab","","null","
                <div class=""stimulus-container"">
                    <img src=""images/schematic_sequence/flight_scheme/flight_scheme_ten.png"" class=""exp-image"">
                    <div class=""question-area""></div> 
                </div>","null","","","","","","","","",""
"","","","","","html-button-response","120","391806","0.0-120.0","9F16264C4DC546E5A9F79C69618D71B6","019cf546-d56a-7649-8685-02b7d2b84fef","019cf509-e3f1-72d9-bf6b-e2f1118fdaab","","836","
                <div class=""stimulus-container"">
                    <img src=""images/schematic_sequence/flight_scheme/flight_scheme_ten.png"" class=""exp-image"">
                    <div class=""question-area"">
                        <p style=""font-size: 20px; font-weight: bold; margin: 0;"">Is there a person in this image?</p>
                    </div>
                </div>","0","main_experiment_trial","ten","flight_scheme","schematic_sequence","","","","",""
"","","","","","html-keyboard-response","121","392807","0.0-121.0","9F16264C4DC546E5A9F79C69618D71B6","019cf546-d56a-7649-8685-02b7d2b84fef","019cf509-e3f1-72d9-bf6b-e2f1118fdaab","","null","<div style=""background-color: white; width: 100vw; height: 100vh;""></div>","null","","","","","","","","",""
"","","","","","html-keyboard-response","122","397809","0.0-122.0","9F16264C4DC546E5A9F79C69618D71B6","019cf546-d56a-7649-8685-02b7d2b84fef","019cf509-e3f1-72d9-bf6b-e2f1118fdaab","","null","
                <div class=""stimulus-container"">
                    <img src=""images/causal_sequence/the_performance_causal/the_performance_causal_1.png"" class=""exp-image"">
                    <div class=""question-area""></div> 
                </div>","null","","","","","","","","",""
"","","","","","html-button-response","123","399413","0.0-123.0","9F16264C4DC546E5A9F79C69618D71B6","019cf546-d56a-7649-8685-02b7d2b84fef","019cf509-e3f1-72d9-bf6b-e2f1118fdaab","","1602","
                <div class=""stimulus-container"">
                    <img src=""images/causal_sequence/the_performance_causal/the_performance_causal_1.png"" class=""exp-image"">
                    <div class=""question-area"">
                        <p style=""font-size: 20px; font-weight: bold; margin: 0;"">Is there a person in this image?</p>
                    </div>
                </div>","0","main_experiment_trial","1","the_performance_causal","causal_sequence","","","","",""
"","","","","","html-keyboard-response","124","404415","0.0-124.0","9F16264C4DC546E5A9F79C69618D71B6","019cf546-d56a-7649-8685-02b7d2b84fef","019cf509-e3f1-72d9-bf6b-e2f1118fdaab","","null","
                <div class=""stimulus-container"">
                    <img src=""images/causal_sequence/the_performance_causal/the_performance_causal_2.png"" class=""exp-image"">
                    <div class=""question-area""></div> 
                </div>","null","","","","","","","","",""
"","","","","","html-button-response","125","405951","0.0-125.0","9F16264C4DC546E5A9F79C69618D71B6","019cf546-d56a-7649-8685-02b7d2b84fef","019cf509-e3f1-72d9-bf6b-e2f1118fdaab","","1534","
                <div class=""stimulus-container"">
                    <img src=""images/causal_sequence/the_performance_causal/the_performance_causal_2.png"" class=""exp-image"">
                    <div class=""question-area"">
                        <p style=""font-size: 20px; font-weight: bold; margin: 0;"">Is there a person in this image?</p>
                    </div>
                </div>","0","main_experiment_trial","2","the_performance_causal","causal_sequence","","","","",""
"","","","","","html-keyboard-response","126","410952","0.0-126.0","9F16264C4DC546E5A9F79C69618D71B6","019cf546-d56a-7649-8685-02b7d2b84fef","019cf509-e3f1-72d9-bf6b-e2f1118fdaab","","null","
                <div class=""stimulus-container"">
                    <img src=""images/causal_sequence/the_performance_causal/the_performance_causal_3.png"" class=""exp-image"">
                    <div class=""question-area""></div> 
                </div>","null","","","","","","","","",""
"","","","","","html-button-response","127","412407","0.0-127.0","9F16264C4DC546E5A9F79C69618D71B6","019cf546-d56a-7649-8685-02b7d2b84fef","019cf509-e3f1-72d9-bf6b-e2f1118fdaab","","1454","
                <div class=""stimulus-container"">
                    <img src=""images/causal_sequence/the_performance_causal/the_performance_causal_3.png"" class=""exp-image"">
                    <div class=""question-area"">
                        <p style=""font-size: 20px; font-weight: bold; margin: 0;"">Is there a person in this image?</p>
                    </div>
                </div>","0","main_experiment_trial","3","the_performance_causal","causal_sequence","","","","",""
"","","","","","html-keyboard-response","128","417409","0.0-128.0","9F16264C4DC546E5A9F79C69618D71B6","019cf546-d56a-7649-8685-02b7d2b84fef","019cf509-e3f1-72d9-bf6b-e2f1118fdaab","","null","
                <div class=""stimulus-container"">
                    <img src=""images/causal_sequence/the_performance_causal/the_performance_causal_4.png"" class=""exp-image"">
                    <div class=""question-area""></div> 
                </div>","null","","","","","","","","",""
"","","","","","html-button-response","129","418629","0.0-129.0","9F16264C4DC546E5A9F79C69618D71B6","019cf546-d56a-7649-8685-02b7d2b84fef","019cf509-e3f1-72d9-bf6b-e2f1118fdaab","","1219","
                <div class=""stimulus-container"">
                    <img src=""images/causal_sequence/the_performance_causal/the_performance_causal_4.png"" class=""exp-image"">
                    <div class=""question-area"">
                        <p style=""font-size: 20px; font-weight: bold; margin: 0;"">Is there a person in this image?</p>
                    </div>
                </div>","0","main_experiment_trial","4","the_performance_causal","causal_sequence","","","","",""
"","","","","","html-keyboard-response","130","423630","0.0-130.0","9F16264C4DC546E5A9F79C69618D71B6","019cf546-d56a-7649-8685-02b7d2b84fef","019cf509-e3f1-72d9-bf6b-e2f1118fdaab","","null","
                <div class=""stimulus-container"">
                    <img src=""images/causal_sequence/the_performance_causal/the_performance_causal_5.png"" class=""exp-image"">
                    <div class=""question-area""></div> 
                </div>","null","","","","","","","","",""
"","","","","","html-button-response","131","424717","0.0-131.0","9F16264C4DC546E5A9F79C69618D71B6","019cf546-d56a-7649-8685-02b7d2b84fef","019cf509-e3f1-72d9-bf6b-e2f1118fdaab","","1086","
                <div class=""stimulus-container"">
                    <img src=""images/causal_sequence/the_performance_causal/the_performance_causal_5.png"" class=""exp-image"">
                    <div class=""question-area"">
                        <p style=""font-size: 20px; font-weight: bold; margin: 0;"">Is there a person in this image?</p>
                    </div>
                </div>","0","main_experiment_trial","5","the_performance_causal","causal_sequence","","","","",""
"","","","","","html-keyboard-response","132","429718","0.0-132.0","9F16264C4DC546E5A9F79C69618D71B6","019cf546-d56a-7649-8685-02b7d2b84fef","019cf509-e3f1-72d9-bf6b-e2f1118fdaab","","null","
                <div class=""stimulus-container"">
                    <img src=""images/causal_sequence/the_performance_causal/the_performance_causal_6.png"" class=""exp-image"">
                    <div class=""question-area""></div> 
                </div>","null","","","","","","","","",""
"","","","","","html-button-response","133","430505","0.0-133.0","9F16264C4DC546E5A9F79C69618D71B6","019cf546-d56a-7649-8685-02b7d2b84fef","019cf509-e3f1-72d9-bf6b-e2f1118fdaab","","786","
                <div class=""stimulus-container"">
                    <img src=""images/causal_sequence/the_performance_causal/the_performance_causal_6.png"" class=""exp-image"">
                    <div class=""question-area"">
                        <p style=""font-size: 20px; font-weight: bold; margin: 0;"">Is there a person in this image?</p>
                    </div>
                </div>","0","main_experiment_trial","6","the_performance_causal","causal_sequence","","","","",""
"","","","","","html-keyboard-response","134","435507","0.0-134.0","9F16264C4DC546E5A9F79C69618D71B6","019cf546-d56a-7649-8685-02b7d2b84fef","019cf509-e3f1-72d9-bf6b-e2f1118fdaab","","null","
                <div class=""stimulus-container"">
                    <img src=""images/causal_sequence/the_performance_causal/the_performance_causal_7.png"" class=""exp-image"">
                    <div class=""question-area""></div> 
                </div>","null","","","","","","","","",""
"","","","","","html-button-response","135","436594","0.0-135.0","9F16264C4DC546E5A9F79C69618D71B6","019cf546-d56a-7649-8685-02b7d2b84fef","019cf509-e3f1-72d9-bf6b-e2f1118fdaab","","1087","
                <div class=""stimulus-container"">
                    <img src=""images/causal_sequence/the_performance_causal/the_performance_causal_7.png"" class=""exp-image"">
                    <div class=""question-area"">
                        <p style=""font-size: 20px; font-weight: bold; margin: 0;"">Is there a person in this image?</p>
                    </div>
                </div>","0","main_experiment_trial","7","the_performance_causal","causal_sequence","","","","",""
"","","","","","html-keyboard-response","136","441596","0.0-136.0","9F16264C4DC546E5A9F79C69618D71B6","019cf546-d56a-7649-8685-02b7d2b84fef","019cf509-e3f1-72d9-bf6b-e2f1118fdaab","","null","
                <div class=""stimulus-container"">
                    <img src=""images/causal_sequence/the_performance_causal/the_performance_causal_8.png"" class=""exp-image"">
                    <div class=""question-area""></div> 
                </div>","null","","","","","","","","",""
"","","","","","html-button-response","137","442199","0.0-137.0","9F16264C4DC546E5A9F79C69618D71B6","019cf546-d56a-7649-8685-02b7d2b84fef","019cf509-e3f1-72d9-bf6b-e2f1118fdaab","","601","
                <div class=""stimulus-container"">
                    <img src=""images/causal_sequence/the_performance_causal/the_performance_causal_8.png"" class=""exp-image"">
                    <div class=""question-area"">
                        <p style=""font-size: 20px; font-weight: bold; margin: 0;"">Is there a person in this image?</p>
                    </div>
                </div>","0","main_experiment_trial","8","the_performance_causal","causal_sequence","","","","",""
"","","","","","html-keyboard-response","138","447200","0.0-138.0","9F16264C4DC546E5A9F79C69618D71B6","019cf546-d56a-7649-8685-02b7d2b84fef","019cf509-e3f1-72d9-bf6b-e2f1118fdaab","","null","
                <div class=""stimulus-container"">
                    <img src=""images/causal_sequence/the_performance_causal/the_performance_causal_9.png"" class=""exp-image"">
                    <div class=""question-area""></div> 
                </div>","null","","","","","","","","",""
"","","","","","html-button-response","139","448404","0.0-139.0","9F16264C4DC546E5A9F79C69618D71B6","019cf546-d56a-7649-8685-02b7d2b84fef","019cf509-e3f1-72d9-bf6b-e2f1118fdaab","","1204","
                <div class=""stimulus-container"">
                    <img src=""images/causal_sequence/the_performance_causal/the_performance_causal_9.png"" class=""exp-image"">
                    <div class=""question-area"">
                        <p style=""font-size: 20px; font-weight: bold; margin: 0;"">Is there a person in this image?</p>
                    </div>
                </div>","0","main_experiment_trial","9","the_performance_causal","causal_sequence","","","","",""
"","","","","","html-keyboard-response","140","453405","0.0-140.0","9F16264C4DC546E5A9F79C69618D71B6","019cf546-d56a-7649-8685-02b7d2b84fef","019cf509-e3f1-72d9-bf6b-e2f1118fdaab","","null","
                <div class=""stimulus-container"">
                    <img src=""images/causal_sequence/the_performance_causal/the_performance_causal_ten.png"" class=""exp-image"">
                    <div class=""question-area""></div> 
                </div>","null","","","","","","","","",""
"","","","","","html-button-response","141","453925","0.0-141.0","9F16264C4DC546E5A9F79C69618D71B6","019cf546-d56a-7649-8685-02b7d2b84fef","019cf509-e3f1-72d9-bf6b-e2f1118fdaab","","520","
                <div class=""stimulus-container"">
                    <img src=""images/causal_sequence/the_performance_causal/the_performance_causal_ten.png"" class=""exp-image"">
                    <div class=""question-area"">
                        <p style=""font-size: 20px; font-weight: bold; margin: 0;"">Is there a person in this image?</p>
                    </div>
                </div>","0","main_experiment_trial","ten","the_performance_causal","causal_sequence","","","","",""
"","","","","","html-keyboard-response","142","454927","0.0-142.0","9F16264C4DC546E5A9F79C69618D71B6","019cf546-d56a-7649-8685-02b7d2b84fef","019cf509-e3f1-72d9-bf6b-e2f1118fdaab","","null","<div style=""background-color: white; width: 100vw; height: 100vh;""></div>","null","","","","","","","","",""
"","","","","","html-keyboard-response","143","459930","0.0-143.0","9F16264C4DC546E5A9F79C69618D71B6","019cf546-d56a-7649-8685-02b7d2b84fef","019cf509-e3f1-72d9-bf6b-e2f1118fdaab","","null","
                <div class=""stimulus-container"">
                    <img src=""images/schematic_sequence/supermarket_scheme/supermarket_scheme_1.png"" class=""exp-image"">
                    <div class=""question-area""></div> 
                </div>","null","","","","","","","","",""
"","","","","","html-button-response","144","460531","0.0-144.0","9F16264C4DC546E5A9F79C69618D71B6","019cf546-d56a-7649-8685-02b7d2b84fef","019cf509-e3f1-72d9-bf6b-e2f1118fdaab","","600","
                <div class=""stimulus-container"">
                    <img src=""images/schematic_sequence/supermarket_scheme/supermarket_scheme_1.png"" class=""exp-image"">
                    <div class=""question-area"">
                        <p style=""font-size: 20px; font-weight: bold; margin: 0;"">Is there a person in this image?</p>
                    </div>
                </div>","1","main_experiment_trial","1","supermarket_scheme","schematic_sequence","","","","",""
"","","","","","html-keyboard-response","145","465532","0.0-145.0","9F16264C4DC546E5A9F79C69618D71B6","019cf546-d56a-7649-8685-02b7d2b84fef","019cf509-e3f1-72d9-bf6b-e2f1118fdaab","","null","
                <div class=""stimulus-container"">
                    <img src=""images/schematic_sequence/supermarket_scheme/supermarket_scheme_2.png"" class=""exp-image"">
                    <div class=""question-area""></div> 
                </div>","null","","","","","","","","",""
"","","","","","html-button-response","146","466203","0.0-146.0","9F16264C4DC546E5A9F79C69618D71B6","019cf546-d56a-7649-8685-02b7d2b84fef","019cf509-e3f1-72d9-bf6b-e2f1118fdaab","","670","
                <div class=""stimulus-container"">
                    <img src=""images/schematic_sequence/supermarket_scheme/supermarket_scheme_2.png"" class=""exp-image"">
                    <div class=""question-area"">
                        <p style=""font-size: 20px; font-weight: bold; margin: 0;"">Is there a person in this image?</p>
                    </div>
                </div>","1","main_experiment_trial","2","supermarket_scheme","schematic_sequence","","","","",""
"","","","","","html-keyboard-response","147","471205","0.0-147.0","9F16264C4DC546E5A9F79C69618D71B6","019cf546-d56a-7649-8685-02b7d2b84fef","019cf509-e3f1-72d9-bf6b-e2f1118fdaab","","null","
                <div class=""stimulus-container"">
                    <img src=""images/schematic_sequence/supermarket_scheme/supermarket_scheme_3.png"" class=""exp-image"">
                    <div class=""question-area""></div> 
                </div>","null","","","","","","","","",""
"","","","","","html-button-response","148","471707","0.0-148.0","9F16264C4DC546E5A9F79C69618D71B6","019cf546-d56a-7649-8685-02b7d2b84fef","019cf509-e3f1-72d9-bf6b-e2f1118fdaab","","502","
                <div class=""stimulus-container"">
                    <img src=""images/schematic_sequence/supermarket_scheme/supermarket_scheme_3.png"" class=""exp-image"">
                    <div class=""question-area"">
                        <p style=""font-size: 20px; font-weight: bold; margin: 0;"">Is there a person in this image?</p>
                    </div>
                </div>","1","main_experiment_trial","3","supermarket_scheme","schematic_sequence","","","","",""
"","","","","","html-keyboard-response","149","476708","0.0-149.0","9F16264C4DC546E5A9F79C69618D71B6","019cf546-d56a-7649-8685-02b7d2b84fef","019cf509-e3f1-72d9-bf6b-e2f1118fdaab","","null","
                <div class=""stimulus-container"">
                    <img src=""images/schematic_sequence/supermarket_scheme/supermarket_scheme_4.png"" class=""exp-image"">
                    <div class=""question-area""></div> 
                </div>","null","","","","","","","","",""
"","","","","","html-button-response","150","477562","0.0-150.0","9F16264C4DC546E5A9F79C69618D71B6","019cf546-d56a-7649-8685-02b7d2b84fef","019cf509-e3f1-72d9-bf6b-e2f1118fdaab","","853","
                <div class=""stimulus-container"">
                    <img src=""images/schematic_sequence/supermarket_scheme/supermarket_scheme_4.png"" class=""exp-image"">
                    <div class=""question-area"">
                        <p style=""font-size: 20px; font-weight: bold; margin: 0;"">Is there a person in this image?</p>
                    </div>
                </div>","0","main_experiment_trial","4","supermarket_scheme","schematic_sequence","","","","",""
"","","","","","html-keyboard-response","151","482563","0.0-151.0","9F16264C4DC546E5A9F79C69618D71B6","019cf546-d56a-7649-8685-02b7d2b84fef","019cf509-e3f1-72d9-bf6b-e2f1118fdaab","","null","
                <div class=""stimulus-container"">
                    <img src=""images/schematic_sequence/supermarket_scheme/supermarket_scheme_5.png"" class=""exp-image"">
                    <div class=""question-area""></div> 
                </div>","null","","","","","","","","",""
"","","","","","html-button-response","152","483501","0.0-152.0","9F16264C4DC546E5A9F79C69618D71B6","019cf546-d56a-7649-8685-02b7d2b84fef","019cf509-e3f1-72d9-bf6b-e2f1118fdaab","","936","
                <div class=""stimulus-container"">
                    <img src=""images/schematic_sequence/supermarket_scheme/supermarket_scheme_5.png"" class=""exp-image"">
                    <div class=""question-area"">
                        <p style=""font-size: 20px; font-weight: bold; margin: 0;"">Is there a person in this image?</p>
                    </div>
                </div>","1","main_experiment_trial","5","supermarket_scheme","schematic_sequence","","","","",""
"","","","","","html-keyboard-response","153","488502","0.0-153.0","9F16264C4DC546E5A9F79C69618D71B6","019cf546-d56a-7649-8685-02b7d2b84fef","019cf509-e3f1-72d9-bf6b-e2f1118fdaab","","null","
                <div class=""stimulus-container"">
                    <img src=""images/schematic_sequence/supermarket_scheme/supermarket_scheme_6.png"" class=""exp-image"">
                    <div class=""question-area""></div> 
                </div>","null","","","","","","","","",""
"","","","","","html-button-response","154","489073","0.0-154.0","9F16264C4DC546E5A9F79C69618D71B6","019cf546-d56a-7649-8685-02b7d2b84fef","019cf509-e3f1-72d9-bf6b-e2f1118fdaab","","570","
                <div class=""stimulus-container"">
                    <img src=""images/schematic_sequence/supermarket_scheme/supermarket_scheme_6.png"" class=""exp-image"">
                    <div class=""question-area"">
                        <p style=""font-size: 20px; font-weight: bold; margin: 0;"">Is there a person in this image?</p>
                    </div>
                </div>","0","main_experiment_trial","6","supermarket_scheme","schematic_sequence","","","","",""
"","","","","","html-keyboard-response","155","494075","0.0-155.0","9F16264C4DC546E5A9F79C69618D71B6","019cf546-d56a-7649-8685-02b7d2b84fef","019cf509-e3f1-72d9-bf6b-e2f1118fdaab","","null","
                <div class=""stimulus-container"">
                    <img src=""images/schematic_sequence/supermarket_scheme/supermarket_scheme_7.png"" class=""exp-image"">
                    <div class=""question-area""></div> 
                </div>","null","","","","","","","","",""
"","","","","","html-button-response","156","494810","0.0-156.0","9F16264C4DC546E5A9F79C69618D71B6","019cf546-d56a-7649-8685-02b7d2b84fef","019cf509-e3f1-72d9-bf6b-e2f1118fdaab","","734","
                <div class=""stimulus-container"">
                    <img src=""images/schematic_sequence/supermarket_scheme/supermarket_scheme_7.png"" class=""exp-image"">
                    <div class=""question-area"">
                        <p style=""font-size: 20px; font-weight: bold; margin: 0;"">Is there a person in this image?</p>
                    </div>
                </div>","0","main_experiment_trial","7","supermarket_scheme","schematic_sequence","","","","",""
"","","","","","html-keyboard-response","157","499811","0.0-157.0","9F16264C4DC546E5A9F79C69618D71B6","019cf546-d56a-7649-8685-02b7d2b84fef","019cf509-e3f1-72d9-bf6b-e2f1118fdaab","","null","
                <div class=""stimulus-container"">
                    <img src=""images/schematic_sequence/supermarket_scheme/supermarket_scheme_8.png"" class=""exp-image"">
                    <div class=""question-area""></div> 
                </div>","null","","","","","","","","",""
"","","","","","html-button-response","158","500265","0.0-158.0","9F16264C4DC546E5A9F79C69618D71B6","019cf546-d56a-7649-8685-02b7d2b84fef","019cf509-e3f1-72d9-bf6b-e2f1118fdaab","","452","
                <div class=""stimulus-container"">
                    <img src=""images/schematic_sequence/supermarket_scheme/supermarket_scheme_8.png"" class=""exp-image"">
                    <div class=""question-area"">
                        <p style=""font-size: 20px; font-weight: bold; margin: 0;"">Is there a person in this image?</p>
                    </div>
                </div>","0","main_experiment_trial","8","supermarket_scheme","schematic_sequence","","","","",""
"","","","","","html-keyboard-response","159","505266","0.0-159.0","9F16264C4DC546E5A9F79C69618D71B6","019cf546-d56a-7649-8685-02b7d2b84fef","019cf509-e3f1-72d9-bf6b-e2f1118fdaab","","null","
                <div class=""stimulus-container"">
                    <img src=""images/schematic_sequence/supermarket_scheme/supermarket_scheme_9.png"" class=""exp-image"">
                    <div class=""question-area""></div> 
                </div>","null","","","","","","","","",""
"","","","","","html-button-response","160","506254","0.0-160.0","9F16264C4DC546E5A9F79C69618D71B6","019cf546-d56a-7649-8685-02b7d2b84fef","019cf509-e3f1-72d9-bf6b-e2f1118fdaab","","987","
                <div class=""stimulus-container"">
                    <img src=""images/schematic_sequence/supermarket_scheme/supermarket_scheme_9.png"" class=""exp-image"">
                    <div class=""question-area"">
                        <p style=""font-size: 20px; font-weight: bold; margin: 0;"">Is there a person in this image?</p>
                    </div>
                </div>","0","main_experiment_trial","9","supermarket_scheme","schematic_sequence","","","","",""
"","","","","","html-keyboard-response","161","511255","0.0-161.0","9F16264C4DC546E5A9F79C69618D71B6","019cf546-d56a-7649-8685-02b7d2b84fef","019cf509-e3f1-72d9-bf6b-e2f1118fdaab","","null","
                <div class=""stimulus-container"">
                    <img src=""images/schematic_sequence/supermarket_scheme/supermarket_scheme_ten.png"" class=""exp-image"">
                    <div class=""question-area""></div> 
                </div>","null","","","","","","","","",""
"","","","","","html-button-response","162","511741","0.0-162.0","9F16264C4DC546E5A9F79C69618D71B6","019cf546-d56a-7649-8685-02b7d2b84fef","019cf509-e3f1-72d9-bf6b-e2f1118fdaab","","485","
                <div class=""stimulus-container"">
                    <img src=""images/schematic_sequence/supermarket_scheme/supermarket_scheme_ten.png"" class=""exp-image"">
                    <div class=""question-area"">
                        <p style=""font-size: 20px; font-weight: bold; margin: 0;"">Is there a person in this image?</p>
                    </div>
                </div>","1","main_experiment_trial","ten","supermarket_scheme","schematic_sequence","","","","",""
"","","","","","html-keyboard-response","163","512743","0.0-163.0","9F16264C4DC546E5A9F79C69618D71B6","019cf546-d56a-7649-8685-02b7d2b84fef","019cf509-e3f1-72d9-bf6b-e2f1118fdaab","","null","<div style=""background-color: white; width: 100vw; height: 100vh;""></div>","null","","","","","","","","",""
"","","","","","html-keyboard-response","164","517745","0.0-164.0","9F16264C4DC546E5A9F79C69618D71B6","019cf546-d56a-7649-8685-02b7d2b84fef","019cf509-e3f1-72d9-bf6b-e2f1118fdaab","","null","
                <div class=""stimulus-container"">
                    <img src=""images/schematic_sequence/interview_scheme/interview_scheme_1.png"" class=""exp-image"">
                    <div class=""question-area""></div> 
                </div>","null","","","","","","","","",""
"","","","","","html-button-response","165","518347","0.0-165.0","9F16264C4DC546E5A9F79C69618D71B6","019cf546-d56a-7649-8685-02b7d2b84fef","019cf509-e3f1-72d9-bf6b-e2f1118fdaab","","601","
                <div class=""stimulus-container"">
                    <img src=""images/schematic_sequence/interview_scheme/interview_scheme_1.png"" class=""exp-image"">
                    <div class=""question-area"">
                        <p style=""font-size: 20px; font-weight: bold; margin: 0;"">Is there a person in this image?</p>
                    </div>
                </div>","1","main_experiment_trial","1","interview_scheme","schematic_sequence","","","","",""
"","","","","","html-keyboard-response","166","523348","0.0-166.0","9F16264C4DC546E5A9F79C69618D71B6","019cf546-d56a-7649-8685-02b7d2b84fef","019cf509-e3f1-72d9-bf6b-e2f1118fdaab","","null","
                <div class=""stimulus-container"">
                    <img src=""images/schematic_sequence/interview_scheme/interview_scheme_2.png"" class=""exp-image"">
                    <div class=""question-area""></div> 
                </div>","null","","","","","","","","",""
"","","","","","html-button-response","167","524636","0.0-167.0","9F16264C4DC546E5A9F79C69618D71B6","019cf546-d56a-7649-8685-02b7d2b84fef","019cf509-e3f1-72d9-bf6b-e2f1118fdaab","","1287","
                <div class=""stimulus-container"">
                    <img src=""images/schematic_sequence/interview_scheme/interview_scheme_2.png"" class=""exp-image"">
                    <div class=""question-area"">
                        <p style=""font-size: 20px; font-weight: bold; margin: 0;"">Is there a person in this image?</p>
                    </div>
                </div>","0","main_experiment_trial","2","interview_scheme","schematic_sequence","","","","",""
"","","","","","html-keyboard-response","168","529637","0.0-168.0","9F16264C4DC546E5A9F79C69618D71B6","019cf546-d56a-7649-8685-02b7d2b84fef","019cf509-e3f1-72d9-bf6b-e2f1118fdaab","","null","
                <div class=""stimulus-container"">
                    <img src=""images/schematic_sequence/interview_scheme/interview_scheme_3.png"" class=""exp-image"">
                    <div class=""question-area""></div> 
                </div>","null","","","","","","","","",""
"","","","","","html-button-response","169","530424","0.0-169.0","9F16264C4DC546E5A9F79C69618D71B6","019cf546-d56a-7649-8685-02b7d2b84fef","019cf509-e3f1-72d9-bf6b-e2f1118fdaab","","787","
                <div class=""stimulus-container"">
                    <img src=""images/schematic_sequence/interview_scheme/interview_scheme_3.png"" class=""exp-image"">
                    <div class=""question-area"">
                        <p style=""font-size: 20px; font-weight: bold; margin: 0;"">Is there a person in this image?</p>
                    </div>
                </div>","1","main_experiment_trial","3","interview_scheme","schematic_sequence","","","","",""
"","","","","","html-keyboard-response","170","535425","0.0-170.0","9F16264C4DC546E5A9F79C69618D71B6","019cf546-d56a-7649-8685-02b7d2b84fef","019cf509-e3f1-72d9-bf6b-e2f1118fdaab","","null","
                <div class=""stimulus-container"">
                    <img src=""images/schematic_sequence/interview_scheme/interview_scheme_4.png"" class=""exp-image"">
                    <div class=""question-area""></div> 
                </div>","null","","","","","","","","",""
"","","","","","html-button-response","171","536146","0.0-171.0","9F16264C4DC546E5A9F79C69618D71B6","019cf546-d56a-7649-8685-02b7d2b84fef","019cf509-e3f1-72d9-bf6b-e2f1118fdaab","","719","
                <div class=""stimulus-container"">
                    <img src=""images/schematic_sequence/interview_scheme/interview_scheme_4.png"" class=""exp-image"">
                    <div class=""question-area"">
                        <p style=""font-size: 20px; font-weight: bold; margin: 0;"">Is there a person in this image?</p>
                    </div>
                </div>","1","main_experiment_trial","4","interview_scheme","schematic_sequence","","","","",""
"","","","","","html-keyboard-response","172","541147","0.0-172.0","9F16264C4DC546E5A9F79C69618D71B6","019cf546-d56a-7649-8685-02b7d2b84fef","019cf509-e3f1-72d9-bf6b-e2f1118fdaab","","null","
                <div class=""stimulus-container"">
                    <img src=""images/schematic_sequence/interview_scheme/interview_scheme_5.png"" class=""exp-image"">
                    <div class=""question-area""></div> 
                </div>","null","","","","","","","","",""
"","","","","","html-button-response","173","541717","0.0-173.0","9F16264C4DC546E5A9F79C69618D71B6","019cf546-d56a-7649-8685-02b7d2b84fef","019cf509-e3f1-72d9-bf6b-e2f1118fdaab","","569","
                <div class=""stimulus-container"">
                    <img src=""images/schematic_sequence/interview_scheme/interview_scheme_5.png"" class=""exp-image"">
                    <div class=""question-area"">
                        <p style=""font-size: 20px; font-weight: bold; margin: 0;"">Is there a person in this image?</p>
                    </div>
                </div>","0","main_experiment_trial","5","interview_scheme","schematic_sequence","","","","",""
"","","","","","html-keyboard-response","174","546718","0.0-174.0","9F16264C4DC546E5A9F79C69618D71B6","019cf546-d56a-7649-8685-02b7d2b84fef","019cf509-e3f1-72d9-bf6b-e2f1118fdaab","","null","
                <div class=""stimulus-container"">
                    <img src=""images/schematic_sequence/interview_scheme/interview_scheme_6.png"" class=""exp-image"">
                    <div class=""question-area""></div> 
                </div>","null","","","","","","","","",""
"","","","","","html-button-response","175","547572","0.0-175.0","9F16264C4DC546E5A9F79C69618D71B6","019cf546-d56a-7649-8685-02b7d2b84fef","019cf509-e3f1-72d9-bf6b-e2f1118fdaab","","852","
                <div class=""stimulus-container"">
                    <img src=""images/schematic_sequence/interview_scheme/interview_scheme_6.png"" class=""exp-image"">
                    <div class=""question-area"">
                        <p style=""font-size: 20px; font-weight: bold; margin: 0;"">Is there a person in this image?</p>
                    </div>
                </div>","0","main_experiment_trial","6","interview_scheme","schematic_sequence","","","","",""
"","","","","","html-keyboard-response","176","552573","0.0-176.0","9F16264C4DC546E5A9F79C69618D71B6","019cf546-d56a-7649-8685-02b7d2b84fef","019cf509-e3f1-72d9-bf6b-e2f1118fdaab","","null","
                <div class=""stimulus-container"">
                    <img src=""images/schematic_sequence/interview_scheme/interview_scheme_7.png"" class=""exp-image"">
                    <div class=""question-area""></div> 
                </div>","null","","","","","","","","",""
"","","","","","html-button-response","177","553911","0.0-177.0","9F16264C4DC546E5A9F79C69618D71B6","019cf546-d56a-7649-8685-02b7d2b84fef","019cf509-e3f1-72d9-bf6b-e2f1118fdaab","","1337","
                <div class=""stimulus-container"">
                    <img src=""images/schematic_sequence/interview_scheme/interview_scheme_7.png"" class=""exp-image"">
                    <div class=""question-area"">
                        <p style=""font-size: 20px; font-weight: bold; margin: 0;"">Is there a person in this image?</p>
                    </div>
                </div>","0","main_experiment_trial","7","interview_scheme","schematic_sequence","","","","",""
"","","","","","html-keyboard-response","178","558912","0.0-178.0","9F16264C4DC546E5A9F79C69618D71B6","019cf546-d56a-7649-8685-02b7d2b84fef","019cf509-e3f1-72d9-bf6b-e2f1118fdaab","","null","
                <div class=""stimulus-container"">
                    <img src=""images/schematic_sequence/interview_scheme/interview_scheme_8.png"" class=""exp-image"">
                    <div class=""question-area""></div> 
                </div>","null","","","","","","","","",""
"","","","","","html-button-response","179","559566","0.0-179.0","9F16264C4DC546E5A9F79C69618D71B6","019cf546-d56a-7649-8685-02b7d2b84fef","019cf509-e3f1-72d9-bf6b-e2f1118fdaab","","653","
                <div class=""stimulus-container"">
                    <img src=""images/schematic_sequence/interview_scheme/interview_scheme_8.png"" class=""exp-image"">
                    <div class=""question-area"">
                        <p style=""font-size: 20px; font-weight: bold; margin: 0;"">Is there a person in this image?</p>
                    </div>
                </div>","0","main_experiment_trial","8","interview_scheme","schematic_sequence","","","","",""
"","","","","","html-keyboard-response","180","564568","0.0-180.0","9F16264C4DC546E5A9F79C69618D71B6","019cf546-d56a-7649-8685-02b7d2b84fef","019cf509-e3f1-72d9-bf6b-e2f1118fdaab","","null","
                <div class=""stimulus-container"">
                    <img src=""images/schematic_sequence/interview_scheme/interview_scheme_9.png"" class=""exp-image"">
                    <div class=""question-area""></div> 
                </div>","null","","","","","","","","",""
"","","","","","html-button-response","181","565471","0.0-181.0","9F16264C4DC546E5A9F79C69618D71B6","019cf546-d56a-7649-8685-02b7d2b84fef","019cf509-e3f1-72d9-bf6b-e2f1118fdaab","","901","
                <div class=""stimulus-container"">
                    <img src=""images/schematic_sequence/interview_scheme/interview_scheme_9.png"" class=""exp-image"">
                    <div class=""question-area"">
                        <p style=""font-size: 20px; font-weight: bold; margin: 0;"">Is there a person in this image?</p>
                    </div>
                </div>","0","main_experiment_trial","9","interview_scheme","schematic_sequence","","","","",""
"","","","","","html-keyboard-response","182","570472","0.0-182.0","9F16264C4DC546E5A9F79C69618D71B6","019cf546-d56a-7649-8685-02b7d2b84fef","019cf509-e3f1-72d9-bf6b-e2f1118fdaab","","null","
                <div class=""stimulus-container"">
                    <img src=""images/schematic_sequence/interview_scheme/interview_scheme_ten.png"" class=""exp-image"">
                    <div class=""question-area""></div> 
                </div>","null","","","","","","","","",""
