"success","timeout","failed_images","failed_audio","failed_video","trial_type","trial_index","time_elapsed","internal_node_id","subject_id","study_id","session_id","view_history","rt","stimulus","response","task","image_index","folder","sequence_type","valuable_image_index","reward_type","chosen_image_index","target_X","correct_choice"
"true","false","[]","[]","[]","preload","0","51255","0.0-0.0","66C79932EC414CBA86F0BDD4898E06B8","019cf80f-fd19-7e9d-b527-283e2847ce6f","019cf80d-4266-7117-8a51-54e13c84aca4","","","","","","","","","","","","",""
"","","","","","instructions","1","55601","0.0-1.0","66C79932EC414CBA86F0BDD4898E06B8","019cf80f-fd19-7e9d-b527-283e2847ce6f","019cf80d-4266-7117-8a51-54e13c84aca4","[{""page_index"":0,""viewing_time"":4344}]","4344","","","","","","","","","","",""
"","","","","","instructions","2","58113","0.0-2.0","66C79932EC414CBA86F0BDD4898E06B8","019cf80f-fd19-7e9d-b527-283e2847ce6f","019cf80d-4266-7117-8a51-54e13c84aca4","[{""page_index"":0,""viewing_time"":2509}]","2509","","","","","","","","","","",""
"true","","","","","fullscreen","3","71346","0.0-3.0","66C79932EC414CBA86F0BDD4898E06B8","019cf80f-fd19-7e9d-b527-283e2847ce6f","019cf80d-4266-7117-8a51-54e13c84aca4","","12213","","","","","","","","","","",""
"","","","","","instructions","4","95126","0.0-4.0","66C79932EC414CBA86F0BDD4898E06B8","019cf80f-fd19-7e9d-b527-283e2847ce6f","019cf80d-4266-7117-8a51-54e13c84aca4","[{""page_index"":0,""viewing_time"":23780}]","23780","","","","","","","","","","",""
"","","","","","instructions","5","108064","0.0-5.0","66C79932EC414CBA86F0BDD4898E06B8","019cf80f-fd19-7e9d-b527-283e2847ce6f","019cf80d-4266-7117-8a51-54e13c84aca4","[{""page_index"":0,""viewing_time"":12937}]","12938","","","","","","","","","","",""
"","","","","","html-keyboard-response","6","112065","0.0-6.0","66C79932EC414CBA86F0BDD4898E06B8","019cf80f-fd19-7e9d-b527-283e2847ce6f","019cf80d-4266-7117-8a51-54e13c84aca4","","null","
                <div class=""stimulus-container"">
                    <img src=""images/instructions/movie_1.png"" class=""exp-image"">
                    <div class=""question-area""></div> 
                </div>","null","","","","","","","","",""
"","","","","","html-button-response","7","114815","0.0-7.0","66C79932EC414CBA86F0BDD4898E06B8","019cf80f-fd19-7e9d-b527-283e2847ce6f","019cf80d-4266-7117-8a51-54e13c84aca4","","2748","
                <div class=""stimulus-container"">
                    <img src=""images/instructions/movie_1.png"" class=""exp-image"">
                    <div class=""question-area"">
                        <p style=""font-size: 20px; font-weight: bold; margin: 0;"">Was there a person in this image?</p>
                    </div>
                </div>","0","example_question","1","","","","","","",""
"","","","","","html-keyboard-response","8","118816","0.0-8.0","66C79932EC414CBA86F0BDD4898E06B8","019cf80f-fd19-7e9d-b527-283e2847ce6f","019cf80d-4266-7117-8a51-54e13c84aca4","","null","
                <div class=""stimulus-container"">
                    <img src=""images/instructions/movie_2.png"" class=""exp-image"">
                    <div class=""question-area""></div> 
                </div>","null","","","","","","","","",""
"","","","","","html-button-response","9","119683","0.0-9.0","66C79932EC414CBA86F0BDD4898E06B8","019cf80f-fd19-7e9d-b527-283e2847ce6f","019cf80d-4266-7117-8a51-54e13c84aca4","","865","
                <div class=""stimulus-container"">
                    <img src=""images/instructions/movie_2.png"" class=""exp-image"">
                    <div class=""question-area"">
                        <p style=""font-size: 20px; font-weight: bold; margin: 0;"">Was there a person in this image?</p>
                    </div>
                </div>","1","example_question","2","","","","","","",""
"","","","","","html-keyboard-response","10","123686","0.0-10.0","66C79932EC414CBA86F0BDD4898E06B8","019cf80f-fd19-7e9d-b527-283e2847ce6f","019cf80d-4266-7117-8a51-54e13c84aca4","","null","
                <div class=""stimulus-container"">
                    <img src=""images/instructions/movie_3.png"" class=""exp-image"">
                    <div class=""question-area""></div> 
                </div>","null","","","","","","","","",""
"","","","","","html-button-response","11","124214","0.0-11.0","66C79932EC414CBA86F0BDD4898E06B8","019cf80f-fd19-7e9d-b527-283e2847ce6f","019cf80d-4266-7117-8a51-54e13c84aca4","","527","
                <div class=""stimulus-container"">
                    <img src=""images/instructions/movie_3.png"" class=""exp-image"">
                    <div class=""question-area"">
                        <p style=""font-size: 20px; font-weight: bold; margin: 0;"">Was there a person in this image?</p>
                    </div>
                </div>","0","example_question","3","","","","","","",""
"","","","","","html-keyboard-response","12","128220","0.0-12.0","66C79932EC414CBA86F0BDD4898E06B8","019cf80f-fd19-7e9d-b527-283e2847ce6f","019cf80d-4266-7117-8a51-54e13c84aca4","","null","
                <div class=""stimulus-container"">
                    <img src=""images/instructions/movie_4.png"" class=""exp-image"">
                    <div class=""question-area""></div> 
                </div>","null","","","","","","","","",""
"","","","","","html-button-response","13","129180","0.0-13.0","66C79932EC414CBA86F0BDD4898E06B8","019cf80f-fd19-7e9d-b527-283e2847ce6f","019cf80d-4266-7117-8a51-54e13c84aca4","","959","
                <div class=""stimulus-container"">
                    <img src=""images/instructions/movie_4.png"" class=""exp-image"">
                    <div class=""question-area"">
                        <p style=""font-size: 20px; font-weight: bold; margin: 0;"">Was there a person in this image?</p>
                    </div>
                </div>","0","example_question","4","","","","","","",""
"","","","","","instructions","14","130952","0.0-14.0","66C79932EC414CBA86F0BDD4898E06B8","019cf80f-fd19-7e9d-b527-283e2847ce6f","019cf80d-4266-7117-8a51-54e13c84aca4","[{""page_index"":0,""viewing_time"":1771}]","1772","","","","","","","","","","",""
"","","","","","instructions","15","139930","0.0-15.0","66C79932EC414CBA86F0BDD4898E06B8","019cf80f-fd19-7e9d-b527-283e2847ce6f","019cf80d-4266-7117-8a51-54e13c84aca4","[{""page_index"":0,""viewing_time"":8977}]","8977","","","","","","","","","","",""
"","","","","","html-keyboard-response","16","140936","0.0-16.0","66C79932EC414CBA86F0BDD4898E06B8","019cf80f-fd19-7e9d-b527-283e2847ce6f","019cf80d-4266-7117-8a51-54e13c84aca4","","null","<div style=""background-color: white; width: 100vw; height: 100vh;""></div>","null","","","","","","","","",""
"","","","","","html-keyboard-response","17","145941","0.0-17.0","66C79932EC414CBA86F0BDD4898E06B8","019cf80f-fd19-7e9d-b527-283e2847ce6f","019cf80d-4266-7117-8a51-54e13c84aca4","","null","
                <div class=""stimulus-container"">
                    <img src=""images/semantic_sequence/cat_care_semantic/cat_care_semantic_1.png"" class=""exp-image"">
                    <div class=""question-area""></div> 
                </div>","null","","","","","","","","",""
"","","","","","html-button-response","18","146882","0.0-18.0","66C79932EC414CBA86F0BDD4898E06B8","019cf80f-fd19-7e9d-b527-283e2847ce6f","019cf80d-4266-7117-8a51-54e13c84aca4","","940","
                <div class=""stimulus-container"">
                    <img src=""images/semantic_sequence/cat_care_semantic/cat_care_semantic_1.png"" class=""exp-image"">
                    <div class=""question-area"">
                        <p style=""font-size: 20px; font-weight: bold; margin: 0;"">Is there a person in this image?</p>
                    </div>
                </div>","0","main_experiment_trial","1","cat_care_semantic","semantic_sequence","","","","",""
"","","","","","html-keyboard-response","19","151889","0.0-19.0","66C79932EC414CBA86F0BDD4898E06B8","019cf80f-fd19-7e9d-b527-283e2847ce6f","019cf80d-4266-7117-8a51-54e13c84aca4","","null","
                <div class=""stimulus-container"">
                    <img src=""images/semantic_sequence/cat_care_semantic/cat_care_semantic_2.png"" class=""exp-image"">
                    <div class=""question-area""></div> 
                </div>","null","","","","","","","","",""
"","","","","","html-button-response","20","152898","0.0-20.0","66C79932EC414CBA86F0BDD4898E06B8","019cf80f-fd19-7e9d-b527-283e2847ce6f","019cf80d-4266-7117-8a51-54e13c84aca4","","1008","
                <div class=""stimulus-container"">
                    <img src=""images/semantic_sequence/cat_care_semantic/cat_care_semantic_2.png"" class=""exp-image"">
                    <div class=""question-area"">
                        <p style=""font-size: 20px; font-weight: bold; margin: 0;"">Is there a person in this image?</p>
                    </div>
                </div>","0","main_experiment_trial","2","cat_care_semantic","semantic_sequence","","","","",""
"","","","","","html-keyboard-response","21","157909","0.0-21.0","66C79932EC414CBA86F0BDD4898E06B8","019cf80f-fd19-7e9d-b527-283e2847ce6f","019cf80d-4266-7117-8a51-54e13c84aca4","","null","
                <div class=""stimulus-container"">
                    <img src=""images/semantic_sequence/cat_care_semantic/cat_care_semantic_3.png"" class=""exp-image"">
                    <div class=""question-area""></div> 
                </div>","null","","","","","","","","",""
"","","","","","html-button-response","22","158364","0.0-22.0","66C79932EC414CBA86F0BDD4898E06B8","019cf80f-fd19-7e9d-b527-283e2847ce6f","019cf80d-4266-7117-8a51-54e13c84aca4","","454","
                <div class=""stimulus-container"">
                    <img src=""images/semantic_sequence/cat_care_semantic/cat_care_semantic_3.png"" class=""exp-image"">
                    <div class=""question-area"">
                        <p style=""font-size: 20px; font-weight: bold; margin: 0;"">Is there a person in this image?</p>
                    </div>
                </div>","0","main_experiment_trial","3","cat_care_semantic","semantic_sequence","","","","",""
"","","","","","html-keyboard-response","23","163366","0.0-23.0","66C79932EC414CBA86F0BDD4898E06B8","019cf80f-fd19-7e9d-b527-283e2847ce6f","019cf80d-4266-7117-8a51-54e13c84aca4","","null","
                <div class=""stimulus-container"">
                    <img src=""images/semantic_sequence/cat_care_semantic/cat_care_semantic_4.png"" class=""exp-image"">
                    <div class=""question-area""></div> 
                </div>","null","","","","","","","","",""
"","","","","","html-button-response","24","163854","0.0-24.0","66C79932EC414CBA86F0BDD4898E06B8","019cf80f-fd19-7e9d-b527-283e2847ce6f","019cf80d-4266-7117-8a51-54e13c84aca4","","487","
                <div class=""stimulus-container"">
                    <img src=""images/semantic_sequence/cat_care_semantic/cat_care_semantic_4.png"" class=""exp-image"">
                    <div class=""question-area"">
                        <p style=""font-size: 20px; font-weight: bold; margin: 0;"">Is there a person in this image?</p>
                    </div>
                </div>","0","main_experiment_trial","4","cat_care_semantic","semantic_sequence","","","","",""
"","","","","","html-keyboard-response","25","168858","0.0-25.0","66C79932EC414CBA86F0BDD4898E06B8","019cf80f-fd19-7e9d-b527-283e2847ce6f","019cf80d-4266-7117-8a51-54e13c84aca4","","null","
                <div class=""stimulus-container"">
                    <img src=""images/semantic_sequence/cat_care_semantic/cat_care_semantic_5.png"" class=""exp-image"">
                    <div class=""question-area""></div> 
                </div>","null","","","","","","","","",""
"","","","","","html-button-response","26","169298","0.0-26.0","66C79932EC414CBA86F0BDD4898E06B8","019cf80f-fd19-7e9d-b527-283e2847ce6f","019cf80d-4266-7117-8a51-54e13c84aca4","","439","
                <div class=""stimulus-container"">
                    <img src=""images/semantic_sequence/cat_care_semantic/cat_care_semantic_5.png"" class=""exp-image"">
                    <div class=""question-area"">
                        <p style=""font-size: 20px; font-weight: bold; margin: 0;"">Is there a person in this image?</p>
                    </div>
                </div>","0","main_experiment_trial","5","cat_care_semantic","semantic_sequence","","","","",""
"","","","","","html-keyboard-response","27","174314","0.0-27.0","66C79932EC414CBA86F0BDD4898E06B8","019cf80f-fd19-7e9d-b527-283e2847ce6f","019cf80d-4266-7117-8a51-54e13c84aca4","","null","
                <div class=""stimulus-container"">
                    <img src=""images/semantic_sequence/cat_care_semantic/cat_care_semantic_6.png"" class=""exp-image"">
                    <div class=""question-area""></div> 
                </div>","null","","","","","","","","",""
"","","","","","html-button-response","28","175056","0.0-28.0","66C79932EC414CBA86F0BDD4898E06B8","019cf80f-fd19-7e9d-b527-283e2847ce6f","019cf80d-4266-7117-8a51-54e13c84aca4","","741","
                <div class=""stimulus-container"">
                    <img src=""images/semantic_sequence/cat_care_semantic/cat_care_semantic_6.png"" class=""exp-image"">
                    <div class=""question-area"">
                        <p style=""font-size: 20px; font-weight: bold; margin: 0;"">Is there a person in this image?</p>
                    </div>
                </div>","1","main_experiment_trial","6","cat_care_semantic","semantic_sequence","","","","",""
"","","","","","html-keyboard-response","29","180073","0.0-29.0","66C79932EC414CBA86F0BDD4898E06B8","019cf80f-fd19-7e9d-b527-283e2847ce6f","019cf80d-4266-7117-8a51-54e13c84aca4","","null","
                <div class=""stimulus-container"">
                    <img src=""images/semantic_sequence/cat_care_semantic/cat_care_semantic_7.png"" class=""exp-image"">
                    <div class=""question-area""></div> 
                </div>","null","","","","","","","","",""
"","","","","","html-button-response","30","180552","0.0-30.0","66C79932EC414CBA86F0BDD4898E06B8","019cf80f-fd19-7e9d-b527-283e2847ce6f","019cf80d-4266-7117-8a51-54e13c84aca4","","478","
                <div class=""stimulus-container"">
                    <img src=""images/semantic_sequence/cat_care_semantic/cat_care_semantic_7.png"" class=""exp-image"">
                    <div class=""question-area"">
                        <p style=""font-size: 20px; font-weight: bold; margin: 0;"">Is there a person in this image?</p>
                    </div>
                </div>","0","main_experiment_trial","7","cat_care_semantic","semantic_sequence","","","","",""
"","","","","","html-keyboard-response","31","185565","0.0-31.0","66C79932EC414CBA86F0BDD4898E06B8","019cf80f-fd19-7e9d-b527-283e2847ce6f","019cf80d-4266-7117-8a51-54e13c84aca4","","null","
                <div class=""stimulus-container"">
                    <img src=""images/semantic_sequence/cat_care_semantic/cat_care_semantic_8.png"" class=""exp-image"">
                    <div class=""question-area""></div> 
                </div>","null","","","","","","","","",""
"","","","","","html-button-response","32","185998","0.0-32.0","66C79932EC414CBA86F0BDD4898E06B8","019cf80f-fd19-7e9d-b527-283e2847ce6f","019cf80d-4266-7117-8a51-54e13c84aca4","","432","
                <div class=""stimulus-container"">
                    <img src=""images/semantic_sequence/cat_care_semantic/cat_care_semantic_8.png"" class=""exp-image"">
                    <div class=""question-area"">
                        <p style=""font-size: 20px; font-weight: bold; margin: 0;"">Is there a person in this image?</p>
                    </div>
                </div>","0","main_experiment_trial","8","cat_care_semantic","semantic_sequence","","","","",""
"","","","","","html-keyboard-response","33","191001","0.0-33.0","66C79932EC414CBA86F0BDD4898E06B8","019cf80f-fd19-7e9d-b527-283e2847ce6f","019cf80d-4266-7117-8a51-54e13c84aca4","","null","
                <div class=""stimulus-container"">
                    <img src=""images/semantic_sequence/cat_care_semantic/cat_care_semantic_9.png"" class=""exp-image"">
                    <div class=""question-area""></div> 
                </div>","null","","","","","","","","",""
"","","","","","html-button-response","34","191470","0.0-34.0","66C79932EC414CBA86F0BDD4898E06B8","019cf80f-fd19-7e9d-b527-283e2847ce6f","019cf80d-4266-7117-8a51-54e13c84aca4","","468","
                <div class=""stimulus-container"">
                    <img src=""images/semantic_sequence/cat_care_semantic/cat_care_semantic_9.png"" class=""exp-image"">
                    <div class=""question-area"">
                        <p style=""font-size: 20px; font-weight: bold; margin: 0;"">Is there a person in this image?</p>
                    </div>
                </div>","0","main_experiment_trial","9","cat_care_semantic","semantic_sequence","","","","",""
"","","","","","html-keyboard-response","35","196475","0.0-35.0","66C79932EC414CBA86F0BDD4898E06B8","019cf80f-fd19-7e9d-b527-283e2847ce6f","019cf80d-4266-7117-8a51-54e13c84aca4","","null","
                <div class=""stimulus-container"">
                    <img src=""images/semantic_sequence/cat_care_semantic/cat_care_semantic_ten.png"" class=""exp-image"">
                    <div class=""question-area""></div> 
                </div>","null","","","","","","","","",""
"","","","","","html-button-response","36","196894","0.0-36.0","66C79932EC414CBA86F0BDD4898E06B8","019cf80f-fd19-7e9d-b527-283e2847ce6f","019cf80d-4266-7117-8a51-54e13c84aca4","","418","
                <div class=""stimulus-container"">
                    <img src=""images/semantic_sequence/cat_care_semantic/cat_care_semantic_ten.png"" class=""exp-image"">
                    <div class=""question-area"">
                        <p style=""font-size: 20px; font-weight: bold; margin: 0;"">Is there a person in this image?</p>
                    </div>
                </div>","1","main_experiment_trial","ten","cat_care_semantic","semantic_sequence","","","","",""
"","","","","","html-keyboard-response","37","197901","0.0-37.0","66C79932EC414CBA86F0BDD4898E06B8","019cf80f-fd19-7e9d-b527-283e2847ce6f","019cf80d-4266-7117-8a51-54e13c84aca4","","null","<div style=""background-color: white; width: 100vw; height: 100vh;""></div>","null","","","","","","","","",""
"","","","","","html-keyboard-response","38","202915","0.0-38.0","66C79932EC414CBA86F0BDD4898E06B8","019cf80f-fd19-7e9d-b527-283e2847ce6f","019cf80d-4266-7117-8a51-54e13c84aca4","","null","
                <div class=""stimulus-container"">
                    <img src=""images/semantic_sequence/exploring_nature_semantic/exploring_nature_semantic_1.png"" class=""exp-image"">
                    <div class=""question-area""></div> 
                </div>","null","","","","","","","","",""
"","","","","","html-button-response","39","203910","0.0-39.0","66C79932EC414CBA86F0BDD4898E06B8","019cf80f-fd19-7e9d-b527-283e2847ce6f","019cf80d-4266-7117-8a51-54e13c84aca4","","994","
                <div class=""stimulus-container"">
                    <img src=""images/semantic_sequence/exploring_nature_semantic/exploring_nature_semantic_1.png"" class=""exp-image"">
                    <div class=""question-area"">
                        <p style=""font-size: 20px; font-weight: bold; margin: 0;"">Is there a person in this image?</p>
                    </div>
                </div>","0","main_experiment_trial","1","exploring_nature_semantic","semantic_sequence","","","","",""
"","","","","","html-keyboard-response","40","208913","0.0-40.0","66C79932EC414CBA86F0BDD4898E06B8","019cf80f-fd19-7e9d-b527-283e2847ce6f","019cf80d-4266-7117-8a51-54e13c84aca4","","null","
                <div class=""stimulus-container"">
                    <img src=""images/semantic_sequence/exploring_nature_semantic/exploring_nature_semantic_2.png"" class=""exp-image"">
                    <div class=""question-area""></div> 
                </div>","null","","","","","","","","",""
"","","","","","html-button-response","41","209902","0.0-41.0","66C79932EC414CBA86F0BDD4898E06B8","019cf80f-fd19-7e9d-b527-283e2847ce6f","019cf80d-4266-7117-8a51-54e13c84aca4","","988","
                <div class=""stimulus-container"">
                    <img src=""images/semantic_sequence/exploring_nature_semantic/exploring_nature_semantic_2.png"" class=""exp-image"">
                    <div class=""question-area"">
                        <p style=""font-size: 20px; font-weight: bold; margin: 0;"">Is there a person in this image?</p>
                    </div>
                </div>","0","main_experiment_trial","2","exploring_nature_semantic","semantic_sequence","","","","",""
"","","","","","html-keyboard-response","42","214917","0.0-42.0","66C79932EC414CBA86F0BDD4898E06B8","019cf80f-fd19-7e9d-b527-283e2847ce6f","019cf80d-4266-7117-8a51-54e13c84aca4","","null","
                <div class=""stimulus-container"">
                    <img src=""images/semantic_sequence/exploring_nature_semantic/exploring_nature_semantic_3.png"" class=""exp-image"">
                    <div class=""question-area""></div> 
                </div>","null","","","","","","","","",""
"","","","","","html-button-response","43","215460","0.0-43.0","66C79932EC414CBA86F0BDD4898E06B8","019cf80f-fd19-7e9d-b527-283e2847ce6f","019cf80d-4266-7117-8a51-54e13c84aca4","","541","
                <div class=""stimulus-container"">
                    <img src=""images/semantic_sequence/exploring_nature_semantic/exploring_nature_semantic_3.png"" class=""exp-image"">
                    <div class=""question-area"">
                        <p style=""font-size: 20px; font-weight: bold; margin: 0;"">Is there a person in this image?</p>
                    </div>
                </div>","0","main_experiment_trial","3","exploring_nature_semantic","semantic_sequence","","","","",""
"","","","","","html-keyboard-response","44","220466","0.0-44.0","66C79932EC414CBA86F0BDD4898E06B8","019cf80f-fd19-7e9d-b527-283e2847ce6f","019cf80d-4266-7117-8a51-54e13c84aca4","","null","
                <div class=""stimulus-container"">
                    <img src=""images/semantic_sequence/exploring_nature_semantic/exploring_nature_semantic_4.png"" class=""exp-image"">
                    <div class=""question-area""></div> 
                </div>","null","","","","","","","","",""
"","","","","","html-button-response","45","223481","0.0-45.0","66C79932EC414CBA86F0BDD4898E06B8","019cf80f-fd19-7e9d-b527-283e2847ce6f","019cf80d-4266-7117-8a51-54e13c84aca4","","null","
                <div class=""stimulus-container"">
                    <img src=""images/semantic_sequence/exploring_nature_semantic/exploring_nature_semantic_4.png"" class=""exp-image"">
                    <div class=""question-area"">
                        <p style=""font-size: 20px; font-weight: bold; margin: 0;"">Is there a person in this image?</p>
                    </div>
                </div>","null","main_experiment_trial","4","exploring_nature_semantic","semantic_sequence","","","","",""
"","","","","","html-keyboard-response","46","228484","0.0-46.0","66C79932EC414CBA86F0BDD4898E06B8","019cf80f-fd19-7e9d-b527-283e2847ce6f","019cf80d-4266-7117-8a51-54e13c84aca4","","null","
                <div class=""stimulus-container"">
                    <img src=""images/semantic_sequence/exploring_nature_semantic/exploring_nature_semantic_5.png"" class=""exp-image"">
                    <div class=""question-area""></div> 
                </div>","null","","","","","","","","",""
"","","","","","html-button-response","47","229484","0.0-47.0","66C79932EC414CBA86F0BDD4898E06B8","019cf80f-fd19-7e9d-b527-283e2847ce6f","019cf80d-4266-7117-8a51-54e13c84aca4","","999","
                <div class=""stimulus-container"">
                    <img src=""images/semantic_sequence/exploring_nature_semantic/exploring_nature_semantic_5.png"" class=""exp-image"">
                    <div class=""question-area"">
                        <p style=""font-size: 20px; font-weight: bold; margin: 0;"">Is there a person in this image?</p>
                    </div>
                </div>","0","main_experiment_trial","5","exploring_nature_semantic","semantic_sequence","","","","",""
"","","","","","html-keyboard-response","48","234500","0.0-48.0","66C79932EC414CBA86F0BDD4898E06B8","019cf80f-fd19-7e9d-b527-283e2847ce6f","019cf80d-4266-7117-8a51-54e13c84aca4","","null","
                <div class=""stimulus-container"">
                    <img src=""images/semantic_sequence/exploring_nature_semantic/exploring_nature_semantic_6.png"" class=""exp-image"">
                    <div class=""question-area""></div> 
                </div>","null","","","","","","","","",""
"","","","","","html-button-response","49","234984","0.0-49.0","66C79932EC414CBA86F0BDD4898E06B8","019cf80f-fd19-7e9d-b527-283e2847ce6f","019cf80d-4266-7117-8a51-54e13c84aca4","","482","
                <div class=""stimulus-container"">
                    <img src=""images/semantic_sequence/exploring_nature_semantic/exploring_nature_semantic_6.png"" class=""exp-image"">
                    <div class=""question-area"">
                        <p style=""font-size: 20px; font-weight: bold; margin: 0;"">Is there a person in this image?</p>
                    </div>
                </div>","0","main_experiment_trial","6","exploring_nature_semantic","semantic_sequence","","","","",""
"","","","","","html-keyboard-response","50","239987","0.0-50.0","66C79932EC414CBA86F0BDD4898E06B8","019cf80f-fd19-7e9d-b527-283e2847ce6f","019cf80d-4266-7117-8a51-54e13c84aca4","","null","
                <div class=""stimulus-container"">
                    <img src=""images/semantic_sequence/exploring_nature_semantic/exploring_nature_semantic_7.png"" class=""exp-image"">
                    <div class=""question-area""></div> 
                </div>","null","","","","","","","","",""
"","","","","","html-button-response","51","240548","0.0-51.0","66C79932EC414CBA86F0BDD4898E06B8","019cf80f-fd19-7e9d-b527-283e2847ce6f","019cf80d-4266-7117-8a51-54e13c84aca4","","560","
                <div class=""stimulus-container"">
                    <img src=""images/semantic_sequence/exploring_nature_semantic/exploring_nature_semantic_7.png"" class=""exp-image"">
                    <div class=""question-area"">
                        <p style=""font-size: 20px; font-weight: bold; margin: 0;"">Is there a person in this image?</p>
                    </div>
                </div>","0","main_experiment_trial","7","exploring_nature_semantic","semantic_sequence","","","","",""
"","","","","","html-keyboard-response","52","245549","0.0-52.0","66C79932EC414CBA86F0BDD4898E06B8","019cf80f-fd19-7e9d-b527-283e2847ce6f","019cf80d-4266-7117-8a51-54e13c84aca4","","null","
                <div class=""stimulus-container"">
                    <img src=""images/semantic_sequence/exploring_nature_semantic/exploring_nature_semantic_8.png"" class=""exp-image"">
                    <div class=""question-area""></div> 
                </div>","null","","","","","","","","",""
"","","","","","html-button-response","53","246478","0.0-53.0","66C79932EC414CBA86F0BDD4898E06B8","019cf80f-fd19-7e9d-b527-283e2847ce6f","019cf80d-4266-7117-8a51-54e13c84aca4","","927","
                <div class=""stimulus-container"">
                    <img src=""images/semantic_sequence/exploring_nature_semantic/exploring_nature_semantic_8.png"" class=""exp-image"">
                    <div class=""question-area"">
                        <p style=""font-size: 20px; font-weight: bold; margin: 0;"">Is there a person in this image?</p>
                    </div>
                </div>","0","main_experiment_trial","8","exploring_nature_semantic","semantic_sequence","","","","",""
"","","","","","html-keyboard-response","54","251485","0.0-54.0","66C79932EC414CBA86F0BDD4898E06B8","019cf80f-fd19-7e9d-b527-283e2847ce6f","019cf80d-4266-7117-8a51-54e13c84aca4","","null","
                <div class=""stimulus-container"">
                    <img src=""images/semantic_sequence/exploring_nature_semantic/exploring_nature_semantic_9.png"" class=""exp-image"">
                    <div class=""question-area""></div> 
                </div>","null","","","","","","","","",""
"","","","","","html-button-response","55","251968","0.0-55.0","66C79932EC414CBA86F0BDD4898E06B8","019cf80f-fd19-7e9d-b527-283e2847ce6f","019cf80d-4266-7117-8a51-54e13c84aca4","","481","
                <div class=""stimulus-container"">
                    <img src=""images/semantic_sequence/exploring_nature_semantic/exploring_nature_semantic_9.png"" class=""exp-image"">
                    <div class=""question-area"">
                        <p style=""font-size: 20px; font-weight: bold; margin: 0;"">Is there a person in this image?</p>
                    </div>
                </div>","0","main_experiment_trial","9","exploring_nature_semantic","semantic_sequence","","","","",""
"","","","","","html-keyboard-response","56","256971","0.0-56.0","66C79932EC414CBA86F0BDD4898E06B8","019cf80f-fd19-7e9d-b527-283e2847ce6f","019cf80d-4266-7117-8a51-54e13c84aca4","","null","
                <div class=""stimulus-container"">
                    <img src=""images/semantic_sequence/exploring_nature_semantic/exploring_nature_semantic_ten.png"" class=""exp-image"">
                    <div class=""question-area""></div> 
                </div>","null","","","","","","","","",""
"","","","","","html-button-response","57","258118","0.0-57.0","66C79932EC414CBA86F0BDD4898E06B8","019cf80f-fd19-7e9d-b527-283e2847ce6f","019cf80d-4266-7117-8a51-54e13c84aca4","","1146","
                <div class=""stimulus-container"">
                    <img src=""images/semantic_sequence/exploring_nature_semantic/exploring_nature_semantic_ten.png"" class=""exp-image"">
                    <div class=""question-area"">
                        <p style=""font-size: 20px; font-weight: bold; margin: 0;"">Is there a person in this image?</p>
                    </div>
                </div>","0","main_experiment_trial","ten","exploring_nature_semantic","semantic_sequence","","","","",""
"","","","","","html-keyboard-response","58","259122","0.0-58.0","66C79932EC414CBA86F0BDD4898E06B8","019cf80f-fd19-7e9d-b527-283e2847ce6f","019cf80d-4266-7117-8a51-54e13c84aca4","","null","<div style=""background-color: white; width: 100vw; height: 100vh;""></div>","null","","","","","","","","",""
"","","","","","html-keyboard-response","59","264137","0.0-59.0","66C79932EC414CBA86F0BDD4898E06B8","019cf80f-fd19-7e9d-b527-283e2847ce6f","019cf80d-4266-7117-8a51-54e13c84aca4","","null","
                <div class=""stimulus-container"">
                    <img src=""images/semantic_sequence/market_semantic/market_semantic_1.png"" class=""exp-image"">
                    <div class=""question-area""></div> 
                </div>","null","","","","","","","","",""
"","","","","","html-button-response","60","265250","0.0-60.0","66C79932EC414CBA86F0BDD4898E06B8","019cf80f-fd19-7e9d-b527-283e2847ce6f","019cf80d-4266-7117-8a51-54e13c84aca4","","1112","
                <div class=""stimulus-container"">
                    <img src=""images/semantic_sequence/market_semantic/market_semantic_1.png"" class=""exp-image"">
                    <div class=""question-area"">
                        <p style=""font-size: 20px; font-weight: bold; margin: 0;"">Is there a person in this image?</p>
                    </div>
                </div>","1","main_experiment_trial","1","market_semantic","semantic_sequence","","","","",""
"","","","","","html-keyboard-response","61","270265","0.0-61.0","66C79932EC414CBA86F0BDD4898E06B8","019cf80f-fd19-7e9d-b527-283e2847ce6f","019cf80d-4266-7117-8a51-54e13c84aca4","","null","
                <div class=""stimulus-container"">
                    <img src=""images/semantic_sequence/market_semantic/market_semantic_2.png"" class=""exp-image"">
                    <div class=""question-area""></div> 
                </div>","null","","","","","","","","",""
"","","","","","html-button-response","62","271705","0.0-62.0","66C79932EC414CBA86F0BDD4898E06B8","019cf80f-fd19-7e9d-b527-283e2847ce6f","019cf80d-4266-7117-8a51-54e13c84aca4","","1440","
                <div class=""stimulus-container"">
                    <img src=""images/semantic_sequence/market_semantic/market_semantic_2.png"" class=""exp-image"">
                    <div class=""question-area"">
                        <p style=""font-size: 20px; font-weight: bold; margin: 0;"">Is there a person in this image?</p>
                    </div>
                </div>","1","main_experiment_trial","2","market_semantic","semantic_sequence","","","","",""
"","","","","","html-keyboard-response","63","276711","0.0-63.0","66C79932EC414CBA86F0BDD4898E06B8","019cf80f-fd19-7e9d-b527-283e2847ce6f","019cf80d-4266-7117-8a51-54e13c84aca4","","null","
                <div class=""stimulus-container"">
                    <img src=""images/semantic_sequence/market_semantic/market_semantic_3.png"" class=""exp-image"">
                    <div class=""question-area""></div> 
                </div>","null","","","","","","","","",""
"","","","","","html-button-response","64","278128","0.0-64.0","66C79932EC414CBA86F0BDD4898E06B8","019cf80f-fd19-7e9d-b527-283e2847ce6f","019cf80d-4266-7117-8a51-54e13c84aca4","","1416","
                <div class=""stimulus-container"">
                    <img src=""images/semantic_sequence/market_semantic/market_semantic_3.png"" class=""exp-image"">
                    <div class=""question-area"">
                        <p style=""font-size: 20px; font-weight: bold; margin: 0;"">Is there a person in this image?</p>
                    </div>
                </div>","1","main_experiment_trial","3","market_semantic","semantic_sequence","","","","",""
"","","","","","html-keyboard-response","65","283130","0.0-65.0","66C79932EC414CBA86F0BDD4898E06B8","019cf80f-fd19-7e9d-b527-283e2847ce6f","019cf80d-4266-7117-8a51-54e13c84aca4","","null","
                <div class=""stimulus-container"">
                    <img src=""images/semantic_sequence/market_semantic/market_semantic_4.png"" class=""exp-image"">
                    <div class=""question-area""></div> 
                </div>","null","","","","","","","","",""
"","","","","","html-button-response","66","284524","0.0-66.0","66C79932EC414CBA86F0BDD4898E06B8","019cf80f-fd19-7e9d-b527-283e2847ce6f","019cf80d-4266-7117-8a51-54e13c84aca4","","1392","
                <div class=""stimulus-container"">
                    <img src=""images/semantic_sequence/market_semantic/market_semantic_4.png"" class=""exp-image"">
                    <div class=""question-area"">
                        <p style=""font-size: 20px; font-weight: bold; margin: 0;"">Is there a person in this image?</p>
                    </div>
                </div>","0","main_experiment_trial","4","market_semantic","semantic_sequence","","","","",""
"","","","","","html-keyboard-response","67","289527","0.0-67.0","66C79932EC414CBA86F0BDD4898E06B8","019cf80f-fd19-7e9d-b527-283e2847ce6f","019cf80d-4266-7117-8a51-54e13c84aca4","","null","
                <div class=""stimulus-container"">
                    <img src=""images/semantic_sequence/market_semantic/market_semantic_5.png"" class=""exp-image"">
                    <div class=""question-area""></div> 
                </div>","null","","","","","","","","",""
"","","","","","html-button-response","68","290502","0.0-68.0","66C79932EC414CBA86F0BDD4898E06B8","019cf80f-fd19-7e9d-b527-283e2847ce6f","019cf80d-4266-7117-8a51-54e13c84aca4","","974","
                <div class=""stimulus-container"">
                    <img src=""images/semantic_sequence/market_semantic/market_semantic_5.png"" class=""exp-image"">
                    <div class=""question-area"">
                        <p style=""font-size: 20px; font-weight: bold; margin: 0;"">Is there a person in this image?</p>
                    </div>
                </div>","1","main_experiment_trial","5","market_semantic","semantic_sequence","","","","",""
"","","","","","html-keyboard-response","69","295508","0.0-69.0","66C79932EC414CBA86F0BDD4898E06B8","019cf80f-fd19-7e9d-b527-283e2847ce6f","019cf80d-4266-7117-8a51-54e13c84aca4","","null","
                <div class=""stimulus-container"">
                    <img src=""images/semantic_sequence/market_semantic/market_semantic_6.png"" class=""exp-image"">
                    <div class=""question-area""></div> 
                </div>","null","","","","","","","","",""
"","","","","","html-button-response","70","296558","0.0-70.0","66C79932EC414CBA86F0BDD4898E06B8","019cf80f-fd19-7e9d-b527-283e2847ce6f","019cf80d-4266-7117-8a51-54e13c84aca4","","1049","
                <div class=""stimulus-container"">
                    <img src=""images/semantic_sequence/market_semantic/market_semantic_6.png"" class=""exp-image"">
                    <div class=""question-area"">
                        <p style=""font-size: 20px; font-weight: bold; margin: 0;"">Is there a person in this image?</p>
                    </div>
                </div>","1","main_experiment_trial","6","market_semantic","semantic_sequence","","","","",""
"","","","","","html-keyboard-response","71","301561","0.0-71.0","66C79932EC414CBA86F0BDD4898E06B8","019cf80f-fd19-7e9d-b527-283e2847ce6f","019cf80d-4266-7117-8a51-54e13c84aca4","","null","
                <div class=""stimulus-container"">
                    <img src=""images/semantic_sequence/market_semantic/market_semantic_7.png"" class=""exp-image"">
                    <div class=""question-area""></div> 
                </div>","null","","","","","","","","",""
"","","","","","html-button-response","72","303403","0.0-72.0","66C79932EC414CBA86F0BDD4898E06B8","019cf80f-fd19-7e9d-b527-283e2847ce6f","019cf80d-4266-7117-8a51-54e13c84aca4","","1841","
                <div class=""stimulus-container"">
                    <img src=""images/semantic_sequence/market_semantic/market_semantic_7.png"" class=""exp-image"">
                    <div class=""question-area"">
                        <p style=""font-size: 20px; font-weight: bold; margin: 0;"">Is there a person in this image?</p>
                    </div>
                </div>","0","main_experiment_trial","7","market_semantic","semantic_sequence","","","","",""
"","","","","","html-keyboard-response","73","308414","0.0-73.0","66C79932EC414CBA86F0BDD4898E06B8","019cf80f-fd19-7e9d-b527-283e2847ce6f","019cf80d-4266-7117-8a51-54e13c84aca4","","null","
                <div class=""stimulus-container"">
                    <img src=""images/semantic_sequence/market_semantic/market_semantic_8.png"" class=""exp-image"">
                    <div class=""question-area""></div> 
                </div>","null","","","","","","","","",""
"","","","","","html-button-response","74","309231","0.0-74.0","66C79932EC414CBA86F0BDD4898E06B8","019cf80f-fd19-7e9d-b527-283e2847ce6f","019cf80d-4266-7117-8a51-54e13c84aca4","","817","
                <div class=""stimulus-container"">
                    <img src=""images/semantic_sequence/market_semantic/market_semantic_8.png"" class=""exp-image"">
                    <div class=""question-area"">
                        <p style=""font-size: 20px; font-weight: bold; margin: 0;"">Is there a person in this image?</p>
                    </div>
                </div>","1","main_experiment_trial","8","market_semantic","semantic_sequence","","","","",""
"","","","","","html-keyboard-response","75","314243","0.0-75.0","66C79932EC414CBA86F0BDD4898E06B8","019cf80f-fd19-7e9d-b527-283e2847ce6f","019cf80d-4266-7117-8a51-54e13c84aca4","","null","
                <div class=""stimulus-container"">
                    <img src=""images/semantic_sequence/market_semantic/market_semantic_9.png"" class=""exp-image"">
                    <div class=""question-area""></div> 
                </div>","null","","","","","","","","",""
"","","","","","html-button-response","76","314852","0.0-76.0","66C79932EC414CBA86F0BDD4898E06B8","019cf80f-fd19-7e9d-b527-283e2847ce6f","019cf80d-4266-7117-8a51-54e13c84aca4","","607","
                <div class=""stimulus-container"">
                    <img src=""images/semantic_sequence/market_semantic/market_semantic_9.png"" class=""exp-image"">
                    <div class=""question-area"">
                        <p style=""font-size: 20px; font-weight: bold; margin: 0;"">Is there a person in this image?</p>
                    </div>
                </div>","0","main_experiment_trial","9","market_semantic","semantic_sequence","","","","",""
"","","","","","html-keyboard-response","77","319853","0.0-77.0","66C79932EC414CBA86F0BDD4898E06B8","019cf80f-fd19-7e9d-b527-283e2847ce6f","019cf80d-4266-7117-8a51-54e13c84aca4","","null","
                <div class=""stimulus-container"">
                    <img src=""images/semantic_sequence/market_semantic/market_semantic_ten.png"" class=""exp-image"">
                    <div class=""question-area""></div> 
                </div>","null","","","","","","","","",""
"","","","","","html-button-response","78","321494","0.0-78.0","66C79932EC414CBA86F0BDD4898E06B8","019cf80f-fd19-7e9d-b527-283e2847ce6f","019cf80d-4266-7117-8a51-54e13c84aca4","","1640","
                <div class=""stimulus-container"">
                    <img src=""images/semantic_sequence/market_semantic/market_semantic_ten.png"" class=""exp-image"">
                    <div class=""question-area"">
                        <p style=""font-size: 20px; font-weight: bold; margin: 0;"">Is there a person in this image?</p>
                    </div>
                </div>","1","main_experiment_trial","ten","market_semantic","semantic_sequence","","","","",""
"","","","","","html-keyboard-response","79","322495","0.0-79.0","66C79932EC414CBA86F0BDD4898E06B8","019cf80f-fd19-7e9d-b527-283e2847ce6f","019cf80d-4266-7117-8a51-54e13c84aca4","","null","<div style=""background-color: white; width: 100vw; height: 100vh;""></div>","null","","","","","","","","",""
"","","","","","html-keyboard-response","80","327497","0.0-80.0","66C79932EC414CBA86F0BDD4898E06B8","019cf80f-fd19-7e9d-b527-283e2847ce6f","019cf80d-4266-7117-8a51-54e13c84aca4","","null","
                <div class=""stimulus-container"">
                    <img src=""images/semantic_sequence/housework_semantic/housework_semantic_1.png"" class=""exp-image"">
                    <div class=""question-area""></div> 
                </div>","null","","","","","","","","",""
"","","","","","html-button-response","81","328195","0.0-81.0","66C79932EC414CBA86F0BDD4898E06B8","019cf80f-fd19-7e9d-b527-283e2847ce6f","019cf80d-4266-7117-8a51-54e13c84aca4","","697","
                <div class=""stimulus-container"">
                    <img src=""images/semantic_sequence/housework_semantic/housework_semantic_1.png"" class=""exp-image"">
                    <div class=""question-area"">
                        <p style=""font-size: 20px; font-weight: bold; margin: 0;"">Is there a person in this image?</p>
                    </div>
                </div>","0","main_experiment_trial","1","housework_semantic","semantic_sequence","","","","",""
"","","","","","html-keyboard-response","82","333208","0.0-82.0","66C79932EC414CBA86F0BDD4898E06B8","019cf80f-fd19-7e9d-b527-283e2847ce6f","019cf80d-4266-7117-8a51-54e13c84aca4","","null","
                <div class=""stimulus-container"">
                    <img src=""images/semantic_sequence/housework_semantic/housework_semantic_2.png"" class=""exp-image"">
                    <div class=""question-area""></div> 
                </div>","null","","","","","","","","",""
"","","","","","html-button-response","83","333670","0.0-83.0","66C79932EC414CBA86F0BDD4898E06B8","019cf80f-fd19-7e9d-b527-283e2847ce6f","019cf80d-4266-7117-8a51-54e13c84aca4","","461","
                <div class=""stimulus-container"">
                    <img src=""images/semantic_sequence/housework_semantic/housework_semantic_2.png"" class=""exp-image"">
                    <div class=""question-area"">
                        <p style=""font-size: 20px; font-weight: bold; margin: 0;"">Is there a person in this image?</p>
                    </div>
                </div>","0","main_experiment_trial","2","housework_semantic","semantic_sequence","","","","",""
"","","","","","html-keyboard-response","84","338686","0.0-84.0","66C79932EC414CBA86F0BDD4898E06B8","019cf80f-fd19-7e9d-b527-283e2847ce6f","019cf80d-4266-7117-8a51-54e13c84aca4","","null","
                <div class=""stimulus-container"">
                    <img src=""images/semantic_sequence/housework_semantic/housework_semantic_3.png"" class=""exp-image"">
                    <div class=""question-area""></div> 
                </div>","null","","","","","","","","",""
"","","","","","html-button-response","85","339351","0.0-85.0","66C79932EC414CBA86F0BDD4898E06B8","019cf80f-fd19-7e9d-b527-283e2847ce6f","019cf80d-4266-7117-8a51-54e13c84aca4","","665","
                <div class=""stimulus-container"">
                    <img src=""images/semantic_sequence/housework_semantic/housework_semantic_3.png"" class=""exp-image"">
                    <div class=""question-area"">
                        <p style=""font-size: 20px; font-weight: bold; margin: 0;"">Is there a person in this image?</p>
                    </div>
                </div>","0","main_experiment_trial","3","housework_semantic","semantic_sequence","","","","",""
"","","","","","html-keyboard-response","86","344354","0.0-86.0","66C79932EC414CBA86F0BDD4898E06B8","019cf80f-fd19-7e9d-b527-283e2847ce6f","019cf80d-4266-7117-8a51-54e13c84aca4","","null","
                <div class=""stimulus-container"">
                    <img src=""images/semantic_sequence/housework_semantic/housework_semantic_4.png"" class=""exp-image"">
                    <div class=""question-area""></div> 
                </div>","null","","","","","","","","",""
"","","","","","html-button-response","87","345488","0.0-87.0","66C79932EC414CBA86F0BDD4898E06B8","019cf80f-fd19-7e9d-b527-283e2847ce6f","019cf80d-4266-7117-8a51-54e13c84aca4","","1133","
                <div class=""stimulus-container"">
                    <img src=""images/semantic_sequence/housework_semantic/housework_semantic_4.png"" class=""exp-image"">
                    <div class=""question-area"">
                        <p style=""font-size: 20px; font-weight: bold; margin: 0;"">Is there a person in this image?</p>
                    </div>
                </div>","0","main_experiment_trial","4","housework_semantic","semantic_sequence","","","","",""
"","","","","","html-keyboard-response","88","350496","0.0-88.0","66C79932EC414CBA86F0BDD4898E06B8","019cf80f-fd19-7e9d-b527-283e2847ce6f","019cf80d-4266-7117-8a51-54e13c84aca4","","null","
                <div class=""stimulus-container"">
                    <img src=""images/semantic_sequence/housework_semantic/housework_semantic_5.png"" class=""exp-image"">
                    <div class=""question-area""></div> 
                </div>","null","","","","","","","","",""
"","","","","","html-button-response","89","351375","0.0-89.0","66C79932EC414CBA86F0BDD4898E06B8","019cf80f-fd19-7e9d-b527-283e2847ce6f","019cf80d-4266-7117-8a51-54e13c84aca4","","878","
                <div class=""stimulus-container"">
                    <img src=""images/semantic_sequence/housework_semantic/housework_semantic_5.png"" class=""exp-image"">
                    <div class=""question-area"">
                        <p style=""font-size: 20px; font-weight: bold; margin: 0;"">Is there a person in this image?</p>
                    </div>
                </div>","0","main_experiment_trial","5","housework_semantic","semantic_sequence","","","","",""
"","","","","","html-keyboard-response","90","356386","0.0-90.0","66C79932EC414CBA86F0BDD4898E06B8","019cf80f-fd19-7e9d-b527-283e2847ce6f","019cf80d-4266-7117-8a51-54e13c84aca4","","null","
                <div class=""stimulus-container"">
                    <img src=""images/semantic_sequence/housework_semantic/housework_semantic_6.png"" class=""exp-image"">
                    <div class=""question-area""></div> 
                </div>","null","","","","","","","","",""
"","","","","","html-button-response","91","356996","0.0-91.0","66C79932EC414CBA86F0BDD4898E06B8","019cf80f-fd19-7e9d-b527-283e2847ce6f","019cf80d-4266-7117-8a51-54e13c84aca4","","609","
                <div class=""stimulus-container"">
                    <img src=""images/semantic_sequence/housework_semantic/housework_semantic_6.png"" class=""exp-image"">
                    <div class=""question-area"">
                        <p style=""font-size: 20px; font-weight: bold; margin: 0;"">Is there a person in this image?</p>
                    </div>
                </div>","0","main_experiment_trial","6","housework_semantic","semantic_sequence","","","","",""
"","","","","","html-keyboard-response","92","362009","0.0-92.0","66C79932EC414CBA86F0BDD4898E06B8","019cf80f-fd19-7e9d-b527-283e2847ce6f","019cf80d-4266-7117-8a51-54e13c84aca4","","null","
                <div class=""stimulus-container"">
                    <img src=""images/semantic_sequence/housework_semantic/housework_semantic_7.png"" class=""exp-image"">
                    <div class=""question-area""></div> 
                </div>","null","","","","","","","","",""
"","","","","","html-button-response","93","363089","0.0-93.0","66C79932EC414CBA86F0BDD4898E06B8","019cf80f-fd19-7e9d-b527-283e2847ce6f","019cf80d-4266-7117-8a51-54e13c84aca4","","1080","
                <div class=""stimulus-container"">
                    <img src=""images/semantic_sequence/housework_semantic/housework_semantic_7.png"" class=""exp-image"">
                    <div class=""question-area"">
                        <p style=""font-size: 20px; font-weight: bold; margin: 0;"">Is there a person in this image?</p>
                    </div>
                </div>","0","main_experiment_trial","7","housework_semantic","semantic_sequence","","","","",""
"","","","","","html-keyboard-response","94","368090","0.0-94.0","66C79932EC414CBA86F0BDD4898E06B8","019cf80f-fd19-7e9d-b527-283e2847ce6f","019cf80d-4266-7117-8a51-54e13c84aca4","","null","
                <div class=""stimulus-container"">
                    <img src=""images/semantic_sequence/housework_semantic/housework_semantic_8.png"" class=""exp-image"">
                    <div class=""question-area""></div> 
                </div>","null","","","","","","","","",""
"","","","","","html-button-response","95","368548","0.0-95.0","66C79932EC414CBA86F0BDD4898E06B8","019cf80f-fd19-7e9d-b527-283e2847ce6f","019cf80d-4266-7117-8a51-54e13c84aca4","","457","
                <div class=""stimulus-container"">
                    <img src=""images/semantic_sequence/housework_semantic/housework_semantic_8.png"" class=""exp-image"">
                    <div class=""question-area"">
                        <p style=""font-size: 20px; font-weight: bold; margin: 0;"">Is there a person in this image?</p>
                    </div>
                </div>","0","main_experiment_trial","8","housework_semantic","semantic_sequence","","","","",""
"","","","","","html-keyboard-response","96","373549","0.0-96.0","66C79932EC414CBA86F0BDD4898E06B8","019cf80f-fd19-7e9d-b527-283e2847ce6f","019cf80d-4266-7117-8a51-54e13c84aca4","","null","
                <div class=""stimulus-container"">
                    <img src=""images/semantic_sequence/housework_semantic/housework_semantic_9.png"" class=""exp-image"">
                    <div class=""question-area""></div> 
                </div>","null","","","","","","","","",""
"","","","","","html-button-response","97","374708","0.0-97.0","66C79932EC414CBA86F0BDD4898E06B8","019cf80f-fd19-7e9d-b527-283e2847ce6f","019cf80d-4266-7117-8a51-54e13c84aca4","","1158","
                <div class=""stimulus-container"">
                    <img src=""images/semantic_sequence/housework_semantic/housework_semantic_9.png"" class=""exp-image"">
                    <div class=""question-area"">
                        <p style=""font-size: 20px; font-weight: bold; margin: 0;"">Is there a person in this image?</p>
                    </div>
                </div>","0","main_experiment_trial","9","housework_semantic","semantic_sequence","","","","",""
"","","","","","html-keyboard-response","98","379712","0.0-98.0","66C79932EC414CBA86F0BDD4898E06B8","019cf80f-fd19-7e9d-b527-283e2847ce6f","019cf80d-4266-7117-8a51-54e13c84aca4","","null","
                <div class=""stimulus-container"">
                    <img src=""images/semantic_sequence/housework_semantic/housework_semantic_ten.png"" class=""exp-image"">
                    <div class=""question-area""></div> 
                </div>","null","","","","","","","","",""
"","","","","","html-button-response","99","380133","0.0-99.0","66C79932EC414CBA86F0BDD4898E06B8","019cf80f-fd19-7e9d-b527-283e2847ce6f","019cf80d-4266-7117-8a51-54e13c84aca4","","420","
                <div class=""stimulus-container"">
                    <img src=""images/semantic_sequence/housework_semantic/housework_semantic_ten.png"" class=""exp-image"">
                    <div class=""question-area"">
                        <p style=""font-size: 20px; font-weight: bold; margin: 0;"">Is there a person in this image?</p>
                    </div>
                </div>","0","main_experiment_trial","ten","housework_semantic","semantic_sequence","","","","",""
"","","","","","html-keyboard-response","100","381135","0.0-100.0","66C79932EC414CBA86F0BDD4898E06B8","019cf80f-fd19-7e9d-b527-283e2847ce6f","019cf80d-4266-7117-8a51-54e13c84aca4","","null","<div style=""background-color: white; width: 100vw; height: 100vh;""></div>","null","","","","","","","","",""
"","","","","","html-keyboard-response","101","386140","0.0-101.0","66C79932EC414CBA86F0BDD4898E06B8","019cf80f-fd19-7e9d-b527-283e2847ce6f","019cf80d-4266-7117-8a51-54e13c84aca4","","null","
                <div class=""stimulus-container"">
                    <img src=""images/schematic_sequence/dinner_party_scheme/dinner_party_scheme_1.png"" class=""exp-image"">
                    <div class=""question-area""></div> 
                </div>","null","","","","","","","","",""
"","","","","","html-button-response","102","386640","0.0-102.0","66C79932EC414CBA86F0BDD4898E06B8","019cf80f-fd19-7e9d-b527-283e2847ce6f","019cf80d-4266-7117-8a51-54e13c84aca4","","498","
                <div class=""stimulus-container"">
                    <img src=""images/schematic_sequence/dinner_party_scheme/dinner_party_scheme_1.png"" class=""exp-image"">
                    <div class=""question-area"">
                        <p style=""font-size: 20px; font-weight: bold; margin: 0;"">Is there a person in this image?</p>
                    </div>
                </div>","0","main_experiment_trial","1","dinner_party_scheme","schematic_sequence","","","","",""
"","","","","","html-keyboard-response","103","391643","0.0-103.0","66C79932EC414CBA86F0BDD4898E06B8","019cf80f-fd19-7e9d-b527-283e2847ce6f","019cf80d-4266-7117-8a51-54e13c84aca4","","null","
                <div class=""stimulus-container"">
                    <img src=""images/schematic_sequence/dinner_party_scheme/dinner_party_scheme_2.png"" class=""exp-image"">
                    <div class=""question-area""></div> 
                </div>","null","","","","","","","","",""
"","","","","","html-button-response","104","392481","0.0-104.0","66C79932EC414CBA86F0BDD4898E06B8","019cf80f-fd19-7e9d-b527-283e2847ce6f","019cf80d-4266-7117-8a51-54e13c84aca4","","837","
                <div class=""stimulus-container"">
                    <img src=""images/schematic_sequence/dinner_party_scheme/dinner_party_scheme_2.png"" class=""exp-image"">
                    <div class=""question-area"">
                        <p style=""font-size: 20px; font-weight: bold; margin: 0;"">Is there a person in this image?</p>
                    </div>
                </div>","0","main_experiment_trial","2","dinner_party_scheme","schematic_sequence","","","","",""
"","","","","","html-keyboard-response","105","397495","0.0-105.0","66C79932EC414CBA86F0BDD4898E06B8","019cf80f-fd19-7e9d-b527-283e2847ce6f","019cf80d-4266-7117-8a51-54e13c84aca4","","null","
                <div class=""stimulus-container"">
                    <img src=""images/schematic_sequence/dinner_party_scheme/dinner_party_scheme_3.png"" class=""exp-image"">
                    <div class=""question-area""></div> 
                </div>","null","","","","","","","","",""
"","","","","","html-button-response","106","398055","0.0-106.0","66C79932EC414CBA86F0BDD4898E06B8","019cf80f-fd19-7e9d-b527-283e2847ce6f","019cf80d-4266-7117-8a51-54e13c84aca4","","559","
                <div class=""stimulus-container"">
                    <img src=""images/schematic_sequence/dinner_party_scheme/dinner_party_scheme_3.png"" class=""exp-image"">
                    <div class=""question-area"">
                        <p style=""font-size: 20px; font-weight: bold; margin: 0;"">Is there a person in this image?</p>
                    </div>
                </div>","0","main_experiment_trial","3","dinner_party_scheme","schematic_sequence","","","","",""
"","","","","","html-keyboard-response","107","403069","0.0-107.0","66C79932EC414CBA86F0BDD4898E06B8","019cf80f-fd19-7e9d-b527-283e2847ce6f","019cf80d-4266-7117-8a51-54e13c84aca4","","null","
                <div class=""stimulus-container"">
                    <img src=""images/schematic_sequence/dinner_party_scheme/dinner_party_scheme_4.png"" class=""exp-image"">
                    <div class=""question-area""></div> 
                </div>","null","","","","","","","","",""
"","","","","","html-button-response","108","403525","0.0-108.0","66C79932EC414CBA86F0BDD4898E06B8","019cf80f-fd19-7e9d-b527-283e2847ce6f","019cf80d-4266-7117-8a51-54e13c84aca4","","455","
                <div class=""stimulus-container"">
                    <img src=""images/schematic_sequence/dinner_party_scheme/dinner_party_scheme_4.png"" class=""exp-image"">
                    <div class=""question-area"">
                        <p style=""font-size: 20px; font-weight: bold; margin: 0;"">Is there a person in this image?</p>
                    </div>
                </div>","0","main_experiment_trial","4","dinner_party_scheme","schematic_sequence","","","","",""
"","","","","","html-keyboard-response","109","408537","0.0-109.0","66C79932EC414CBA86F0BDD4898E06B8","019cf80f-fd19-7e9d-b527-283e2847ce6f","019cf80d-4266-7117-8a51-54e13c84aca4","","null","
                <div class=""stimulus-container"">
                    <img src=""images/schematic_sequence/dinner_party_scheme/dinner_party_scheme_5.png"" class=""exp-image"">
                    <div class=""question-area""></div> 
                </div>","null","","","","","","","","",""
"","","","","","html-button-response","110","409076","0.0-110.0","66C79932EC414CBA86F0BDD4898E06B8","019cf80f-fd19-7e9d-b527-283e2847ce6f","019cf80d-4266-7117-8a51-54e13c84aca4","","537","
                <div class=""stimulus-container"">
                    <img src=""images/schematic_sequence/dinner_party_scheme/dinner_party_scheme_5.png"" class=""exp-image"">
                    <div class=""question-area"">
                        <p style=""font-size: 20px; font-weight: bold; margin: 0;"">Is there a person in this image?</p>
                    </div>
                </div>","0","main_experiment_trial","5","dinner_party_scheme","schematic_sequence","","","","",""
"","","","","","html-keyboard-response","111","414090","0.0-111.0","66C79932EC414CBA86F0BDD4898E06B8","019cf80f-fd19-7e9d-b527-283e2847ce6f","019cf80d-4266-7117-8a51-54e13c84aca4","","null","
                <div class=""stimulus-container"">
                    <img src=""images/schematic_sequence/dinner_party_scheme/dinner_party_scheme_6.png"" class=""exp-image"">
                    <div class=""question-area""></div> 
                </div>","null","","","","","","","","",""
"","","","","","html-button-response","112","414876","0.0-112.0","66C79932EC414CBA86F0BDD4898E06B8","019cf80f-fd19-7e9d-b527-283e2847ce6f","019cf80d-4266-7117-8a51-54e13c84aca4","","785","
                <div class=""stimulus-container"">
                    <img src=""images/schematic_sequence/dinner_party_scheme/dinner_party_scheme_6.png"" class=""exp-image"">
                    <div class=""question-area"">
                        <p style=""font-size: 20px; font-weight: bold; margin: 0;"">Is there a person in this image?</p>
                    </div>
                </div>","0","main_experiment_trial","6","dinner_party_scheme","schematic_sequence","","","","",""
"","","","","","html-keyboard-response","113","419887","0.0-113.0","66C79932EC414CBA86F0BDD4898E06B8","019cf80f-fd19-7e9d-b527-283e2847ce6f","019cf80d-4266-7117-8a51-54e13c84aca4","","null","
                <div class=""stimulus-container"">
                    <img src=""images/schematic_sequence/dinner_party_scheme/dinner_party_scheme_7.png"" class=""exp-image"">
                    <div class=""question-area""></div> 
                </div>","null","","","","","","","","",""
"","","","","","html-button-response","114","420371","0.0-114.0","66C79932EC414CBA86F0BDD4898E06B8","019cf80f-fd19-7e9d-b527-283e2847ce6f","019cf80d-4266-7117-8a51-54e13c84aca4","","483","
                <div class=""stimulus-container"">
                    <img src=""images/schematic_sequence/dinner_party_scheme/dinner_party_scheme_7.png"" class=""exp-image"">
                    <div class=""question-area"">
                        <p style=""font-size: 20px; font-weight: bold; margin: 0;"">Is there a person in this image?</p>
                    </div>
                </div>","0","main_experiment_trial","7","dinner_party_scheme","schematic_sequence","","","","",""
"","","","","","html-keyboard-response","115","425385","0.0-115.0","66C79932EC414CBA86F0BDD4898E06B8","019cf80f-fd19-7e9d-b527-283e2847ce6f","019cf80d-4266-7117-8a51-54e13c84aca4","","null","
                <div class=""stimulus-container"">
                    <img src=""images/schematic_sequence/dinner_party_scheme/dinner_party_scheme_8.png"" class=""exp-image"">
                    <div class=""question-area""></div> 
                </div>","null","","","","","","","","",""
"","","","","","html-button-response","116","426626","0.0-116.0","66C79932EC414CBA86F0BDD4898E06B8","019cf80f-fd19-7e9d-b527-283e2847ce6f","019cf80d-4266-7117-8a51-54e13c84aca4","","1240","
                <div class=""stimulus-container"">
                    <img src=""images/schematic_sequence/dinner_party_scheme/dinner_party_scheme_8.png"" class=""exp-image"">
                    <div class=""question-area"">
                        <p style=""font-size: 20px; font-weight: bold; margin: 0;"">Is there a person in this image?</p>
                    </div>
                </div>","0","main_experiment_trial","8","dinner_party_scheme","schematic_sequence","","","","",""
"","","","","","html-keyboard-response","117","431632","0.0-117.0","66C79932EC414CBA86F0BDD4898E06B8","019cf80f-fd19-7e9d-b527-283e2847ce6f","019cf80d-4266-7117-8a51-54e13c84aca4","","null","
                <div class=""stimulus-container"">
                    <img src=""images/schematic_sequence/dinner_party_scheme/dinner_party_scheme_9.png"" class=""exp-image"">
                    <div class=""question-area""></div> 
                </div>","null","","","","","","","","",""
"","","","","","html-button-response","118","434643","0.0-118.0","66C79932EC414CBA86F0BDD4898E06B8","019cf80f-fd19-7e9d-b527-283e2847ce6f","019cf80d-4266-7117-8a51-54e13c84aca4","","null","
                <div class=""stimulus-container"">
                    <img src=""images/schematic_sequence/dinner_party_scheme/dinner_party_scheme_9.png"" class=""exp-image"">
                    <div class=""question-area"">
                        <p style=""font-size: 20px; font-weight: bold; margin: 0;"">Is there a person in this image?</p>
                    </div>
                </div>","null","main_experiment_trial","9","dinner_party_scheme","schematic_sequence","","","","",""
"","","","","","html-keyboard-response","119","439657","0.0-119.0","66C79932EC414CBA86F0BDD4898E06B8","019cf80f-fd19-7e9d-b527-283e2847ce6f","019cf80d-4266-7117-8a51-54e13c84aca4","","null","
                <div class=""stimulus-container"">
                    <img src=""images/schematic_sequence/dinner_party_scheme/dinner_party_scheme_ten.png"" class=""exp-image"">
                    <div class=""question-area""></div> 
                </div>","null","","","","","","","","",""
"","","","","","html-button-response","120","442665","0.0-120.0","66C79932EC414CBA86F0BDD4898E06B8","019cf80f-fd19-7e9d-b527-283e2847ce6f","019cf80d-4266-7117-8a51-54e13c84aca4","","null","
                <div class=""stimulus-container"">
                    <img src=""images/schematic_sequence/dinner_party_scheme/dinner_party_scheme_ten.png"" class=""exp-image"">
                    <div class=""question-area"">
                        <p style=""font-size: 20px; font-weight: bold; margin: 0;"">Is there a person in this image?</p>
                    </div>
                </div>","null","main_experiment_trial","ten","dinner_party_scheme","schematic_sequence","","","","",""
"","","","","","html-keyboard-response","121","443675","0.0-121.0","66C79932EC414CBA86F0BDD4898E06B8","019cf80f-fd19-7e9d-b527-283e2847ce6f","019cf80d-4266-7117-8a51-54e13c84aca4","","null","<div style=""background-color: white; width: 100vw; height: 100vh;""></div>","null","","","","","","","","",""
"","","","","","html-keyboard-response","122","448691","0.0-122.0","66C79932EC414CBA86F0BDD4898E06B8","019cf80f-fd19-7e9d-b527-283e2847ce6f","019cf80d-4266-7117-8a51-54e13c84aca4","","null","
                <div class=""stimulus-container"">
                    <img src=""images/semantic_sequence/using_technology_semantic/using_technology_semantic_1.png"" class=""exp-image"">
                    <div class=""question-area""></div> 
                </div>","null","","","","","","","","",""
"","","","","","html-button-response","123","449708","0.0-123.0","66C79932EC414CBA86F0BDD4898E06B8","019cf80f-fd19-7e9d-b527-283e2847ce6f","019cf80d-4266-7117-8a51-54e13c84aca4","","1016","
                <div class=""stimulus-container"">
                    <img src=""images/semantic_sequence/using_technology_semantic/using_technology_semantic_1.png"" class=""exp-image"">
                    <div class=""question-area"">
                        <p style=""font-size: 20px; font-weight: bold; margin: 0;"">Is there a person in this image?</p>
                    </div>
                </div>","0","main_experiment_trial","1","using_technology_semantic","semantic_sequence","","","","",""
"","","","","","html-keyboard-response","124","454708","0.0-124.0","66C79932EC414CBA86F0BDD4898E06B8","019cf80f-fd19-7e9d-b527-283e2847ce6f","019cf80d-4266-7117-8a51-54e13c84aca4","","null","
                <div class=""stimulus-container"">
                    <img src=""images/semantic_sequence/using_technology_semantic/using_technology_semantic_2.png"" class=""exp-image"">
                    <div class=""question-area""></div> 
                </div>","null","","","","","","","","",""
"","","","","","html-button-response","125","457540","0.0-125.0","66C79932EC414CBA86F0BDD4898E06B8","019cf80f-fd19-7e9d-b527-283e2847ce6f","019cf80d-4266-7117-8a51-54e13c84aca4","","2830","
                <div class=""stimulus-container"">
                    <img src=""images/semantic_sequence/using_technology_semantic/using_technology_semantic_2.png"" class=""exp-image"">
                    <div class=""question-area"">
                        <p style=""font-size: 20px; font-weight: bold; margin: 0;"">Is there a person in this image?</p>
                    </div>
                </div>","0","main_experiment_trial","2","using_technology_semantic","semantic_sequence","","","","",""
"","","","","","html-keyboard-response","126","462541","0.0-126.0","66C79932EC414CBA86F0BDD4898E06B8","019cf80f-fd19-7e9d-b527-283e2847ce6f","019cf80d-4266-7117-8a51-54e13c84aca4","","null","
                <div class=""stimulus-container"">
                    <img src=""images/semantic_sequence/using_technology_semantic/using_technology_semantic_3.png"" class=""exp-image"">
                    <div class=""question-area""></div> 
                </div>","null","","","","","","","","",""
"","","","","","html-button-response","127","463434","0.0-127.0","66C79932EC414CBA86F0BDD4898E06B8","019cf80f-fd19-7e9d-b527-283e2847ce6f","019cf80d-4266-7117-8a51-54e13c84aca4","","892","
                <div class=""stimulus-container"">
                    <img src=""images/semantic_sequence/using_technology_semantic/using_technology_semantic_3.png"" class=""exp-image"">
                    <div class=""question-area"">
                        <p style=""font-size: 20px; font-weight: bold; margin: 0;"">Is there a person in this image?</p>
                    </div>
                </div>","0","main_experiment_trial","3","using_technology_semantic","semantic_sequence","","","","",""
"","","","","","html-keyboard-response","128","468443","0.0-128.0","66C79932EC414CBA86F0BDD4898E06B8","019cf80f-fd19-7e9d-b527-283e2847ce6f","019cf80d-4266-7117-8a51-54e13c84aca4","","null","
                <div class=""stimulus-container"">
                    <img src=""images/semantic_sequence/using_technology_semantic/using_technology_semantic_4.png"" class=""exp-image"">
                    <div class=""question-area""></div> 
                </div>","null","","","","","","","","",""
"","","","","","html-button-response","129","469266","0.0-129.0","66C79932EC414CBA86F0BDD4898E06B8","019cf80f-fd19-7e9d-b527-283e2847ce6f","019cf80d-4266-7117-8a51-54e13c84aca4","","821","
                <div class=""stimulus-container"">
                    <img src=""images/semantic_sequence/using_technology_semantic/using_technology_semantic_4.png"" class=""exp-image"">
                    <div class=""question-area"">
                        <p style=""font-size: 20px; font-weight: bold; margin: 0;"">Is there a person in this image?</p>
                    </div>
                </div>","0","main_experiment_trial","4","using_technology_semantic","semantic_sequence","","","","",""
"","","","","","html-keyboard-response","130","474269","0.0-130.0","66C79932EC414CBA86F0BDD4898E06B8","019cf80f-fd19-7e9d-b527-283e2847ce6f","019cf80d-4266-7117-8a51-54e13c84aca4","","null","
                <div class=""stimulus-container"">
                    <img src=""images/semantic_sequence/using_technology_semantic/using_technology_semantic_5.png"" class=""exp-image"">
                    <div class=""question-area""></div> 
                </div>","null","","","","","","","","",""
"","","","","","html-button-response","131","475432","0.0-131.0","66C79932EC414CBA86F0BDD4898E06B8","019cf80f-fd19-7e9d-b527-283e2847ce6f","019cf80d-4266-7117-8a51-54e13c84aca4","","1162","
                <div class=""stimulus-container"">
                    <img src=""images/semantic_sequence/using_technology_semantic/using_technology_semantic_5.png"" class=""exp-image"">
                    <div class=""question-area"">
                        <p style=""font-size: 20px; font-weight: bold; margin: 0;"">Is there a person in this image?</p>
                    </div>
                </div>","0","main_experiment_trial","5","using_technology_semantic","semantic_sequence","","","","",""
"","","","","","html-keyboard-response","132","480444","0.0-132.0","66C79932EC414CBA86F0BDD4898E06B8","019cf80f-fd19-7e9d-b527-283e2847ce6f","019cf80d-4266-7117-8a51-54e13c84aca4","","null","
                <div class=""stimulus-container"">
                    <img src=""images/semantic_sequence/using_technology_semantic/using_technology_semantic_6.png"" class=""exp-image"">
                    <div class=""question-area""></div> 
                </div>","null","","","","","","","","",""
"","","","","","html-button-response","133","483448","0.0-133.0","66C79932EC414CBA86F0BDD4898E06B8","019cf80f-fd19-7e9d-b527-283e2847ce6f","019cf80d-4266-7117-8a51-54e13c84aca4","","null","
                <div class=""stimulus-container"">
                    <img src=""images/semantic_sequence/using_technology_semantic/using_technology_semantic_6.png"" class=""exp-image"">
                    <div class=""question-area"">
                        <p style=""font-size: 20px; font-weight: bold; margin: 0;"">Is there a person in this image?</p>
                    </div>
                </div>","null","main_experiment_trial","6","using_technology_semantic","semantic_sequence","","","","",""
"","","","","","html-keyboard-response","134","488452","0.0-134.0","66C79932EC414CBA86F0BDD4898E06B8","019cf80f-fd19-7e9d-b527-283e2847ce6f","019cf80d-4266-7117-8a51-54e13c84aca4","","null","
                <div class=""stimulus-container"">
                    <img src=""images/semantic_sequence/using_technology_semantic/using_technology_semantic_7.png"" class=""exp-image"">
                    <div class=""question-area""></div> 
                </div>","null","","","","","","","","",""
"","","","","","html-button-response","135","489455","0.0-135.0","66C79932EC414CBA86F0BDD4898E06B8","019cf80f-fd19-7e9d-b527-283e2847ce6f","019cf80d-4266-7117-8a51-54e13c84aca4","","1002","
                <div class=""stimulus-container"">
                    <img src=""images/semantic_sequence/using_technology_semantic/using_technology_semantic_7.png"" class=""exp-image"">
                    <div class=""question-area"">
                        <p style=""font-size: 20px; font-weight: bold; margin: 0;"">Is there a person in this image?</p>
                    </div>
                </div>","0","main_experiment_trial","7","using_technology_semantic","semantic_sequence","","","","",""
"","","","","","html-keyboard-response","136","494467","0.0-136.0","66C79932EC414CBA86F0BDD4898E06B8","019cf80f-fd19-7e9d-b527-283e2847ce6f","019cf80d-4266-7117-8a51-54e13c84aca4","","null","
                <div class=""stimulus-container"">
                    <img src=""images/semantic_sequence/using_technology_semantic/using_technology_semantic_8.png"" class=""exp-image"">
                    <div class=""question-area""></div> 
                </div>","null","","","","","","","","",""
"","","","","","html-button-response","137","495128","0.0-137.0","66C79932EC414CBA86F0BDD4898E06B8","019cf80f-fd19-7e9d-b527-283e2847ce6f","019cf80d-4266-7117-8a51-54e13c84aca4","","660","
                <div class=""stimulus-container"">
                    <img src=""images/semantic_sequence/using_technology_semantic/using_technology_semantic_8.png"" class=""exp-image"">
                    <div class=""question-area"">
                        <p style=""font-size: 20px; font-weight: bold; margin: 0;"">Is there a person in this image?</p>
                    </div>
                </div>","0","main_experiment_trial","8","using_technology_semantic","semantic_sequence","","","","",""
"","","","","","html-keyboard-response","138","500129","0.0-138.0","66C79932EC414CBA86F0BDD4898E06B8","019cf80f-fd19-7e9d-b527-283e2847ce6f","019cf80d-4266-7117-8a51-54e13c84aca4","","null","
                <div class=""stimulus-container"">
                    <img src=""images/semantic_sequence/using_technology_semantic/using_technology_semantic_9.png"" class=""exp-image"">
                    <div class=""question-area""></div> 
                </div>","null","","","","","","","","",""
"","","","","","html-button-response","139","500775","0.0-139.0","66C79932EC414CBA86F0BDD4898E06B8","019cf80f-fd19-7e9d-b527-283e2847ce6f","019cf80d-4266-7117-8a51-54e13c84aca4","","645","
                <div class=""stimulus-container"">
                    <img src=""images/semantic_sequence/using_technology_semantic/using_technology_semantic_9.png"" class=""exp-image"">
                    <div class=""question-area"">
                        <p style=""font-size: 20px; font-weight: bold; margin: 0;"">Is there a person in this image?</p>
                    </div>
                </div>","0","main_experiment_trial","9","using_technology_semantic","semantic_sequence","","","","",""
"","","","","","html-keyboard-response","140","505778","0.0-140.0","66C79932EC414CBA86F0BDD4898E06B8","019cf80f-fd19-7e9d-b527-283e2847ce6f","019cf80d-4266-7117-8a51-54e13c84aca4","","null","
                <div class=""stimulus-container"">
                    <img src=""images/semantic_sequence/using_technology_semantic/using_technology_semantic_ten.png"" class=""exp-image"">
                    <div class=""question-area""></div> 
                </div>","null","","","","","","","","",""
"","","","","","html-button-response","141","507762","0.0-141.0","66C79932EC414CBA86F0BDD4898E06B8","019cf80f-fd19-7e9d-b527-283e2847ce6f","019cf80d-4266-7117-8a51-54e13c84aca4","","1983","
                <div class=""stimulus-container"">
                    <img src=""images/semantic_sequence/using_technology_semantic/using_technology_semantic_ten.png"" class=""exp-image"">
                    <div class=""question-area"">
                        <p style=""font-size: 20px; font-weight: bold; margin: 0;"">Is there a person in this image?</p>
                    </div>
                </div>","0","main_experiment_trial","ten","using_technology_semantic","semantic_sequence","","","","",""
"","","","","","html-keyboard-response","142","508772","0.0-142.0","66C79932EC414CBA86F0BDD4898E06B8","019cf80f-fd19-7e9d-b527-283e2847ce6f","019cf80d-4266-7117-8a51-54e13c84aca4","","null","<div style=""background-color: white; width: 100vw; height: 100vh;""></div>","null","","","","","","","","",""
"","","","","","html-keyboard-response","143","513787","0.0-143.0","66C79932EC414CBA86F0BDD4898E06B8","019cf80f-fd19-7e9d-b527-283e2847ce6f","019cf80d-4266-7117-8a51-54e13c84aca4","","null","
                <div class=""stimulus-container"">
                    <img src=""images/schematic_sequence/restaurant_scheme/restaurant_scheme_1.png"" class=""exp-image"">
                    <div class=""question-area""></div> 
                </div>","null","","","","","","","","",""
"","","","","","html-button-response","144","515073","0.0-144.0","66C79932EC414CBA86F0BDD4898E06B8","019cf80f-fd19-7e9d-b527-283e2847ce6f","019cf80d-4266-7117-8a51-54e13c84aca4","","1286","
                <div class=""stimulus-container"">
                    <img src=""images/schematic_sequence/restaurant_scheme/restaurant_scheme_1.png"" class=""exp-image"">
                    <div class=""question-area"">
                        <p style=""font-size: 20px; font-weight: bold; margin: 0;"">Is there a person in this image?</p>
                    </div>
                </div>","0","main_experiment_trial","1","restaurant_scheme","schematic_sequence","","","","",""
"","","","","","html-keyboard-response","145","520083","0.0-145.0","66C79932EC414CBA86F0BDD4898E06B8","019cf80f-fd19-7e9d-b527-283e2847ce6f","019cf80d-4266-7117-8a51-54e13c84aca4","","null","
                <div class=""stimulus-container"">
                    <img src=""images/schematic_sequence/restaurant_scheme/restaurant_scheme_2.png"" class=""exp-image"">
                    <div class=""question-area""></div> 
                </div>","null","","","","","","","","",""
"","","","","","html-button-response","146","522421","0.0-146.0","66C79932EC414CBA86F0BDD4898E06B8","019cf80f-fd19-7e9d-b527-283e2847ce6f","019cf80d-4266-7117-8a51-54e13c84aca4","","2338","
                <div class=""stimulus-container"">
                    <img src=""images/schematic_sequence/restaurant_scheme/restaurant_scheme_2.png"" class=""exp-image"">
                    <div class=""question-area"">
                        <p style=""font-size: 20px; font-weight: bold; margin: 0;"">Is there a person in this image?</p>
                    </div>
                </div>","1","main_experiment_trial","2","restaurant_scheme","schematic_sequence","","","","",""
"","","","","","html-keyboard-response","147","527431","0.0-147.0","66C79932EC414CBA86F0BDD4898E06B8","019cf80f-fd19-7e9d-b527-283e2847ce6f","019cf80d-4266-7117-8a51-54e13c84aca4","","null","
                <div class=""stimulus-container"">
                    <img src=""images/schematic_sequence/restaurant_scheme/restaurant_scheme_3.png"" class=""exp-image"">
                    <div class=""question-area""></div> 
                </div>","null","","","","","","","","",""
"","","","","","html-button-response","148","530441","0.0-148.0","66C79932EC414CBA86F0BDD4898E06B8","019cf80f-fd19-7e9d-b527-283e2847ce6f","019cf80d-4266-7117-8a51-54e13c84aca4","","null","
                <div class=""stimulus-container"">
                    <img src=""images/schematic_sequence/restaurant_scheme/restaurant_scheme_3.png"" class=""exp-image"">
                    <div class=""question-area"">
                        <p style=""font-size: 20px; font-weight: bold; margin: 0;"">Is there a person in this image?</p>
                    </div>
                </div>","null","main_experiment_trial","3","restaurant_scheme","schematic_sequence","","","","",""
"","","","","","html-keyboard-response","149","535457","0.0-149.0","66C79932EC414CBA86F0BDD4898E06B8","019cf80f-fd19-7e9d-b527-283e2847ce6f","019cf80d-4266-7117-8a51-54e13c84aca4","","null","
                <div class=""stimulus-container"">
                    <img src=""images/schematic_sequence/restaurant_scheme/restaurant_scheme_4.png"" class=""exp-image"">
                    <div class=""question-area""></div> 
                </div>","null","","","","","","","","",""
"","","","","","html-button-response","150","536351","0.0-150.0","66C79932EC414CBA86F0BDD4898E06B8","019cf80f-fd19-7e9d-b527-283e2847ce6f","019cf80d-4266-7117-8a51-54e13c84aca4","","893","
                <div class=""stimulus-container"">
                    <img src=""images/schematic_sequence/restaurant_scheme/restaurant_scheme_4.png"" class=""exp-image"">
                    <div class=""question-area"">
                        <p style=""font-size: 20px; font-weight: bold; margin: 0;"">Is there a person in this image?</p>
                    </div>
                </div>","0","main_experiment_trial","4","restaurant_scheme","schematic_sequence","","","","",""
"","","","","","html-keyboard-response","151","541360","0.0-151.0","66C79932EC414CBA86F0BDD4898E06B8","019cf80f-fd19-7e9d-b527-283e2847ce6f","019cf80d-4266-7117-8a51-54e13c84aca4","","null","
                <div class=""stimulus-container"">
                    <img src=""images/schematic_sequence/restaurant_scheme/restaurant_scheme_5.png"" class=""exp-image"">
                    <div class=""question-area""></div> 
                </div>","null","","","","","","","","",""
"","","","","","html-button-response","152","541969","0.0-152.0","66C79932EC414CBA86F0BDD4898E06B8","019cf80f-fd19-7e9d-b527-283e2847ce6f","019cf80d-4266-7117-8a51-54e13c84aca4","","609","
                <div class=""stimulus-container"">
                    <img src=""images/schematic_sequence/restaurant_scheme/restaurant_scheme_5.png"" class=""exp-image"">
                    <div class=""question-area"">
                        <p style=""font-size: 20px; font-weight: bold; margin: 0;"">Is there a person in this image?</p>
                    </div>
                </div>","0","main_experiment_trial","5","restaurant_scheme","schematic_sequence","","","","",""
"","","","","","html-keyboard-response","153","546972","0.0-153.0","66C79932EC414CBA86F0BDD4898E06B8","019cf80f-fd19-7e9d-b527-283e2847ce6f","019cf80d-4266-7117-8a51-54e13c84aca4","","null","
                <div class=""stimulus-container"">
                    <img src=""images/schematic_sequence/restaurant_scheme/restaurant_scheme_6.png"" class=""exp-image"">
                    <div class=""question-area""></div> 
                </div>","null","","","","","","","","",""
"","","","","","html-button-response","154","548175","0.0-154.0","66C79932EC414CBA86F0BDD4898E06B8","019cf80f-fd19-7e9d-b527-283e2847ce6f","019cf80d-4266-7117-8a51-54e13c84aca4","","1203","
                <div class=""stimulus-container"">
                    <img src=""images/schematic_sequence/restaurant_scheme/restaurant_scheme_6.png"" class=""exp-image"">
                    <div class=""question-area"">
                        <p style=""font-size: 20px; font-weight: bold; margin: 0;"">Is there a person in this image?</p>
                    </div>
                </div>","1","main_experiment_trial","6","restaurant_scheme","schematic_sequence","","","","",""
"","","","","","html-keyboard-response","155","553192","0.0-155.0","66C79932EC414CBA86F0BDD4898E06B8","019cf80f-fd19-7e9d-b527-283e2847ce6f","019cf80d-4266-7117-8a51-54e13c84aca4","","null","
                <div class=""stimulus-container"">
                    <img src=""images/schematic_sequence/restaurant_scheme/restaurant_scheme_7.png"" class=""exp-image"">
                    <div class=""question-area""></div> 
                </div>","null","","","","","","","","",""
"","","","","","html-button-response","156","554428","0.0-156.0","66C79932EC414CBA86F0BDD4898E06B8","019cf80f-fd19-7e9d-b527-283e2847ce6f","019cf80d-4266-7117-8a51-54e13c84aca4","","1235","
                <div class=""stimulus-container"">
                    <img src=""images/schematic_sequence/restaurant_scheme/restaurant_scheme_7.png"" class=""exp-image"">
                    <div class=""question-area"">
                        <p style=""font-size: 20px; font-weight: bold; margin: 0;"">Is there a person in this image?</p>
                    </div>
                </div>","1","main_experiment_trial","7","restaurant_scheme","schematic_sequence","","","","",""
"","","","","","html-keyboard-response","157","559437","0.0-157.0","66C79932EC414CBA86F0BDD4898E06B8","019cf80f-fd19-7e9d-b527-283e2847ce6f","019cf80d-4266-7117-8a51-54e13c84aca4","","null","
                <div class=""stimulus-container"">
                    <img src=""images/schematic_sequence/restaurant_scheme/restaurant_scheme_8.png"" class=""exp-image"">
                    <div class=""question-area""></div> 
                </div>","null","","","","","","","","",""
"","","","","","html-button-response","158","561090","0.0-158.0","66C79932EC414CBA86F0BDD4898E06B8","019cf80f-fd19-7e9d-b527-283e2847ce6f","019cf80d-4266-7117-8a51-54e13c84aca4","","1652","
                <div class=""stimulus-container"">
                    <img src=""images/schematic_sequence/restaurant_scheme/restaurant_scheme_8.png"" class=""exp-image"">
                    <div class=""question-area"">
                        <p style=""font-size: 20px; font-weight: bold; margin: 0;"">Is there a person in this image?</p>
                    </div>
                </div>","1","main_experiment_trial","8","restaurant_scheme","schematic_sequence","","","","",""
"","","","","","html-keyboard-response","159","566106","0.0-159.0","66C79932EC414CBA86F0BDD4898E06B8","019cf80f-fd19-7e9d-b527-283e2847ce6f","019cf80d-4266-7117-8a51-54e13c84aca4","","null","
                <div class=""stimulus-container"">
                    <img src=""images/schematic_sequence/restaurant_scheme/restaurant_scheme_9.png"" class=""exp-image"">
                    <div class=""question-area""></div> 
                </div>","null","","","","","","","","",""
"","","","","","html-button-response","160","567803","0.0-160.0","66C79932EC414CBA86F0BDD4898E06B8","019cf80f-fd19-7e9d-b527-283e2847ce6f","019cf80d-4266-7117-8a51-54e13c84aca4","","1697","
                <div class=""stimulus-container"">
                    <img src=""images/schematic_sequence/restaurant_scheme/restaurant_scheme_9.png"" class=""exp-image"">
                    <div class=""question-area"">
                        <p style=""font-size: 20px; font-weight: bold; margin: 0;"">Is there a person in this image?</p>
                    </div>
                </div>","0","main_experiment_trial","9","restaurant_scheme","schematic_sequence","","","","",""
"","","","","","html-keyboard-response","161","572818","0.0-161.0","66C79932EC414CBA86F0BDD4898E06B8","019cf80f-fd19-7e9d-b527-283e2847ce6f","019cf80d-4266-7117-8a51-54e13c84aca4","","null","
                <div class=""stimulus-container"">
                    <img src=""images/schematic_sequence/restaurant_scheme/restaurant_scheme_ten.png"" class=""exp-image"">
                    <div class=""question-area""></div> 
                </div>","null","","","","","","","","",""
"","","","","","html-button-response","162","574005","0.0-162.0","66C79932EC414CBA86F0BDD4898E06B8","019cf80f-fd19-7e9d-b527-283e2847ce6f","019cf80d-4266-7117-8a51-54e13c84aca4","","1186","
                <div class=""stimulus-container"">
                    <img src=""images/schematic_sequence/restaurant_scheme/restaurant_scheme_ten.png"" class=""exp-image"">
                    <div class=""question-area"">
                        <p style=""font-size: 20px; font-weight: bold; margin: 0;"">Is there a person in this image?</p>
                    </div>
                </div>","0","main_experiment_trial","ten","restaurant_scheme","schematic_sequence","","","","",""
"","","","","","html-keyboard-response","163","575018","0.0-163.0","66C79932EC414CBA86F0BDD4898E06B8","019cf80f-fd19-7e9d-b527-283e2847ce6f","019cf80d-4266-7117-8a51-54e13c84aca4","","null","<div style=""background-color: white; width: 100vw; height: 100vh;""></div>","null","","","","","","","","",""
"","","","","","html-keyboard-response","164","580029","0.0-164.0","66C79932EC414CBA86F0BDD4898E06B8","019cf80f-fd19-7e9d-b527-283e2847ce6f","019cf80d-4266-7117-8a51-54e13c84aca4","","null","
                <div class=""stimulus-container"">
                    <img src=""images/schematic_sequence/hotel_scheme/hotel_scheme_1.png"" class=""exp-image"">
                    <div class=""question-area""></div> 
                </div>","null","","","","","","","","",""
"","","","","","html-button-response","165","581068","0.0-165.0","66C79932EC414CBA86F0BDD4898E06B8","019cf80f-fd19-7e9d-b527-283e2847ce6f","019cf80d-4266-7117-8a51-54e13c84aca4","","1038","
                <div class=""stimulus-container"">
                    <img src=""images/schematic_sequence/hotel_scheme/hotel_scheme_1.png"" class=""exp-image"">
                    <div class=""question-area"">
                        <p style=""font-size: 20px; font-weight: bold; margin: 0;"">Is there a person in this image?</p>
                    </div>
                </div>","1","main_experiment_trial","1","hotel_scheme","schematic_sequence","","","","",""
"","","","","","html-keyboard-response","166","586069","0.0-166.0","66C79932EC414CBA86F0BDD4898E06B8","019cf80f-fd19-7e9d-b527-283e2847ce6f","019cf80d-4266-7117-8a51-54e13c84aca4","","null","
                <div class=""stimulus-container"">
                    <img src=""images/schematic_sequence/hotel_scheme/hotel_scheme_2.png"" class=""exp-image"">
                    <div class=""question-area""></div> 
                </div>","null","","","","","","","","",""
"","","","","","html-button-response","167","587117","0.0-167.0","66C79932EC414CBA86F0BDD4898E06B8","019cf80f-fd19-7e9d-b527-283e2847ce6f","019cf80d-4266-7117-8a51-54e13c84aca4","","1047","
                <div class=""stimulus-container"">
                    <img src=""images/schematic_sequence/hotel_scheme/hotel_scheme_2.png"" class=""exp-image"">
                    <div class=""question-area"">
                        <p style=""font-size: 20px; font-weight: bold; margin: 0;"">Is there a person in this image?</p>
                    </div>
                </div>","0","main_experiment_trial","2","hotel_scheme","schematic_sequence","","","","",""
"","","","","","html-keyboard-response","168","592130","0.0-168.0","66C79932EC414CBA86F0BDD4898E06B8","019cf80f-fd19-7e9d-b527-283e2847ce6f","019cf80d-4266-7117-8a51-54e13c84aca4","","null","
                <div class=""stimulus-container"">
                    <img src=""images/schematic_sequence/hotel_scheme/hotel_scheme_3.png"" class=""exp-image"">
                    <div class=""question-area""></div> 
                </div>","null","","","","","","","","",""
"","","","","","html-button-response","169","592699","0.0-169.0","66C79932EC414CBA86F0BDD4898E06B8","019cf80f-fd19-7e9d-b527-283e2847ce6f","019cf80d-4266-7117-8a51-54e13c84aca4","","568","
                <div class=""stimulus-container"">
                    <img src=""images/schematic_sequence/hotel_scheme/hotel_scheme_3.png"" class=""exp-image"">
                    <div class=""question-area"">
                        <p style=""font-size: 20px; font-weight: bold; margin: 0;"">Is there a person in this image?</p>
                    </div>
                </div>","0","main_experiment_trial","3","hotel_scheme","schematic_sequence","","","","",""
"","","","","","html-keyboard-response","170","597714","0.0-170.0","66C79932EC414CBA86F0BDD4898E06B8","019cf80f-fd19-7e9d-b527-283e2847ce6f","019cf80d-4266-7117-8a51-54e13c84aca4","","null","
                <div class=""stimulus-container"">
                    <img src=""images/schematic_sequence/hotel_scheme/hotel_scheme_4.png"" class=""exp-image"">
                    <div class=""question-area""></div> 
                </div>","null","","","","","","","","",""
"","","","","","html-button-response","171","598449","0.0-171.0","66C79932EC414CBA86F0BDD4898E06B8","019cf80f-fd19-7e9d-b527-283e2847ce6f","019cf80d-4266-7117-8a51-54e13c84aca4","","733","
                <div class=""stimulus-container"">
                    <img src=""images/schematic_sequence/hotel_scheme/hotel_scheme_4.png"" class=""exp-image"">
                    <div class=""question-area"">
                        <p style=""font-size: 20px; font-weight: bold; margin: 0;"">Is there a person in this image?</p>
                    </div>
                </div>","1","main_experiment_trial","4","hotel_scheme","schematic_sequence","","","","",""
"","","","","","html-keyboard-response","172","603465","0.0-172.0","66C79932EC414CBA86F0BDD4898E06B8","019cf80f-fd19-7e9d-b527-283e2847ce6f","019cf80d-4266-7117-8a51-54e13c84aca4","","null","
                <div class=""stimulus-container"">
                    <img src=""images/schematic_sequence/hotel_scheme/hotel_scheme_5.png"" class=""exp-image"">
                    <div class=""question-area""></div> 
                </div>","null","","","","","","","","",""
"","","","","","html-button-response","173","604391","0.0-173.0","66C79932EC414CBA86F0BDD4898E06B8","019cf80f-fd19-7e9d-b527-283e2847ce6f","019cf80d-4266-7117-8a51-54e13c84aca4","","925","
                <div class=""stimulus-container"">
                    <img src=""images/schematic_sequence/hotel_scheme/hotel_scheme_5.png"" class=""exp-image"">
                    <div class=""question-area"">
                        <p style=""font-size: 20px; font-weight: bold; margin: 0;"">Is there a person in this image?</p>
                    </div>
                </div>","0","main_experiment_trial","5","hotel_scheme","schematic_sequence","","","","",""
"","","","","","html-keyboard-response","174","609406","0.0-174.0","66C79932EC414CBA86F0BDD4898E06B8","019cf80f-fd19-7e9d-b527-283e2847ce6f","019cf80d-4266-7117-8a51-54e13c84aca4","","null","
                <div class=""stimulus-container"">
                    <img src=""images/schematic_sequence/hotel_scheme/hotel_scheme_6.png"" class=""exp-image"">
                    <div class=""question-area""></div> 
                </div>","null","","","","","","","","",""
"","","","","","html-button-response","175","610261","0.0-175.0","66C79932EC414CBA86F0BDD4898E06B8","019cf80f-fd19-7e9d-b527-283e2847ce6f","019cf80d-4266-7117-8a51-54e13c84aca4","","854","
                <div class=""stimulus-container"">
                    <img src=""images/schematic_sequence/hotel_scheme/hotel_scheme_6.png"" class=""exp-image"">
                    <div class=""question-area"">
                        <p style=""font-size: 20px; font-weight: bold; margin: 0;"">Is there a person in this image?</p>
                    </div>
                </div>","0","main_experiment_trial","6","hotel_scheme","schematic_sequence","","","","",""
"","","","","","html-keyboard-response","176","615275","0.0-176.0","66C79932EC414CBA86F0BDD4898E06B8","019cf80f-fd19-7e9d-b527-283e2847ce6f","019cf80d-4266-7117-8a51-54e13c84aca4","","null","
                <div class=""stimulus-container"">
                    <img src=""images/schematic_sequence/hotel_scheme/hotel_scheme_7.png"" class=""exp-image"">
                    <div class=""question-area""></div> 
                </div>","null","","","","","","","","",""
"","","","","","html-button-response","177","615823","0.0-177.0","66C79932EC414CBA86F0BDD4898E06B8","019cf80f-fd19-7e9d-b527-283e2847ce6f","019cf80d-4266-7117-8a51-54e13c84aca4","","548","
                <div class=""stimulus-container"">
                    <img src=""images/schematic_sequence/hotel_scheme/hotel_scheme_7.png"" class=""exp-image"">
                    <div class=""question-area"">
                        <p style=""font-size: 20px; font-weight: bold; margin: 0;"">Is there a person in this image?</p>
                    </div>
                </div>","0","main_experiment_trial","7","hotel_scheme","schematic_sequence","","","","",""
"","","","","","html-keyboard-response","178","620836","0.0-178.0","66C79932EC414CBA86F0BDD4898E06B8","019cf80f-fd19-7e9d-b527-283e2847ce6f","019cf80d-4266-7117-8a51-54e13c84aca4","","null","
                <div class=""stimulus-container"">
                    <img src=""images/schematic_sequence/hotel_scheme/hotel_scheme_8.png"" class=""exp-image"">
                    <div class=""question-area""></div> 
                </div>","null","","","","","","","","",""
"","","","","","html-button-response","179","621309","0.0-179.0","66C79932EC414CBA86F0BDD4898E06B8","019cf80f-fd19-7e9d-b527-283e2847ce6f","019cf80d-4266-7117-8a51-54e13c84aca4","","470","
                <div class=""stimulus-container"">
                    <img src=""images/schematic_sequence/hotel_scheme/hotel_scheme_8.png"" class=""exp-image"">
                    <div class=""question-area"">
                        <p style=""font-size: 20px; font-weight: bold; margin: 0;"">Is there a person in this image?</p>
                    </div>
                </div>","0","main_experiment_trial","8","hotel_scheme","schematic_sequence","","","","",""
"","","","","","html-keyboard-response","180","626321","0.0-180.0","66C79932EC414CBA86F0BDD4898E06B8","019cf80f-fd19-7e9d-b527-283e2847ce6f","019cf80d-4266-7117-8a51-54e13c84aca4","","null","
                <div class=""stimulus-container"">
                    <img src=""images/schematic_sequence/hotel_scheme/hotel_scheme_9.png"" class=""exp-image"">
                    <div class=""question-area""></div> 
                </div>","null","","","","","","","","",""
"","","","","","html-button-response","181","627141","0.0-181.0","66C79932EC414CBA86F0BDD4898E06B8","019cf80f-fd19-7e9d-b527-283e2847ce6f","019cf80d-4266-7117-8a51-54e13c84aca4","","819","
                <div class=""stimulus-container"">
