"success","timeout","failed_images","failed_audio","failed_video","trial_type","trial_index","time_elapsed","internal_node_id","subject_id","study_id","session_id","view_history","rt","stimulus","response","task","image_index","folder","sequence_type","presentation_order","valuable_image_index","reward_type","distance_from_x","target_X","chosen_image_index","is_x_plus_dist","correct_choice"
"true","false","[]","[]","[]","preload","0","2408","0.0-0.0","3684B7AA011B49AB851560B323FED266","019cfc44-a445-718c-bca8-9cfdb5a57891","019cfc28-2143-7934-89cc-ce6402563331","","","","","","","","","","","","","","","",""
"","","","","","instructions","1","3954","0.0-1.0","3684B7AA011B49AB851560B323FED266","019cfc44-a445-718c-bca8-9cfdb5a57891","019cfc28-2143-7934-89cc-ce6402563331","[{""page_index"":0,""viewing_time"":1545}]","1545","","","","","","","","","","","","","",""
"","","","","","instructions","2","6073","0.0-2.0","3684B7AA011B49AB851560B323FED266","019cfc44-a445-718c-bca8-9cfdb5a57891","019cfc28-2143-7934-89cc-ce6402563331","[{""page_index"":0,""viewing_time"":2119}]","2119","","","","","","","","","","","","","",""
"true","","","","","fullscreen","3","8115","0.0-3.0","3684B7AA011B49AB851560B323FED266","019cfc44-a445-718c-bca8-9cfdb5a57891","019cfc28-2143-7934-89cc-ce6402563331","","1037","","","","","","","","","","","","","",""
"","","","","","instructions","4","14151","0.0-4.0","3684B7AA011B49AB851560B323FED266","019cfc44-a445-718c-bca8-9cfdb5a57891","019cfc28-2143-7934-89cc-ce6402563331","[{""page_index"":0,""viewing_time"":6036}]","6036","","","","","","","","","","","","","",""
"","","","","","instructions","5","27607","0.0-5.0","3684B7AA011B49AB851560B323FED266","019cfc44-a445-718c-bca8-9cfdb5a57891","019cfc28-2143-7934-89cc-ce6402563331","[{""page_index"":0,""viewing_time"":13456}]","13456","","","","","","","","","","","","","",""
"","","","","","html-keyboard-response","6","31616","0.0-6.0","3684B7AA011B49AB851560B323FED266","019cfc44-a445-718c-bca8-9cfdb5a57891","019cfc28-2143-7934-89cc-ce6402563331","","null","
                <div class=""stimulus-container"">
                    <img src=""images/instructions/movie_1.png"" class=""exp-image"">
                    <div class=""question-area""></div> 
                </div>","null","","","","","","","","","","","",""
"","","","","","html-button-response","7","32970","0.0-7.0","3684B7AA011B49AB851560B323FED266","019cfc44-a445-718c-bca8-9cfdb5a57891","019cfc28-2143-7934-89cc-ce6402563331","","1354","
                <div class=""stimulus-container"">
                    <img src=""images/instructions/movie_1.png"" class=""exp-image"">
                    <div class=""question-area"">
                        <p style=""font-size: 20px; font-weight: bold; margin: 0;"">Was there a person in this image?</p>
                    </div>
                </div>","0","example_question","1","","","","","","","","","",""
"","","","","","html-keyboard-response","8","36974","0.0-8.0","3684B7AA011B49AB851560B323FED266","019cfc44-a445-718c-bca8-9cfdb5a57891","019cfc28-2143-7934-89cc-ce6402563331","","null","
                <div class=""stimulus-container"">
                    <img src=""images/instructions/movie_2.png"" class=""exp-image"">
                    <div class=""question-area""></div> 
                </div>","null","","","","","","","","","","","",""
"","","","","","html-button-response","9","37739","0.0-9.0","3684B7AA011B49AB851560B323FED266","019cfc44-a445-718c-bca8-9cfdb5a57891","019cfc28-2143-7934-89cc-ce6402563331","","764","
                <div class=""stimulus-container"">
                    <img src=""images/instructions/movie_2.png"" class=""exp-image"">
                    <div class=""question-area"">
                        <p style=""font-size: 20px; font-weight: bold; margin: 0;"">Was there a person in this image?</p>
                    </div>
                </div>","0","example_question","2","","","","","","","","","",""
"","","","","","html-keyboard-response","10","41754","0.0-10.0","3684B7AA011B49AB851560B323FED266","019cfc44-a445-718c-bca8-9cfdb5a57891","019cfc28-2143-7934-89cc-ce6402563331","","null","
                <div class=""stimulus-container"">
                    <img src=""images/instructions/movie_3.png"" class=""exp-image"">
                    <div class=""question-area""></div> 
                </div>","null","","","","","","","","","","","",""
"","","","","","html-button-response","11","42510","0.0-11.0","3684B7AA011B49AB851560B323FED266","019cfc44-a445-718c-bca8-9cfdb5a57891","019cfc28-2143-7934-89cc-ce6402563331","","756","
                <div class=""stimulus-container"">
                    <img src=""images/instructions/movie_3.png"" class=""exp-image"">
                    <div class=""question-area"">
                        <p style=""font-size: 20px; font-weight: bold; margin: 0;"">Was there a person in this image?</p>
                    </div>
                </div>","0","example_question","3","","","","","","","","","",""
"","","","","","html-keyboard-response","12","46524","0.0-12.0","3684B7AA011B49AB851560B323FED266","019cfc44-a445-718c-bca8-9cfdb5a57891","019cfc28-2143-7934-89cc-ce6402563331","","null","
                <div class=""stimulus-container"">
                    <img src=""images/instructions/movie_4.png"" class=""exp-image"">
                    <div class=""question-area""></div> 
                </div>","null","","","","","","","","","","","",""
"","","","","","html-button-response","13","46879","0.0-13.0","3684B7AA011B49AB851560B323FED266","019cfc44-a445-718c-bca8-9cfdb5a57891","019cfc28-2143-7934-89cc-ce6402563331","","355","
                <div class=""stimulus-container"">
                    <img src=""images/instructions/movie_4.png"" class=""exp-image"">
                    <div class=""question-area"">
                        <p style=""font-size: 20px; font-weight: bold; margin: 0;"">Was there a person in this image?</p>
                    </div>
                </div>","0","example_question","4","","","","","","","","","",""
"","","","","","instructions","14","49236","0.0-14.0","3684B7AA011B49AB851560B323FED266","019cfc44-a445-718c-bca8-9cfdb5a57891","019cfc28-2143-7934-89cc-ce6402563331","[{""page_index"":0,""viewing_time"":2356}]","2356","","","","","","","","","","","","","",""
"","","","","","instructions","15","54680","0.0-15.0","3684B7AA011B49AB851560B323FED266","019cfc44-a445-718c-bca8-9cfdb5a57891","019cfc28-2143-7934-89cc-ce6402563331","[{""page_index"":0,""viewing_time"":5444}]","5444","","","","","","","","","","","","","",""
"","","","","","html-keyboard-response","16","59684","0.0-16.0","3684B7AA011B49AB851560B323FED266","019cfc44-a445-718c-bca8-9cfdb5a57891","019cfc28-2143-7934-89cc-ce6402563331","","null","<div style=""background-color: white; width: 100vw; height: 100vh;""></div>","null","","","","","","","","","","","",""
"","","","","","html-keyboard-response","17","64692","0.0-17.0","3684B7AA011B49AB851560B323FED266","019cfc44-a445-718c-bca8-9cfdb5a57891","019cfc28-2143-7934-89cc-ce6402563331","","null","
                <div class=""stimulus-container"">
                    <img src=""images/semantic_sequence/creative_activities_semantic/creative_activities_semantic_1.png"" class=""exp-image"">
                    <div class=""question-area""></div> 
                </div>","null","","","","","","","","","","","",""
"","","","","","html-button-response","18","65888","0.0-18.0","3684B7AA011B49AB851560B323FED266","019cfc44-a445-718c-bca8-9cfdb5a57891","019cfc28-2143-7934-89cc-ce6402563331","","1195","
                <div class=""stimulus-container"">
                    <img src=""images/semantic_sequence/creative_activities_semantic/creative_activities_semantic_1.png"" class=""exp-image"">
                    <div class=""question-area"">
                        <p style=""font-size: 20px; font-weight: bold; margin: 0;"">Is there a person in this image?</p>
                    </div>
                </div>","0","main_experiment_trial","1","creative_activities_semantic","semantic_sequence","chronological","","","","","","",""
"","","","","","html-keyboard-response","19","70900","0.0-19.0","3684B7AA011B49AB851560B323FED266","019cfc44-a445-718c-bca8-9cfdb5a57891","019cfc28-2143-7934-89cc-ce6402563331","","null","
                <div class=""stimulus-container"">
                    <img src=""images/semantic_sequence/creative_activities_semantic/creative_activities_semantic_2.png"" class=""exp-image"">
                    <div class=""question-area""></div> 
                </div>","null","","","","","","","","","","","",""
"","","","","","html-button-response","20","72779","0.0-20.0","3684B7AA011B49AB851560B323FED266","019cfc44-a445-718c-bca8-9cfdb5a57891","019cfc28-2143-7934-89cc-ce6402563331","","1879","
                <div class=""stimulus-container"">
                    <img src=""images/semantic_sequence/creative_activities_semantic/creative_activities_semantic_2.png"" class=""exp-image"">
                    <div class=""question-area"">
                        <p style=""font-size: 20px; font-weight: bold; margin: 0;"">Is there a person in this image?</p>
                    </div>
                </div>","0","main_experiment_trial","2","creative_activities_semantic","semantic_sequence","chronological","","","","","","",""
"","","","","","html-keyboard-response","21","77780","0.0-21.0","3684B7AA011B49AB851560B323FED266","019cfc44-a445-718c-bca8-9cfdb5a57891","019cfc28-2143-7934-89cc-ce6402563331","","null","
                <div class=""stimulus-container"">
                    <img src=""images/semantic_sequence/creative_activities_semantic/creative_activities_semantic_3.png"" class=""exp-image"">
                    <div class=""question-area""></div> 
                </div>","null","","","","","","","","","","","",""
"","","","","","html-button-response","22","78699","0.0-22.0","3684B7AA011B49AB851560B323FED266","019cfc44-a445-718c-bca8-9cfdb5a57891","019cfc28-2143-7934-89cc-ce6402563331","","919","
                <div class=""stimulus-container"">
                    <img src=""images/semantic_sequence/creative_activities_semantic/creative_activities_semantic_3.png"" class=""exp-image"">
                    <div class=""question-area"">
                        <p style=""font-size: 20px; font-weight: bold; margin: 0;"">Is there a person in this image?</p>
                    </div>
                </div>","0","main_experiment_trial","3","creative_activities_semantic","semantic_sequence","chronological","","","","","","",""
"","","","","","html-keyboard-response","23","83700","0.0-23.0","3684B7AA011B49AB851560B323FED266","019cfc44-a445-718c-bca8-9cfdb5a57891","019cfc28-2143-7934-89cc-ce6402563331","","null","
                <div class=""stimulus-container"">
                    <img src=""images/semantic_sequence/creative_activities_semantic/creative_activities_semantic_4.png"" class=""exp-image"">
                    <div class=""question-area""></div> 
                </div>","null","","","","","","","","","","","",""
"","","","","","html-button-response","24","84147","0.0-24.0","3684B7AA011B49AB851560B323FED266","019cfc44-a445-718c-bca8-9cfdb5a57891","019cfc28-2143-7934-89cc-ce6402563331","","447","
                <div class=""stimulus-container"">
                    <img src=""images/semantic_sequence/creative_activities_semantic/creative_activities_semantic_4.png"" class=""exp-image"">
                    <div class=""question-area"">
                        <p style=""font-size: 20px; font-weight: bold; margin: 0;"">Is there a person in this image?</p>
                    </div>
                </div>","0","main_experiment_trial","4","creative_activities_semantic","semantic_sequence","chronological","","","","","","",""
"","","","","","html-keyboard-response","25","89148","0.0-25.0","3684B7AA011B49AB851560B323FED266","019cfc44-a445-718c-bca8-9cfdb5a57891","019cfc28-2143-7934-89cc-ce6402563331","","null","
                <div class=""stimulus-container"">
                    <img src=""images/semantic_sequence/creative_activities_semantic/creative_activities_semantic_5.png"" class=""exp-image"">
                    <div class=""question-area""></div> 
                </div>","null","","","","","","","","","","","",""
"","","","","","html-button-response","26","89693","0.0-26.0","3684B7AA011B49AB851560B323FED266","019cfc44-a445-718c-bca8-9cfdb5a57891","019cfc28-2143-7934-89cc-ce6402563331","","544","
                <div class=""stimulus-container"">
                    <img src=""images/semantic_sequence/creative_activities_semantic/creative_activities_semantic_5.png"" class=""exp-image"">
                    <div class=""question-area"">
                        <p style=""font-size: 20px; font-weight: bold; margin: 0;"">Is there a person in this image?</p>
                    </div>
                </div>","0","main_experiment_trial","5","creative_activities_semantic","semantic_sequence","chronological","","","","","","",""
"","","","","","html-keyboard-response","27","94700","0.0-27.0","3684B7AA011B49AB851560B323FED266","019cfc44-a445-718c-bca8-9cfdb5a57891","019cfc28-2143-7934-89cc-ce6402563331","","null","
                <div class=""stimulus-container"">
                    <img src=""images/semantic_sequence/creative_activities_semantic/creative_activities_semantic_6.png"" class=""exp-image"">
                    <div class=""question-area""></div> 
                </div>","null","","","","","","","","","","","",""
"","","","","","html-button-response","28","95407","0.0-28.0","3684B7AA011B49AB851560B323FED266","019cfc44-a445-718c-bca8-9cfdb5a57891","019cfc28-2143-7934-89cc-ce6402563331","","707","
                <div class=""stimulus-container"">
                    <img src=""images/semantic_sequence/creative_activities_semantic/creative_activities_semantic_6.png"" class=""exp-image"">
                    <div class=""question-area"">
                        <p style=""font-size: 20px; font-weight: bold; margin: 0;"">Is there a person in this image?</p>
                    </div>
                </div>","0","main_experiment_trial","6","creative_activities_semantic","semantic_sequence","chronological","","","","","","",""
"","","","","","html-keyboard-response","29","100408","0.0-29.0","3684B7AA011B49AB851560B323FED266","019cfc44-a445-718c-bca8-9cfdb5a57891","019cfc28-2143-7934-89cc-ce6402563331","","null","
                <div class=""stimulus-container"">
                    <img src=""images/semantic_sequence/creative_activities_semantic/creative_activities_semantic_7.png"" class=""exp-image"">
                    <div class=""question-area""></div> 
                </div>","null","","","","","","","","","","","",""
"","","","","","html-button-response","30","101214","0.0-30.0","3684B7AA011B49AB851560B323FED266","019cfc44-a445-718c-bca8-9cfdb5a57891","019cfc28-2143-7934-89cc-ce6402563331","","805","
                <div class=""stimulus-container"">
                    <img src=""images/semantic_sequence/creative_activities_semantic/creative_activities_semantic_7.png"" class=""exp-image"">
                    <div class=""question-area"">
                        <p style=""font-size: 20px; font-weight: bold; margin: 0;"">Is there a person in this image?</p>
                    </div>
                </div>","0","main_experiment_trial","7","creative_activities_semantic","semantic_sequence","chronological","","","","","","",""
"","","","","","html-keyboard-response","31","106216","0.0-31.0","3684B7AA011B49AB851560B323FED266","019cfc44-a445-718c-bca8-9cfdb5a57891","019cfc28-2143-7934-89cc-ce6402563331","","null","
                <div class=""stimulus-container"">
                    <img src=""images/semantic_sequence/creative_activities_semantic/creative_activities_semantic_8.png"" class=""exp-image"">
                    <div class=""question-area""></div> 
                </div>","null","","","","","","","","","","","",""
"","","","","","html-button-response","32","106884","0.0-32.0","3684B7AA011B49AB851560B323FED266","019cfc44-a445-718c-bca8-9cfdb5a57891","019cfc28-2143-7934-89cc-ce6402563331","","668","
                <div class=""stimulus-container"">
                    <img src=""images/semantic_sequence/creative_activities_semantic/creative_activities_semantic_8.png"" class=""exp-image"">
                    <div class=""question-area"">
                        <p style=""font-size: 20px; font-weight: bold; margin: 0;"">Is there a person in this image?</p>
                    </div>
                </div>","0","main_experiment_trial","8","creative_activities_semantic","semantic_sequence","chronological","","","","","","",""
"","","","","","html-keyboard-response","33","111901","0.0-33.0","3684B7AA011B49AB851560B323FED266","019cfc44-a445-718c-bca8-9cfdb5a57891","019cfc28-2143-7934-89cc-ce6402563331","","null","
                <div class=""stimulus-container"">
                    <img src=""images/semantic_sequence/creative_activities_semantic/creative_activities_semantic_9.png"" class=""exp-image"">
                    <div class=""question-area""></div> 
                </div>","null","","","","","","","","","","","",""
"","","","","","html-button-response","34","112707","0.0-34.0","3684B7AA011B49AB851560B323FED266","019cfc44-a445-718c-bca8-9cfdb5a57891","019cfc28-2143-7934-89cc-ce6402563331","","806","
                <div class=""stimulus-container"">
                    <img src=""images/semantic_sequence/creative_activities_semantic/creative_activities_semantic_9.png"" class=""exp-image"">
                    <div class=""question-area"">
                        <p style=""font-size: 20px; font-weight: bold; margin: 0;"">Is there a person in this image?</p>
                    </div>
                </div>","0","main_experiment_trial","9","creative_activities_semantic","semantic_sequence","chronological","","","","","","",""
"","","","","","html-keyboard-response","35","117719","0.0-35.0","3684B7AA011B49AB851560B323FED266","019cfc44-a445-718c-bca8-9cfdb5a57891","019cfc28-2143-7934-89cc-ce6402563331","","null","
                <div class=""stimulus-container"">
                    <img src=""images/semantic_sequence/creative_activities_semantic/creative_activities_semantic_ten.png"" class=""exp-image"">
                    <div class=""question-area""></div> 
                </div>","null","","","","","","","","","","","",""
"","","","","","html-button-response","36","118214","0.0-36.0","3684B7AA011B49AB851560B323FED266","019cfc44-a445-718c-bca8-9cfdb5a57891","019cfc28-2143-7934-89cc-ce6402563331","","494","
                <div class=""stimulus-container"">
                    <img src=""images/semantic_sequence/creative_activities_semantic/creative_activities_semantic_ten.png"" class=""exp-image"">
                    <div class=""question-area"">
                        <p style=""font-size: 20px; font-weight: bold; margin: 0;"">Is there a person in this image?</p>
                    </div>
                </div>","0","main_experiment_trial","ten","creative_activities_semantic","semantic_sequence","chronological","","","","","","",""
"","","","","","html-keyboard-response","37","123219","0.0-37.0","3684B7AA011B49AB851560B323FED266","019cfc44-a445-718c-bca8-9cfdb5a57891","019cfc28-2143-7934-89cc-ce6402563331","","null","<div style=""background-color: white; width: 100vw; height: 100vh;""></div>","null","","","","","","","","","","","",""
"","","","","","html-keyboard-response","38","128220","0.0-38.0","3684B7AA011B49AB851560B323FED266","019cfc44-a445-718c-bca8-9cfdb5a57891","019cfc28-2143-7934-89cc-ce6402563331","","null","
                <div class=""stimulus-container"">
                    <img src=""images/schematic_sequence/restaurant_scheme/restaurant_scheme_1.png"" class=""exp-image"">
                    <div class=""question-area""></div> 
                </div>","null","","","","","","","","","","","",""
"","","","","","html-button-response","39","128656","0.0-39.0","3684B7AA011B49AB851560B323FED266","019cfc44-a445-718c-bca8-9cfdb5a57891","019cfc28-2143-7934-89cc-ce6402563331","","436","
                <div class=""stimulus-container"">
                    <img src=""images/schematic_sequence/restaurant_scheme/restaurant_scheme_1.png"" class=""exp-image"">
                    <div class=""question-area"">
                        <p style=""font-size: 20px; font-weight: bold; margin: 0;"">Is there a person in this image?</p>
                    </div>
                </div>","0","main_experiment_trial","1","restaurant_scheme","schematic_sequence","chronological","","","","","","",""
"","","","","","html-keyboard-response","40","133661","0.0-40.0","3684B7AA011B49AB851560B323FED266","019cfc44-a445-718c-bca8-9cfdb5a57891","019cfc28-2143-7934-89cc-ce6402563331","","null","
                <div class=""stimulus-container"">
                    <img src=""images/schematic_sequence/restaurant_scheme/restaurant_scheme_2.png"" class=""exp-image"">
                    <div class=""question-area""></div> 
                </div>","null","","","","","","","","","","","",""
"","","","","","html-button-response","41","134259","0.0-41.0","3684B7AA011B49AB851560B323FED266","019cfc44-a445-718c-bca8-9cfdb5a57891","019cfc28-2143-7934-89cc-ce6402563331","","598","
                <div class=""stimulus-container"">
                    <img src=""images/schematic_sequence/restaurant_scheme/restaurant_scheme_2.png"" class=""exp-image"">
                    <div class=""question-area"">
                        <p style=""font-size: 20px; font-weight: bold; margin: 0;"">Is there a person in this image?</p>
                    </div>
                </div>","1","main_experiment_trial","2","restaurant_scheme","schematic_sequence","chronological","","","","","","",""
"","","","","","html-keyboard-response","42","139267","0.0-42.0","3684B7AA011B49AB851560B323FED266","019cfc44-a445-718c-bca8-9cfdb5a57891","019cfc28-2143-7934-89cc-ce6402563331","","null","
                <div class=""stimulus-container"">
                    <img src=""images/schematic_sequence/restaurant_scheme/restaurant_scheme_3.png"" class=""exp-image"">
                    <div class=""question-area""></div> 
                </div>","null","","","","","","","","","","","",""
"","","","","","html-button-response","43","139717","0.0-43.0","3684B7AA011B49AB851560B323FED266","019cfc44-a445-718c-bca8-9cfdb5a57891","019cfc28-2143-7934-89cc-ce6402563331","","449","
                <div class=""stimulus-container"">
                    <img src=""images/schematic_sequence/restaurant_scheme/restaurant_scheme_3.png"" class=""exp-image"">
                    <div class=""question-area"">
                        <p style=""font-size: 20px; font-weight: bold; margin: 0;"">Is there a person in this image?</p>
                    </div>
                </div>","1","main_experiment_trial","3","restaurant_scheme","schematic_sequence","chronological","","","","","","",""
"","","","","","html-keyboard-response","44","144724","0.0-44.0","3684B7AA011B49AB851560B323FED266","019cfc44-a445-718c-bca8-9cfdb5a57891","019cfc28-2143-7934-89cc-ce6402563331","","null","
                <div class=""stimulus-container"">
                    <img src=""images/schematic_sequence/restaurant_scheme/restaurant_scheme_4.png"" class=""exp-image"">
                    <div class=""question-area""></div> 
                </div>","null","","","","","","","","","","","",""
"","","","","","html-button-response","45","145486","0.0-45.0","3684B7AA011B49AB851560B323FED266","019cfc44-a445-718c-bca8-9cfdb5a57891","019cfc28-2143-7934-89cc-ce6402563331","","762","
                <div class=""stimulus-container"">
                    <img src=""images/schematic_sequence/restaurant_scheme/restaurant_scheme_4.png"" class=""exp-image"">
                    <div class=""question-area"">
                        <p style=""font-size: 20px; font-weight: bold; margin: 0;"">Is there a person in this image?</p>
                    </div>
                </div>","0","main_experiment_trial","4","restaurant_scheme","schematic_sequence","chronological","","","","","","",""
"","","","","","html-keyboard-response","46","150492","0.0-46.0","3684B7AA011B49AB851560B323FED266","019cfc44-a445-718c-bca8-9cfdb5a57891","019cfc28-2143-7934-89cc-ce6402563331","","null","
                <div class=""stimulus-container"">
                    <img src=""images/schematic_sequence/restaurant_scheme/restaurant_scheme_5.png"" class=""exp-image"">
                    <div class=""question-area""></div> 
                </div>","null","","","","","","","","","","","",""
"","","","","","html-button-response","47","150864","0.0-47.0","3684B7AA011B49AB851560B323FED266","019cfc44-a445-718c-bca8-9cfdb5a57891","019cfc28-2143-7934-89cc-ce6402563331","","372","
                <div class=""stimulus-container"">
                    <img src=""images/schematic_sequence/restaurant_scheme/restaurant_scheme_5.png"" class=""exp-image"">
                    <div class=""question-area"">
                        <p style=""font-size: 20px; font-weight: bold; margin: 0;"">Is there a person in this image?</p>
                    </div>
                </div>","0","main_experiment_trial","5","restaurant_scheme","schematic_sequence","chronological","","","","","","",""
"","","","","","html-keyboard-response","48","155868","0.0-48.0","3684B7AA011B49AB851560B323FED266","019cfc44-a445-718c-bca8-9cfdb5a57891","019cfc28-2143-7934-89cc-ce6402563331","","null","
                <div class=""stimulus-container"">
                    <img src=""images/schematic_sequence/restaurant_scheme/restaurant_scheme_6.png"" class=""exp-image"">
                    <div class=""question-area""></div> 
                </div>","null","","","","","","","","","","","",""
"","","","","","html-button-response","49","156258","0.0-49.0","3684B7AA011B49AB851560B323FED266","019cfc44-a445-718c-bca8-9cfdb5a57891","019cfc28-2143-7934-89cc-ce6402563331","","390","
                <div class=""stimulus-container"">
                    <img src=""images/schematic_sequence/restaurant_scheme/restaurant_scheme_6.png"" class=""exp-image"">
                    <div class=""question-area"">
                        <p style=""font-size: 20px; font-weight: bold; margin: 0;"">Is there a person in this image?</p>
                    </div>
                </div>","1","main_experiment_trial","6","restaurant_scheme","schematic_sequence","chronological","","","","","","",""
"","","","","","html-keyboard-response","50","161267","0.0-50.0","3684B7AA011B49AB851560B323FED266","019cfc44-a445-718c-bca8-9cfdb5a57891","019cfc28-2143-7934-89cc-ce6402563331","","null","
                <div class=""stimulus-container"">
                    <img src=""images/schematic_sequence/restaurant_scheme/restaurant_scheme_7.png"" class=""exp-image"">
                    <div class=""question-area""></div> 
                </div>","null","","","","","","","","","","","",""
"","","","","","html-button-response","51","161717","0.0-51.0","3684B7AA011B49AB851560B323FED266","019cfc44-a445-718c-bca8-9cfdb5a57891","019cfc28-2143-7934-89cc-ce6402563331","","449","
                <div class=""stimulus-container"">
                    <img src=""images/schematic_sequence/restaurant_scheme/restaurant_scheme_7.png"" class=""exp-image"">
                    <div class=""question-area"">
                        <p style=""font-size: 20px; font-weight: bold; margin: 0;"">Is there a person in this image?</p>
                    </div>
                </div>","1","main_experiment_trial","7","restaurant_scheme","schematic_sequence","chronological","","","","","","",""
"","","","","","html-keyboard-response","52","166721","0.0-52.0","3684B7AA011B49AB851560B323FED266","019cfc44-a445-718c-bca8-9cfdb5a57891","019cfc28-2143-7934-89cc-ce6402563331","","null","
                <div class=""stimulus-container"">
                    <img src=""images/schematic_sequence/restaurant_scheme/restaurant_scheme_8.png"" class=""exp-image"">
                    <div class=""question-area""></div> 
                </div>","null","","","","","","","","","","","",""
"","","","","","html-button-response","53","167281","0.0-53.0","3684B7AA011B49AB851560B323FED266","019cfc44-a445-718c-bca8-9cfdb5a57891","019cfc28-2143-7934-89cc-ce6402563331","","559","
                <div class=""stimulus-container"">
                    <img src=""images/schematic_sequence/restaurant_scheme/restaurant_scheme_8.png"" class=""exp-image"">
                    <div class=""question-area"">
                        <p style=""font-size: 20px; font-weight: bold; margin: 0;"">Is there a person in this image?</p>
                    </div>
                </div>","0","main_experiment_trial","8","restaurant_scheme","schematic_sequence","chronological","","","","","","",""
"","","","","","html-keyboard-response","54","172289","0.0-54.0","3684B7AA011B49AB851560B323FED266","019cfc44-a445-718c-bca8-9cfdb5a57891","019cfc28-2143-7934-89cc-ce6402563331","","null","
                <div class=""stimulus-container"">
                    <img src=""images/schematic_sequence/restaurant_scheme/restaurant_scheme_9.png"" class=""exp-image"">
                    <div class=""question-area""></div> 
                </div>","null","","","","","","","","","","","",""
"","","","","","html-button-response","55","172648","0.0-55.0","3684B7AA011B49AB851560B323FED266","019cfc44-a445-718c-bca8-9cfdb5a57891","019cfc28-2143-7934-89cc-ce6402563331","","358","
                <div class=""stimulus-container"">
                    <img src=""images/schematic_sequence/restaurant_scheme/restaurant_scheme_9.png"" class=""exp-image"">
                    <div class=""question-area"">
                        <p style=""font-size: 20px; font-weight: bold; margin: 0;"">Is there a person in this image?</p>
                    </div>
                </div>","0","main_experiment_trial","9","restaurant_scheme","schematic_sequence","chronological","","","","","","",""
"","","","","","html-keyboard-response","56","177649","0.0-56.0","3684B7AA011B49AB851560B323FED266","019cfc44-a445-718c-bca8-9cfdb5a57891","019cfc28-2143-7934-89cc-ce6402563331","","null","
                <div class=""stimulus-container"">
                    <img src=""images/schematic_sequence/restaurant_scheme/restaurant_scheme_ten.png"" class=""exp-image"">
                    <div class=""question-area""></div> 
                </div>","null","","","","","","","","","","","",""
"","","","","","html-button-response","57","177964","0.0-57.0","3684B7AA011B49AB851560B323FED266","019cfc44-a445-718c-bca8-9cfdb5a57891","019cfc28-2143-7934-89cc-ce6402563331","","314","
                <div class=""stimulus-container"">
                    <img src=""images/schematic_sequence/restaurant_scheme/restaurant_scheme_ten.png"" class=""exp-image"">
                    <div class=""question-area"">
                        <p style=""font-size: 20px; font-weight: bold; margin: 0;"">Is there a person in this image?</p>
                    </div>
                </div>","0","main_experiment_trial","ten","restaurant_scheme","schematic_sequence","chronological","","","","","","",""
"","","","","","html-keyboard-response","58","182977","0.0-58.0","3684B7AA011B49AB851560B323FED266","019cfc44-a445-718c-bca8-9cfdb5a57891","019cfc28-2143-7934-89cc-ce6402563331","","null","<div style=""background-color: white; width: 100vw; height: 100vh;""></div>","null","","","","","","","","","","","",""
"","","","","","html-keyboard-response","59","187985","0.0-59.0","3684B7AA011B49AB851560B323FED266","019cfc44-a445-718c-bca8-9cfdb5a57891","019cfc28-2143-7934-89cc-ce6402563331","","null","
                <div class=""stimulus-container"">
                    <img src=""images/schematic_sequence/interview_scheme/interview_scheme_1.png"" class=""exp-image"">
                    <div class=""question-area""></div> 
                </div>","null","","","","","","","","","","","",""
"","","","","","html-button-response","60","188824","0.0-60.0","3684B7AA011B49AB851560B323FED266","019cfc44-a445-718c-bca8-9cfdb5a57891","019cfc28-2143-7934-89cc-ce6402563331","","839","
                <div class=""stimulus-container"">
                    <img src=""images/schematic_sequence/interview_scheme/interview_scheme_1.png"" class=""exp-image"">
                    <div class=""question-area"">
                        <p style=""font-size: 20px; font-weight: bold; margin: 0;"">Is there a person in this image?</p>
                    </div>
                </div>","1","main_experiment_trial","1","interview_scheme","schematic_sequence","chronological","","","","","","",""
"","","","","","html-keyboard-response","61","193825","0.0-61.0","3684B7AA011B49AB851560B323FED266","019cfc44-a445-718c-bca8-9cfdb5a57891","019cfc28-2143-7934-89cc-ce6402563331","","null","
                <div class=""stimulus-container"">
                    <img src=""images/schematic_sequence/interview_scheme/interview_scheme_2.png"" class=""exp-image"">
                    <div class=""question-area""></div> 
                </div>","null","","","","","","","","","","","",""
"","","","","","html-button-response","62","194594","0.0-62.0","3684B7AA011B49AB851560B323FED266","019cfc44-a445-718c-bca8-9cfdb5a57891","019cfc28-2143-7934-89cc-ce6402563331","","769","
                <div class=""stimulus-container"">
                    <img src=""images/schematic_sequence/interview_scheme/interview_scheme_2.png"" class=""exp-image"">
                    <div class=""question-area"">
                        <p style=""font-size: 20px; font-weight: bold; margin: 0;"">Is there a person in this image?</p>
                    </div>
                </div>","1","main_experiment_trial","2","interview_scheme","schematic_sequence","chronological","","","","","","",""
"","","","","","html-keyboard-response","63","199601","0.0-63.0","3684B7AA011B49AB851560B323FED266","019cfc44-a445-718c-bca8-9cfdb5a57891","019cfc28-2143-7934-89cc-ce6402563331","","null","
                <div class=""stimulus-container"">
                    <img src=""images/schematic_sequence/interview_scheme/interview_scheme_3.png"" class=""exp-image"">
                    <div class=""question-area""></div> 
                </div>","null","","","","","","","","","","","",""
"","","","","","html-button-response","64","200097","0.0-64.0","3684B7AA011B49AB851560B323FED266","019cfc44-a445-718c-bca8-9cfdb5a57891","019cfc28-2143-7934-89cc-ce6402563331","","496","
                <div class=""stimulus-container"">
                    <img src=""images/schematic_sequence/interview_scheme/interview_scheme_3.png"" class=""exp-image"">
                    <div class=""question-area"">
                        <p style=""font-size: 20px; font-weight: bold; margin: 0;"">Is there a person in this image?</p>
                    </div>
                </div>","1","main_experiment_trial","3","interview_scheme","schematic_sequence","chronological","","","","","","",""
"","","","","","html-keyboard-response","65","205108","0.0-65.0","3684B7AA011B49AB851560B323FED266","019cfc44-a445-718c-bca8-9cfdb5a57891","019cfc28-2143-7934-89cc-ce6402563331","","null","
                <div class=""stimulus-container"">
                    <img src=""images/schematic_sequence/interview_scheme/interview_scheme_4.png"" class=""exp-image"">
                    <div class=""question-area""></div> 
                </div>","null","","","","","","","","","","","",""
"","","","","","html-button-response","66","205528","0.0-66.0","3684B7AA011B49AB851560B323FED266","019cfc44-a445-718c-bca8-9cfdb5a57891","019cfc28-2143-7934-89cc-ce6402563331","","419","
                <div class=""stimulus-container"">
                    <img src=""images/schematic_sequence/interview_scheme/interview_scheme_4.png"" class=""exp-image"">
                    <div class=""question-area"">
                        <p style=""font-size: 20px; font-weight: bold; margin: 0;"">Is there a person in this image?</p>
                    </div>
                </div>","1","main_experiment_trial","4","interview_scheme","schematic_sequence","chronological","","","","","","",""
"","","","","","html-keyboard-response","67","210534","0.0-67.0","3684B7AA011B49AB851560B323FED266","019cfc44-a445-718c-bca8-9cfdb5a57891","019cfc28-2143-7934-89cc-ce6402563331","","null","
                <div class=""stimulus-container"">
                    <img src=""images/schematic_sequence/interview_scheme/interview_scheme_5.png"" class=""exp-image"">
                    <div class=""question-area""></div> 
                </div>","null","","","","","","","","","","","",""
"","","","","","html-button-response","68","210924","0.0-68.0","3684B7AA011B49AB851560B323FED266","019cfc44-a445-718c-bca8-9cfdb5a57891","019cfc28-2143-7934-89cc-ce6402563331","","389","
                <div class=""stimulus-container"">
                    <img src=""images/schematic_sequence/interview_scheme/interview_scheme_5.png"" class=""exp-image"">
                    <div class=""question-area"">
                        <p style=""font-size: 20px; font-weight: bold; margin: 0;"">Is there a person in this image?</p>
                    </div>
                </div>","0","main_experiment_trial","5","interview_scheme","schematic_sequence","chronological","","","","","","",""
"","","","","","html-keyboard-response","69","215929","0.0-69.0","3684B7AA011B49AB851560B323FED266","019cfc44-a445-718c-bca8-9cfdb5a57891","019cfc28-2143-7934-89cc-ce6402563331","","null","
                <div class=""stimulus-container"">
                    <img src=""images/schematic_sequence/interview_scheme/interview_scheme_6.png"" class=""exp-image"">
                    <div class=""question-area""></div> 
                </div>","null","","","","","","","","","","","",""
"","","","","","html-button-response","70","216324","0.0-70.0","3684B7AA011B49AB851560B323FED266","019cfc44-a445-718c-bca8-9cfdb5a57891","019cfc28-2143-7934-89cc-ce6402563331","","394","
                <div class=""stimulus-container"">
                    <img src=""images/schematic_sequence/interview_scheme/interview_scheme_6.png"" class=""exp-image"">
                    <div class=""question-area"">
                        <p style=""font-size: 20px; font-weight: bold; margin: 0;"">Is there a person in this image?</p>
                    </div>
                </div>","0","main_experiment_trial","6","interview_scheme","schematic_sequence","chronological","","","","","","",""
"","","","","","html-keyboard-response","71","221326","0.0-71.0","3684B7AA011B49AB851560B323FED266","019cfc44-a445-718c-bca8-9cfdb5a57891","019cfc28-2143-7934-89cc-ce6402563331","","null","
                <div class=""stimulus-container"">
                    <img src=""images/schematic_sequence/interview_scheme/interview_scheme_7.png"" class=""exp-image"">
                    <div class=""question-area""></div> 
                </div>","null","","","","","","","","","","","",""
"","","","","","html-button-response","72","221979","0.0-72.0","3684B7AA011B49AB851560B323FED266","019cfc44-a445-718c-bca8-9cfdb5a57891","019cfc28-2143-7934-89cc-ce6402563331","","652","
                <div class=""stimulus-container"">
                    <img src=""images/schematic_sequence/interview_scheme/interview_scheme_7.png"" class=""exp-image"">
                    <div class=""question-area"">
                        <p style=""font-size: 20px; font-weight: bold; margin: 0;"">Is there a person in this image?</p>
                    </div>
                </div>","0","main_experiment_trial","7","interview_scheme","schematic_sequence","chronological","","","","","","",""
"","","","","","html-keyboard-response","73","226993","0.0-73.0","3684B7AA011B49AB851560B323FED266","019cfc44-a445-718c-bca8-9cfdb5a57891","019cfc28-2143-7934-89cc-ce6402563331","","null","
                <div class=""stimulus-container"">
                    <img src=""images/schematic_sequence/interview_scheme/interview_scheme_8.png"" class=""exp-image"">
                    <div class=""question-area""></div> 
                </div>","null","","","","","","","","","","","",""
"","","","","","html-button-response","74","227318","0.0-74.0","3684B7AA011B49AB851560B323FED266","019cfc44-a445-718c-bca8-9cfdb5a57891","019cfc28-2143-7934-89cc-ce6402563331","","324","
                <div class=""stimulus-container"">
                    <img src=""images/schematic_sequence/interview_scheme/interview_scheme_8.png"" class=""exp-image"">
                    <div class=""question-area"">
                        <p style=""font-size: 20px; font-weight: bold; margin: 0;"">Is there a person in this image?</p>
                    </div>
                </div>","0","main_experiment_trial","8","interview_scheme","schematic_sequence","chronological","","","","","","",""
"","","","","","html-keyboard-response","75","232321","0.0-75.0","3684B7AA011B49AB851560B323FED266","019cfc44-a445-718c-bca8-9cfdb5a57891","019cfc28-2143-7934-89cc-ce6402563331","","null","
                <div class=""stimulus-container"">
                    <img src=""images/schematic_sequence/interview_scheme/interview_scheme_9.png"" class=""exp-image"">
                    <div class=""question-area""></div> 
                </div>","null","","","","","","","","","","","",""
"","","","","","html-button-response","76","232694","0.0-76.0","3684B7AA011B49AB851560B323FED266","019cfc44-a445-718c-bca8-9cfdb5a57891","019cfc28-2143-7934-89cc-ce6402563331","","372","
                <div class=""stimulus-container"">
                    <img src=""images/schematic_sequence/interview_scheme/interview_scheme_9.png"" class=""exp-image"">
                    <div class=""question-area"">
                        <p style=""font-size: 20px; font-weight: bold; margin: 0;"">Is there a person in this image?</p>
                    </div>
                </div>","0","main_experiment_trial","9","interview_scheme","schematic_sequence","chronological","","","","","","",""
"","","","","","html-keyboard-response","77","237706","0.0-77.0","3684B7AA011B49AB851560B323FED266","019cfc44-a445-718c-bca8-9cfdb5a57891","019cfc28-2143-7934-89cc-ce6402563331","","null","
                <div class=""stimulus-container"">
                    <img src=""images/schematic_sequence/interview_scheme/interview_scheme_ten.png"" class=""exp-image"">
                    <div class=""question-area""></div> 
                </div>","null","","","","","","","","","","","",""
"","","","","","html-button-response","78","238065","0.0-78.0","3684B7AA011B49AB851560B323FED266","019cfc44-a445-718c-bca8-9cfdb5a57891","019cfc28-2143-7934-89cc-ce6402563331","","359","
                <div class=""stimulus-container"">
                    <img src=""images/schematic_sequence/interview_scheme/interview_scheme_ten.png"" class=""exp-image"">
                    <div class=""question-area"">
                        <p style=""font-size: 20px; font-weight: bold; margin: 0;"">Is there a person in this image?</p>
                    </div>
                </div>","0","main_experiment_trial","ten","interview_scheme","schematic_sequence","chronological","","","","","","",""
"","","","","","html-keyboard-response","79","243082","0.0-79.0","3684B7AA011B49AB851560B323FED266","019cfc44-a445-718c-bca8-9cfdb5a57891","019cfc28-2143-7934-89cc-ce6402563331","","null","<div style=""background-color: white; width: 100vw; height: 100vh;""></div>","null","","","","","","","","","","","",""
"","","","","","html-keyboard-response","80","248090","0.0-80.0","3684B7AA011B49AB851560B323FED266","019cfc44-a445-718c-bca8-9cfdb5a57891","019cfc28-2143-7934-89cc-ce6402563331","","null","
                <div class=""stimulus-container"">
                    <img src=""images/semantic_sequence/kitchen_operations_semantic/kitchen_operations_semantic_1.png"" class=""exp-image"">
                    <div class=""question-area""></div> 
                </div>","null","","","","","","","","","","","",""
"","","","","","html-button-response","81","248638","0.0-81.0","3684B7AA011B49AB851560B323FED266","019cfc44-a445-718c-bca8-9cfdb5a57891","019cfc28-2143-7934-89cc-ce6402563331","","548","
                <div class=""stimulus-container"">
                    <img src=""images/semantic_sequence/kitchen_operations_semantic/kitchen_operations_semantic_1.png"" class=""exp-image"">
                    <div class=""question-area"">
                        <p style=""font-size: 20px; font-weight: bold; margin: 0;"">Is there a person in this image?</p>
                    </div>
                </div>","0","main_experiment_trial","1","kitchen_operations_semantic","semantic_sequence","chronological","","","","","","",""
"","","","","","html-keyboard-response","82","253642","0.0-82.0","3684B7AA011B49AB851560B323FED266","019cfc44-a445-718c-bca8-9cfdb5a57891","019cfc28-2143-7934-89cc-ce6402563331","","null","
                <div class=""stimulus-container"">
                    <img src=""images/semantic_sequence/kitchen_operations_semantic/kitchen_operations_semantic_2.png"" class=""exp-image"">
                    <div class=""question-area""></div> 
                </div>","null","","","","","","","","","","","",""
"","","","","","html-button-response","83","254126","0.0-83.0","3684B7AA011B49AB851560B323FED266","019cfc44-a445-718c-bca8-9cfdb5a57891","019cfc28-2143-7934-89cc-ce6402563331","","484","
                <div class=""stimulus-container"">
                    <img src=""images/semantic_sequence/kitchen_operations_semantic/kitchen_operations_semantic_2.png"" class=""exp-image"">
                    <div class=""question-area"">
                        <p style=""font-size: 20px; font-weight: bold; margin: 0;"">Is there a person in this image?</p>
                    </div>
                </div>","0","main_experiment_trial","2","kitchen_operations_semantic","semantic_sequence","chronological","","","","","","",""
"","","","","","html-keyboard-response","84","259133","0.0-84.0","3684B7AA011B49AB851560B323FED266","019cfc44-a445-718c-bca8-9cfdb5a57891","019cfc28-2143-7934-89cc-ce6402563331","","null","
                <div class=""stimulus-container"">
                    <img src=""images/semantic_sequence/kitchen_operations_semantic/kitchen_operations_semantic_3.png"" class=""exp-image"">
                    <div class=""question-area""></div> 
                </div>","null","","","","","","","","","","","",""
"","","","","","html-button-response","85","259559","0.0-85.0","3684B7AA011B49AB851560B323FED266","019cfc44-a445-718c-bca8-9cfdb5a57891","019cfc28-2143-7934-89cc-ce6402563331","","427","
                <div class=""stimulus-container"">
                    <img src=""images/semantic_sequence/kitchen_operations_semantic/kitchen_operations_semantic_3.png"" class=""exp-image"">
                    <div class=""question-area"">
                        <p style=""font-size: 20px; font-weight: bold; margin: 0;"">Is there a person in this image?</p>
                    </div>
                </div>","0","main_experiment_trial","3","kitchen_operations_semantic","semantic_sequence","chronological","","","","","","",""
"","","","","","html-keyboard-response","86","264570","0.0-86.0","3684B7AA011B49AB851560B323FED266","019cfc44-a445-718c-bca8-9cfdb5a57891","019cfc28-2143-7934-89cc-ce6402563331","","null","
                <div class=""stimulus-container"">
                    <img src=""images/semantic_sequence/kitchen_operations_semantic/kitchen_operations_semantic_4.png"" class=""exp-image"">
                    <div class=""question-area""></div> 
                </div>","null","","","","","","","","","","","",""
"","","","","","html-button-response","87","264990","0.0-87.0","3684B7AA011B49AB851560B323FED266","019cfc44-a445-718c-bca8-9cfdb5a57891","019cfc28-2143-7934-89cc-ce6402563331","","419","
                <div class=""stimulus-container"">
                    <img src=""images/semantic_sequence/kitchen_operations_semantic/kitchen_operations_semantic_4.png"" class=""exp-image"">
                    <div class=""question-area"">
                        <p style=""font-size: 20px; font-weight: bold; margin: 0;"">Is there a person in this image?</p>
                    </div>
                </div>","0","main_experiment_trial","4","kitchen_operations_semantic","semantic_sequence","chronological","","","","","","",""
"","","","","","html-keyboard-response","88","270003","0.0-88.0","3684B7AA011B49AB851560B323FED266","019cfc44-a445-718c-bca8-9cfdb5a57891","019cfc28-2143-7934-89cc-ce6402563331","","null","
                <div class=""stimulus-container"">
                    <img src=""images/semantic_sequence/kitchen_operations_semantic/kitchen_operations_semantic_5.png"" class=""exp-image"">
                    <div class=""question-area""></div> 
                </div>","null","","","","","","","","","","","",""
"","","","","","html-button-response","89","270398","0.0-89.0","3684B7AA011B49AB851560B323FED266","019cfc44-a445-718c-bca8-9cfdb5a57891","019cfc28-2143-7934-89cc-ce6402563331","","394","
                <div class=""stimulus-container"">
                    <img src=""images/semantic_sequence/kitchen_operations_semantic/kitchen_operations_semantic_5.png"" class=""exp-image"">
                    <div class=""question-area"">
                        <p style=""font-size: 20px; font-weight: bold; margin: 0;"">Is there a person in this image?</p>
                    </div>
                </div>","0","main_experiment_trial","5","kitchen_operations_semantic","semantic_sequence","chronological","","","","","","",""
"","","","","","html-keyboard-response","90","275402","0.0-90.0","3684B7AA011B49AB851560B323FED266","019cfc44-a445-718c-bca8-9cfdb5a57891","019cfc28-2143-7934-89cc-ce6402563331","","null","
                <div class=""stimulus-container"">
                    <img src=""images/semantic_sequence/kitchen_operations_semantic/kitchen_operations_semantic_6.png"" class=""exp-image"">
                    <div class=""question-area""></div> 
                </div>","null","","","","","","","","","","","",""
"","","","","","html-button-response","91","275810","0.0-91.0","3684B7AA011B49AB851560B323FED266","019cfc44-a445-718c-bca8-9cfdb5a57891","019cfc28-2143-7934-89cc-ce6402563331","","408","
                <div class=""stimulus-container"">
                    <img src=""images/semantic_sequence/kitchen_operations_semantic/kitchen_operations_semantic_6.png"" class=""exp-image"">
                    <div class=""question-area"">
                        <p style=""font-size: 20px; font-weight: bold; margin: 0;"">Is there a person in this image?</p>
                    </div>
                </div>","0","main_experiment_trial","6","kitchen_operations_semantic","semantic_sequence","chronological","","","","","","",""
"","","","","","html-keyboard-response","92","280826","0.0-92.0","3684B7AA011B49AB851560B323FED266","019cfc44-a445-718c-bca8-9cfdb5a57891","019cfc28-2143-7934-89cc-ce6402563331","","null","
                <div class=""stimulus-container"">
                    <img src=""images/semantic_sequence/kitchen_operations_semantic/kitchen_operations_semantic_7.png"" class=""exp-image"">
                    <div class=""question-area""></div> 
                </div>","null","","","","","","","","","","","",""
"","","","","","html-button-response","93","281479","0.0-93.0","3684B7AA011B49AB851560B323FED266","019cfc44-a445-718c-bca8-9cfdb5a57891","019cfc28-2143-7934-89cc-ce6402563331","","653","
                <div class=""stimulus-container"">
                    <img src=""images/semantic_sequence/kitchen_operations_semantic/kitchen_operations_semantic_7.png"" class=""exp-image"">
                    <div class=""question-area"">
                        <p style=""font-size: 20px; font-weight: bold; margin: 0;"">Is there a person in this image?</p>
                    </div>
                </div>","0","main_experiment_trial","7","kitchen_operations_semantic","semantic_sequence","chronological","","","","","","",""
"","","","","","html-keyboard-response","94","286489","0.0-94.0","3684B7AA011B49AB851560B323FED266","019cfc44-a445-718c-bca8-9cfdb5a57891","019cfc28-2143-7934-89cc-ce6402563331","","null","
                <div class=""stimulus-container"">
                    <img src=""images/semantic_sequence/kitchen_operations_semantic/kitchen_operations_semantic_8.png"" class=""exp-image"">
                    <div class=""question-area""></div> 
                </div>","null","","","","","","","","","","","",""
"","","","","","html-button-response","95","286959","0.0-95.0","3684B7AA011B49AB851560B323FED266","019cfc44-a445-718c-bca8-9cfdb5a57891","019cfc28-2143-7934-89cc-ce6402563331","","469","
                <div class=""stimulus-container"">
                    <img src=""images/semantic_sequence/kitchen_operations_semantic/kitchen_operations_semantic_8.png"" class=""exp-image"">
                    <div class=""question-area"">
                        <p style=""font-size: 20px; font-weight: bold; margin: 0;"">Is there a person in this image?</p>
                    </div>
                </div>","0","main_experiment_trial","8","kitchen_operations_semantic","semantic_sequence","chronological","","","","","","",""
"","","","","","html-keyboard-response","96","291966","0.0-96.0","3684B7AA011B49AB851560B323FED266","019cfc44-a445-718c-bca8-9cfdb5a57891","019cfc28-2143-7934-89cc-ce6402563331","","null","
                <div class=""stimulus-container"">
                    <img src=""images/semantic_sequence/kitchen_operations_semantic/kitchen_operations_semantic_9.png"" class=""exp-image"">
                    <div class=""question-area""></div> 
                </div>","null","","","","","","","","","","","",""
"","","","","","html-button-response","97","292401","0.0-97.0","3684B7AA011B49AB851560B323FED266","019cfc44-a445-718c-bca8-9cfdb5a57891","019cfc28-2143-7934-89cc-ce6402563331","","434","
                <div class=""stimulus-container"">
                    <img src=""images/semantic_sequence/kitchen_operations_semantic/kitchen_operations_semantic_9.png"" class=""exp-image"">
                    <div class=""question-area"">
                        <p style=""font-size: 20px; font-weight: bold; margin: 0;"">Is there a person in this image?</p>
                    </div>
                </div>","0","main_experiment_trial","9","kitchen_operations_semantic","semantic_sequence","chronological","","","","","","",""
"","","","","","html-keyboard-response","98","297413","0.0-98.0","3684B7AA011B49AB851560B323FED266","019cfc44-a445-718c-bca8-9cfdb5a57891","019cfc28-2143-7934-89cc-ce6402563331","","null","
                <div class=""stimulus-container"">
                    <img src=""images/semantic_sequence/kitchen_operations_semantic/kitchen_operations_semantic_ten.png"" class=""exp-image"">
                    <div class=""question-area""></div> 
                </div>","null","","","","","","","","","","","",""
"","","","","","html-button-response","99","297984","0.0-99.0","3684B7AA011B49AB851560B323FED266","019cfc44-a445-718c-bca8-9cfdb5a57891","019cfc28-2143-7934-89cc-ce6402563331","","571","
                <div class=""stimulus-container"">
                    <img src=""images/semantic_sequence/kitchen_operations_semantic/kitchen_operations_semantic_ten.png"" class=""exp-image"">
                    <div class=""question-area"">
                        <p style=""font-size: 20px; font-weight: bold; margin: 0;"">Is there a person in this image?</p>
                    </div>
                </div>","0","main_experiment_trial","ten","kitchen_operations_semantic","semantic_sequence","chronological","","","","","","",""
"","","","","","html-keyboard-response","100","302997","0.0-100.0","3684B7AA011B49AB851560B323FED266","019cfc44-a445-718c-bca8-9cfdb5a57891","019cfc28-2143-7934-89cc-ce6402563331","","null","<div style=""background-color: white; width: 100vw; height: 100vh;""></div>","null","","","","","","","","","","","",""
"","","","","","html-keyboard-response","101","308010","0.0-101.0","3684B7AA011B49AB851560B323FED266","019cfc44-a445-718c-bca8-9cfdb5a57891","019cfc28-2143-7934-89cc-ce6402563331","","null","
                <div class=""stimulus-container"">
                    <img src=""images/semantic_sequence/cat_care_semantic/cat_care_semantic_1.png"" class=""exp-image"">
                    <div class=""question-area""></div> 
                </div>","null","","","","","","","","","","","",""
"","","","","","html-button-response","102","308603","0.0-102.0","3684B7AA011B49AB851560B323FED266","019cfc44-a445-718c-bca8-9cfdb5a57891","019cfc28-2143-7934-89cc-ce6402563331","","593","
                <div class=""stimulus-container"">
                    <img src=""images/semantic_sequence/cat_care_semantic/cat_care_semantic_1.png"" class=""exp-image"">
                    <div class=""question-area"">
                        <p style=""font-size: 20px; font-weight: bold; margin: 0;"">Is there a person in this image?</p>
                    </div>
                </div>","0","main_experiment_trial","1","cat_care_semantic","semantic_sequence","chronological","","","","","","",""
"","","","","","html-keyboard-response","103","313617","0.0-103.0","3684B7AA011B49AB851560B323FED266","019cfc44-a445-718c-bca8-9cfdb5a57891","019cfc28-2143-7934-89cc-ce6402563331","","null","
                <div class=""stimulus-container"">
                    <img src=""images/semantic_sequence/cat_care_semantic/cat_care_semantic_2.png"" class=""exp-image"">
                    <div class=""question-area""></div> 
                </div>","null","","","","","","","","","","","",""
"","","","","","html-button-response","104","314297","0.0-104.0","3684B7AA011B49AB851560B323FED266","019cfc44-a445-718c-bca8-9cfdb5a57891","019cfc28-2143-7934-89cc-ce6402563331","","680","
                <div class=""stimulus-container"">
                    <img src=""images/semantic_sequence/cat_care_semantic/cat_care_semantic_2.png"" class=""exp-image"">
                    <div class=""question-area"">
                        <p style=""font-size: 20px; font-weight: bold; margin: 0;"">Is there a person in this image?</p>
                    </div>
                </div>","0","main_experiment_trial","2","cat_care_semantic","semantic_sequence","chronological","","","","","","",""
"","","","","","html-keyboard-response","105","319306","0.0-105.0","3684B7AA011B49AB851560B323FED266","019cfc44-a445-718c-bca8-9cfdb5a57891","019cfc28-2143-7934-89cc-ce6402563331","","null","
                <div class=""stimulus-container"">
                    <img src=""images/semantic_sequence/cat_care_semantic/cat_care_semantic_3.png"" class=""exp-image"">
                    <div class=""question-area""></div> 
                </div>","null","","","","","","","","","","","",""
"","","","","","html-button-response","106","320011","0.0-106.0","3684B7AA011B49AB851560B323FED266","019cfc44-a445-718c-bca8-9cfdb5a57891","019cfc28-2143-7934-89cc-ce6402563331","","705","
                <div class=""stimulus-container"">
                    <img src=""images/semantic_sequence/cat_care_semantic/cat_care_semantic_3.png"" class=""exp-image"">
                    <div class=""question-area"">
                        <p style=""font-size: 20px; font-weight: bold; margin: 0;"">Is there a person in this image?</p>
                    </div>
                </div>","0","main_experiment_trial","3","cat_care_semantic","semantic_sequence","chronological","","","","","","",""
"","","","","","html-keyboard-response","107","325018","0.0-107.0","3684B7AA011B49AB851560B323FED266","019cfc44-a445-718c-bca8-9cfdb5a57891","019cfc28-2143-7934-89cc-ce6402563331","","null","
                <div class=""stimulus-container"">
                    <img src=""images/semantic_sequence/cat_care_semantic/cat_care_semantic_4.png"" class=""exp-image"">
                    <div class=""question-area""></div> 
                </div>","null","","","","","","","","","","","",""
"","","","","","html-button-response","108","325502","0.0-108.0","3684B7AA011B49AB851560B323FED266","019cfc44-a445-718c-bca8-9cfdb5a57891","019cfc28-2143-7934-89cc-ce6402563331","","484","
                <div class=""stimulus-container"">
                    <img src=""images/semantic_sequence/cat_care_semantic/cat_care_semantic_4.png"" class=""exp-image"">
                    <div class=""question-area"">
                        <p style=""font-size: 20px; font-weight: bold; margin: 0;"">Is there a person in this image?</p>
                    </div>
                </div>","0","main_experiment_trial","4","cat_care_semantic","semantic_sequence","chronological","","","","","","",""
"","","","","","html-keyboard-response","109","330506","0.0-109.0","3684B7AA011B49AB851560B323FED266","019cfc44-a445-718c-bca8-9cfdb5a57891","019cfc28-2143-7934-89cc-ce6402563331","","null","
                <div class=""stimulus-container"">
                    <img src=""images/semantic_sequence/cat_care_semantic/cat_care_semantic_5.png"" class=""exp-image"">
                    <div class=""question-area""></div> 
                </div>","null","","","","","","","","","","","",""
"","","","","","html-button-response","110","331199","0.0-110.0","3684B7AA011B49AB851560B323FED266","019cfc44-a445-718c-bca8-9cfdb5a57891","019cfc28-2143-7934-89cc-ce6402563331","","693","
                <div class=""stimulus-container"">
                    <img src=""images/semantic_sequence/cat_care_semantic/cat_care_semantic_5.png"" class=""exp-image"">
                    <div class=""question-area"">
                        <p style=""font-size: 20px; font-weight: bold; margin: 0;"">Is there a person in this image?</p>
                    </div>
                </div>","0","main_experiment_trial","5","cat_care_semantic","semantic_sequence","chronological","","","","","","",""
"","","","","","html-keyboard-response","111","336216","0.0-111.0","3684B7AA011B49AB851560B323FED266","019cfc44-a445-718c-bca8-9cfdb5a57891","019cfc28-2143-7934-89cc-ce6402563331","","null","
                <div class=""stimulus-container"">
                    <img src=""images/semantic_sequence/cat_care_semantic/cat_care_semantic_6.png"" class=""exp-image"">
                    <div class=""question-area""></div> 
                </div>","null","","","","","","","","","","","",""
"","","","","","html-button-response","112","336583","0.0-112.0","3684B7AA011B49AB851560B323FED266","019cfc44-a445-718c-bca8-9cfdb5a57891","019cfc28-2143-7934-89cc-ce6402563331","","366","
                <div class=""stimulus-container"">
                    <img src=""images/semantic_sequence/cat_care_semantic/cat_care_semantic_6.png"" class=""exp-image"">
                    <div class=""question-area"">
                        <p style=""font-size: 20px; font-weight: bold; margin: 0;"">Is there a person in this image?</p>
                    </div>
                </div>","0","main_experiment_trial","6","cat_care_semantic","semantic_sequence","chronological","","","","","","",""
"","","","","","html-keyboard-response","113","341592","0.0-113.0","3684B7AA011B49AB851560B323FED266","019cfc44-a445-718c-bca8-9cfdb5a57891","019cfc28-2143-7934-89cc-ce6402563331","","null","
                <div class=""stimulus-container"">
                    <img src=""images/semantic_sequence/cat_care_semantic/cat_care_semantic_7.png"" class=""exp-image"">
                    <div class=""question-area""></div> 
                </div>","null","","","","","","","","","","","",""
"","","","","","html-button-response","114","342044","0.0-114.0","3684B7AA011B49AB851560B323FED266","019cfc44-a445-718c-bca8-9cfdb5a57891","019cfc28-2143-7934-89cc-ce6402563331","","452","
                <div class=""stimulus-container"">
                    <img src=""images/semantic_sequence/cat_care_semantic/cat_care_semantic_7.png"" class=""exp-image"">
                    <div class=""question-area"">
                        <p style=""font-size: 20px; font-weight: bold; margin: 0;"">Is there a person in this image?</p>
                    </div>
                </div>","0","main_experiment_trial","7","cat_care_semantic","semantic_sequence","chronological","","","","","","",""
"","","","","","html-keyboard-response","115","347049","0.0-115.0","3684B7AA011B49AB851560B323FED266","019cfc44-a445-718c-bca8-9cfdb5a57891","019cfc28-2143-7934-89cc-ce6402563331","","null","
                <div class=""stimulus-container"">
                    <img src=""images/semantic_sequence/cat_care_semantic/cat_care_semantic_8.png"" class=""exp-image"">
                    <div class=""question-area""></div> 
                </div>","null","","","","","","","","","","","",""
"","","","","","html-button-response","116","347495","0.0-116.0","3684B7AA011B49AB851560B323FED266","019cfc44-a445-718c-bca8-9cfdb5a57891","019cfc28-2143-7934-89cc-ce6402563331","","446","
                <div class=""stimulus-container"">
                    <img src=""images/semantic_sequence/cat_care_semantic/cat_care_semantic_8.png"" class=""exp-image"">
                    <div class=""question-area"">
                        <p style=""font-size: 20px; font-weight: bold; margin: 0;"">Is there a person in this image?</p>
                    </div>
                </div>","0","main_experiment_trial","8","cat_care_semantic","semantic_sequence","chronological","","","","","","",""
"","","","","","html-keyboard-response","117","352506","0.0-117.0","3684B7AA011B49AB851560B323FED266","019cfc44-a445-718c-bca8-9cfdb5a57891","019cfc28-2143-7934-89cc-ce6402563331","","null","
                <div class=""stimulus-container"">
                    <img src=""images/semantic_sequence/cat_care_semantic/cat_care_semantic_9.png"" class=""exp-image"">
                    <div class=""question-area""></div> 
                </div>","null","","","","","","","","","","","",""
"","","","","","html-button-response","118","353194","0.0-118.0","3684B7AA011B49AB851560B323FED266","019cfc44-a445-718c-bca8-9cfdb5a57891","019cfc28-2143-7934-89cc-ce6402563331","","687","
                <div class=""stimulus-container"">
                    <img src=""images/semantic_sequence/cat_care_semantic/cat_care_semantic_9.png"" class=""exp-image"">
                    <div class=""question-area"">
                        <p style=""font-size: 20px; font-weight: bold; margin: 0;"">Is there a person in this image?</p>
                    </div>
                </div>","0","main_experiment_trial","9","cat_care_semantic","semantic_sequence","chronological","","","","","","",""
"","","","","","html-keyboard-response","119","358197","0.0-119.0","3684B7AA011B49AB851560B323FED266","019cfc44-a445-718c-bca8-9cfdb5a57891","019cfc28-2143-7934-89cc-ce6402563331","","null","
                <div class=""stimulus-container"">
                    <img src=""images/semantic_sequence/cat_care_semantic/cat_care_semantic_ten.png"" class=""exp-image"">
                    <div class=""question-area""></div> 
                </div>","null","","","","","","","","","","","",""
"","","","","","html-button-response","120","358783","0.0-120.0","3684B7AA011B49AB851560B323FED266","019cfc44-a445-718c-bca8-9cfdb5a57891","019cfc28-2143-7934-89cc-ce6402563331","","586","
                <div class=""stimulus-container"">
                    <img src=""images/semantic_sequence/cat_care_semantic/cat_care_semantic_ten.png"" class=""exp-image"">
                    <div class=""question-area"">
                        <p style=""font-size: 20px; font-weight: bold; margin: 0;"">Is there a person in this image?</p>
                    </div>
                </div>","1","main_experiment_trial","ten","cat_care_semantic","semantic_sequence","chronological","","","","","","",""
"","","","","","html-keyboard-response","121","363784","0.0-121.0","3684B7AA011B49AB851560B323FED266","019cfc44-a445-718c-bca8-9cfdb5a57891","019cfc28-2143-7934-89cc-ce6402563331","","null","<div style=""background-color: white; width: 100vw; height: 100vh;""></div>","null","","","","","","","","","","","",""
"","","","","","html-keyboard-response","122","368789","0.0-122.0","3684B7AA011B49AB851560B323FED266","019cfc44-a445-718c-bca8-9cfdb5a57891","019cfc28-2143-7934-89cc-ce6402563331","","null","
                <div class=""stimulus-container"">
                    <img src=""images/schematic_sequence/dinner_party_scheme/dinner_party_scheme_1.png"" class=""exp-image"">
                    <div class=""question-area""></div> 
                </div>","null","","","","","","","","","","","",""
"","","","","","html-button-response","123","369258","0.0-123.0","3684B7AA011B49AB851560B323FED266","019cfc44-a445-718c-bca8-9cfdb5a57891","019cfc28-2143-7934-89cc-ce6402563331","","469","
                <div class=""stimulus-container"">
                    <img src=""images/schematic_sequence/dinner_party_scheme/dinner_party_scheme_1.png"" class=""exp-image"">
                    <div class=""question-area"">
                        <p style=""font-size: 20px; font-weight: bold; margin: 0;"">Is there a person in this image?</p>
                    </div>
                </div>","0","main_experiment_trial","1","dinner_party_scheme","schematic_sequence","chronological","","","","","","",""
"","","","","","html-keyboard-response","124","374264","0.0-124.0","3684B7AA011B49AB851560B323FED266","019cfc44-a445-718c-bca8-9cfdb5a57891","019cfc28-2143-7934-89cc-ce6402563331","","null","
                <div class=""stimulus-container"">
                    <img src=""images/schematic_sequence/dinner_party_scheme/dinner_party_scheme_2.png"" class=""exp-image"">
                    <div class=""question-area""></div> 
                </div>","null","","","","","","","","","","","",""
"","","","","","html-button-response","125","374973","0.0-125.0","3684B7AA011B49AB851560B323FED266","019cfc44-a445-718c-bca8-9cfdb5a57891","019cfc28-2143-7934-89cc-ce6402563331","","709","
                <div class=""stimulus-container"">
                    <img src=""images/schematic_sequence/dinner_party_scheme/dinner_party_scheme_2.png"" class=""exp-image"">
                    <div class=""question-area"">
                        <p style=""font-size: 20px; font-weight: bold; margin: 0;"">Is there a person in this image?</p>
                    </div>
                </div>","0","main_experiment_trial","2","dinner_party_scheme","schematic_sequence","chronological","","","","","","",""
"","","","","","html-keyboard-response","126","379988","0.0-126.0","3684B7AA011B49AB851560B323FED266","019cfc44-a445-718c-bca8-9cfdb5a57891","019cfc28-2143-7934-89cc-ce6402563331","","null","
                <div class=""stimulus-container"">
                    <img src=""images/schematic_sequence/dinner_party_scheme/dinner_party_scheme_3.png"" class=""exp-image"">
                    <div class=""question-area""></div> 
                </div>","null","","","","","","","","","","","",""
"","","","","","html-button-response","127","380390","0.0-127.0","3684B7AA011B49AB851560B323FED266","019cfc44-a445-718c-bca8-9cfdb5a57891","019cfc28-2143-7934-89cc-ce6402563331","","402","
                <div class=""stimulus-container"">
                    <img src=""images/schematic_sequence/dinner_party_scheme/dinner_party_scheme_3.png"" class=""exp-image"">
                    <div class=""question-area"">
                        <p style=""font-size: 20px; font-weight: bold; margin: 0;"">Is there a person in this image?</p>
                    </div>
                </div>","0","main_experiment_trial","3","dinner_party_scheme","schematic_sequence","chronological","","","","","","",""
"","","","","","html-keyboard-response","128","385396","0.0-128.0","3684B7AA011B49AB851560B323FED266","019cfc44-a445-718c-bca8-9cfdb5a57891","019cfc28-2143-7934-89cc-ce6402563331","","null","
                <div class=""stimulus-container"">
                    <img src=""images/schematic_sequence/dinner_party_scheme/dinner_party_scheme_4.png"" class=""exp-image"">
                    <div class=""question-area""></div> 
                </div>","null","","","","","","","","","","","",""
"","","","","","html-button-response","129","385728","0.0-129.0","3684B7AA011B49AB851560B323FED266","019cfc44-a445-718c-bca8-9cfdb5a57891","019cfc28-2143-7934-89cc-ce6402563331","","332","
                <div class=""stimulus-container"">
                    <img src=""images/schematic_sequence/dinner_party_scheme/dinner_party_scheme_4.png"" class=""exp-image"">
                    <div class=""question-area"">
                        <p style=""font-size: 20px; font-weight: bold; margin: 0;"">Is there a person in this image?</p>
                    </div>
                </div>","0","main_experiment_trial","4","dinner_party_scheme","schematic_sequence","chronological","","","","","","",""
"","","","","","html-keyboard-response","130","390739","0.0-130.0","3684B7AA011B49AB851560B323FED266","019cfc44-a445-718c-bca8-9cfdb5a57891","019cfc28-2143-7934-89cc-ce6402563331","","null","
                <div class=""stimulus-container"">
                    <img src=""images/schematic_sequence/dinner_party_scheme/dinner_party_scheme_5.png"" class=""exp-image"">
                    <div class=""question-area""></div> 
                </div>","null","","","","","","","","","","","",""
"","","","","","html-button-response","131","391247","0.0-131.0","3684B7AA011B49AB851560B323FED266","019cfc44-a445-718c-bca8-9cfdb5a57891","019cfc28-2143-7934-89cc-ce6402563331","","508","
                <div class=""stimulus-container"">
                    <img src=""images/schematic_sequence/dinner_party_scheme/dinner_party_scheme_5.png"" class=""exp-image"">
                    <div class=""question-area"">
                        <p style=""font-size: 20px; font-weight: bold; margin: 0;"">Is there a person in this image?</p>
                    </div>
                </div>","0","main_experiment_trial","5","dinner_party_scheme","schematic_sequence","chronological","","","","","","",""
"","","","","","html-keyboard-response","132","396259","0.0-132.0","3684B7AA011B49AB851560B323FED266","019cfc44-a445-718c-bca8-9cfdb5a57891","019cfc28-2143-7934-89cc-ce6402563331","","null","
                <div class=""stimulus-container"">
                    <img src=""images/schematic_sequence/dinner_party_scheme/dinner_party_scheme_6.png"" class=""exp-image"">
                    <div class=""question-area""></div> 
                </div>","null","","","","","","","","","","","",""
"","","","","","html-button-response","133","397071","0.0-133.0","3684B7AA011B49AB851560B323FED266","019cfc44-a445-718c-bca8-9cfdb5a57891","019cfc28-2143-7934-89cc-ce6402563331","","812","
                <div class=""stimulus-container"">
                    <img src=""images/schematic_sequence/dinner_party_scheme/dinner_party_scheme_6.png"" class=""exp-image"">
                    <div class=""question-area"">
                        <p style=""font-size: 20px; font-weight: bold; margin: 0;"">Is there a person in this image?</p>
                    </div>
                </div>","0","main_experiment_trial","6","dinner_party_scheme","schematic_sequence","chronological","","","","","","",""
"","","","","","html-keyboard-response","134","402083","0.0-134.0","3684B7AA011B49AB851560B323FED266","019cfc44-a445-718c-bca8-9cfdb5a57891","019cfc28-2143-7934-89cc-ce6402563331","","null","
                <div class=""stimulus-container"">
                    <img src=""images/schematic_sequence/dinner_party_scheme/dinner_party_scheme_7.png"" class=""exp-image"">
                    <div class=""question-area""></div> 
                </div>","null","","","","","","","","","","","",""
"","","","","","html-button-response","135","402595","0.0-135.0","3684B7AA011B49AB851560B323FED266","019cfc44-a445-718c-bca8-9cfdb5a57891","019cfc28-2143-7934-89cc-ce6402563331","","512","
                <div class=""stimulus-container"">
                    <img src=""images/schematic_sequence/dinner_party_scheme/dinner_party_scheme_7.png"" class=""exp-image"">
                    <div class=""question-area"">
                        <p style=""font-size: 20px; font-weight: bold; margin: 0;"">Is there a person in this image?</p>
                    </div>
                </div>","0","main_experiment_trial","7","dinner_party_scheme","schematic_sequence","chronological","","","","","","",""
"","","","","","html-keyboard-response","136","407610","0.0-136.0","3684B7AA011B49AB851560B323FED266","019cfc44-a445-718c-bca8-9cfdb5a57891","019cfc28-2143-7934-89cc-ce6402563331","","null","
                <div class=""stimulus-container"">
                    <img src=""images/schematic_sequence/dinner_party_scheme/dinner_party_scheme_8.png"" class=""exp-image"">
                    <div class=""question-area""></div> 
                </div>","null","","","","","","","","","","","",""
"","","","","","html-button-response","137","408095","0.0-137.0","3684B7AA011B49AB851560B323FED266","019cfc44-a445-718c-bca8-9cfdb5a57891","019cfc28-2143-7934-89cc-ce6402563331","","484","
                <div class=""stimulus-container"">
                    <img src=""images/schematic_sequence/dinner_party_scheme/dinner_party_scheme_8.png"" class=""exp-image"">
                    <div class=""question-area"">
                        <p style=""font-size: 20px; font-weight: bold; margin: 0;"">Is there a person in this image?</p>
                    </div>
                </div>","0","main_experiment_trial","8","dinner_party_scheme","schematic_sequence","chronological","","","","","","",""
"","","","","","html-keyboard-response","138","413107","0.0-138.0","3684B7AA011B49AB851560B323FED266","019cfc44-a445-718c-bca8-9cfdb5a57891","019cfc28-2143-7934-89cc-ce6402563331","","null","
                <div class=""stimulus-container"">
                    <img src=""images/schematic_sequence/dinner_party_scheme/dinner_party_scheme_9.png"" class=""exp-image"">
                    <div class=""question-area""></div> 
                </div>","null","","","","","","","","","","","",""
"","","","","","html-button-response","139","413839","0.0-139.0","3684B7AA011B49AB851560B323FED266","019cfc44-a445-718c-bca8-9cfdb5a57891","019cfc28-2143-7934-89cc-ce6402563331","","731","
                <div class=""stimulus-container"">
                    <img src=""images/schematic_sequence/dinner_party_scheme/dinner_party_scheme_9.png"" class=""exp-image"">
                    <div class=""question-area"">
                        <p style=""font-size: 20px; font-weight: bold; margin: 0;"">Is there a person in this image?</p>
                    </div>
                </div>","0","main_experiment_trial","9","dinner_party_scheme","schematic_sequence","chronological","","","","","","",""
"","","","","","html-keyboard-response","140","418842","0.0-140.0","3684B7AA011B49AB851560B323FED266","019cfc44-a445-718c-bca8-9cfdb5a57891","019cfc28-2143-7934-89cc-ce6402563331","","null","
                <div class=""stimulus-container"">
                    <img src=""images/schematic_sequence/dinner_party_scheme/dinner_party_scheme_ten.png"" class=""exp-image"">
                    <div class=""question-area""></div> 
                </div>","null","","","","","","","","","","","",""
"","","","","","html-button-response","141","419345","0.0-141.0","3684B7AA011B49AB851560B323FED266","019cfc44-a445-718c-bca8-9cfdb5a57891","019cfc28-2143-7934-89cc-ce6402563331","","503","
                <div class=""stimulus-container"">
                    <img src=""images/schematic_sequence/dinner_party_scheme/dinner_party_scheme_ten.png"" class=""exp-image"">
                    <div class=""question-area"">
                        <p style=""font-size: 20px; font-weight: bold; margin: 0;"">Is there a person in this image?</p>
                    </div>
                </div>","0","main_experiment_trial","ten","dinner_party_scheme","schematic_sequence","chronological","","","","","","",""
"","","","","","html-keyboard-response","142","424363","0.0-142.0","3684B7AA011B49AB851560B323FED266","019cfc44-a445-718c-bca8-9cfdb5a57891","019cfc28-2143-7934-89cc-ce6402563331","","null","<div style=""background-color: white; width: 100vw; height: 100vh;""></div>","null","","","","","","","","","","","",""
"","","","","","html-keyboard-response","143","429370","0.0-143.0","3684B7AA011B49AB851560B323FED266","019cfc44-a445-718c-bca8-9cfdb5a57891","019cfc28-2143-7934-89cc-ce6402563331","","null","
                <div class=""stimulus-container"">
                    <img src=""images/semantic_sequence/maintaining_a_car_semantic/maintaining_a_car_semantic_1.png"" class=""exp-image"">
                    <div class=""question-area""></div> 
                </div>","null","","","","","","","","","","","",""
"","","","","","html-button-response","144","429849","0.0-144.0","3684B7AA011B49AB851560B323FED266","019cfc44-a445-718c-bca8-9cfdb5a57891","019cfc28-2143-7934-89cc-ce6402563331","","478","
                <div class=""stimulus-container"">
                    <img src=""images/semantic_sequence/maintaining_a_car_semantic/maintaining_a_car_semantic_1.png"" class=""exp-image"">
                    <div class=""question-area"">
                        <p style=""font-size: 20px; font-weight: bold; margin: 0;"">Is there a person in this image?</p>
                    </div>
                </div>","0","main_experiment_trial","1","maintaining_a_car_semantic","semantic_sequence","chronological","","","","","","",""
"","","","","","html-keyboard-response","145","434851","0.0-145.0","3684B7AA011B49AB851560B323FED266","019cfc44-a445-718c-bca8-9cfdb5a57891","019cfc28-2143-7934-89cc-ce6402563331","","null","
                <div class=""stimulus-container"">
                    <img src=""images/semantic_sequence/maintaining_a_car_semantic/maintaining_a_car_semantic_2.png"" class=""exp-image"">
                    <div class=""question-area""></div> 
                </div>","null","","","","","","","","","","","",""
"","","","","","html-button-response","146","435439","0.0-146.0","3684B7AA011B49AB851560B323FED266","019cfc44-a445-718c-bca8-9cfdb5a57891","019cfc28-2143-7934-89cc-ce6402563331","","587","
                <div class=""stimulus-container"">
                    <img src=""images/semantic_sequence/maintaining_a_car_semantic/maintaining_a_car_semantic_2.png"" class=""exp-image"">
                    <div class=""question-area"">
                        <p style=""font-size: 20px; font-weight: bold; margin: 0;"">Is there a person in this image?</p>
                    </div>
                </div>","0","main_experiment_trial","2","maintaining_a_car_semantic","semantic_sequence","chronological","","","","","","",""
"","","","","","html-keyboard-response","147","440442","0.0-147.0","3684B7AA011B49AB851560B323FED266","019cfc44-a445-718c-bca8-9cfdb5a57891","019cfc28-2143-7934-89cc-ce6402563331","","null","
                <div class=""stimulus-container"">
                    <img src=""images/semantic_sequence/maintaining_a_car_semantic/maintaining_a_car_semantic_3.png"" class=""exp-image"">
                    <div class=""question-area""></div> 
                </div>","null","","","","","","","","","","","",""
"","","","","","html-button-response","148","440939","0.0-148.0","3684B7AA011B49AB851560B323FED266","019cfc44-a445-718c-bca8-9cfdb5a57891","019cfc28-2143-7934-89cc-ce6402563331","","497","
                <div class=""stimulus-container"">
                    <img src=""images/semantic_sequence/maintaining_a_car_semantic/maintaining_a_car_semantic_3.png"" class=""exp-image"">
                    <div class=""question-area"">
                        <p style=""font-size: 20px; font-weight: bold; margin: 0;"">Is there a person in this image?</p>
                    </div>
                </div>","0","main_experiment_trial","3","maintaining_a_car_semantic","semantic_sequence","chronological","","","","","","",""
"","","","","","html-keyboard-response","149","445955","0.0-149.0","3684B7AA011B49AB851560B323FED266","019cfc44-a445-718c-bca8-9cfdb5a57891","019cfc28-2143-7934-89cc-ce6402563331","","null","
                <div class=""stimulus-container"">
                    <img src=""images/semantic_sequence/maintaining_a_car_semantic/maintaining_a_car_semantic_4.png"" class=""exp-image"">
                    <div class=""question-area""></div> 
                </div>","null","","","","","","","","","","","",""
"","","","","","html-button-response","150","446492","0.0-150.0","3684B7AA011B49AB851560B323FED266","019cfc44-a445-718c-bca8-9cfdb5a57891","019cfc28-2143-7934-89cc-ce6402563331","","537","
                <div class=""stimulus-container"">
                    <img src=""images/semantic_sequence/maintaining_a_car_semantic/maintaining_a_car_semantic_4.png"" class=""exp-image"">
                    <div class=""question-area"">
                        <p style=""font-size: 20px; font-weight: bold; margin: 0;"">Is there a person in this image?</p>
                    </div>
                </div>","0","main_experiment_trial","4","maintaining_a_car_semantic","semantic_sequence","chronological","","","","","","",""
"","","","","","html-keyboard-response","151","451507","0.0-151.0","3684B7AA011B49AB851560B323FED266","019cfc44-a445-718c-bca8-9cfdb5a57891","019cfc28-2143-7934-89cc-ce6402563331","","null","
                <div class=""stimulus-container"">
                    <img src=""images/semantic_sequence/maintaining_a_car_semantic/maintaining_a_car_semantic_5.png"" class=""exp-image"">
                    <div class=""question-area""></div> 
                </div>","null","","","","","","","","","","","",""
"","","","","","html-button-response","152","451925","0.0-152.0","3684B7AA011B49AB851560B323FED266","019cfc44-a445-718c-bca8-9cfdb5a57891","019cfc28-2143-7934-89cc-ce6402563331","","417","
                <div class=""stimulus-container"">
                    <img src=""images/semantic_sequence/maintaining_a_car_semantic/maintaining_a_car_semantic_5.png"" class=""exp-image"">
                    <div class=""question-area"">
                        <p style=""font-size: 20px; font-weight: bold; margin: 0;"">Is there a person in this image?</p>
                    </div>
                </div>","0","main_experiment_trial","5","maintaining_a_car_semantic","semantic_sequence","chronological","","","","","","",""
"","","","","","html-keyboard-response","153","456931","0.0-153.0","3684B7AA011B49AB851560B323FED266","019cfc44-a445-718c-bca8-9cfdb5a57891","019cfc28-2143-7934-89cc-ce6402563331","","null","
                <div class=""stimulus-container"">
                    <img src=""images/semantic_sequence/maintaining_a_car_semantic/maintaining_a_car_semantic_6.png"" class=""exp-image"">
                    <div class=""question-area""></div> 
                </div>","null","","","","","","","","","","","",""
"","","","","","html-button-response","154","457387","0.0-154.0","3684B7AA011B49AB851560B323FED266","019cfc44-a445-718c-bca8-9cfdb5a57891","019cfc28-2143-7934-89cc-ce6402563331","","455","
                <div class=""stimulus-container"">
                    <img src=""images/semantic_sequence/maintaining_a_car_semantic/maintaining_a_car_semantic_6.png"" class=""exp-image"">
                    <div class=""question-area"">
                        <p style=""font-size: 20px; font-weight: bold; margin: 0;"">Is there a person in this image?</p>
                    </div>
                </div>","0","main_experiment_trial","6","maintaining_a_car_semantic","semantic_sequence","chronological","","","","","","",""
"","","","","","html-keyboard-response","155","462394","0.0-155.0","3684B7AA011B49AB851560B323FED266","019cfc44-a445-718c-bca8-9cfdb5a57891","019cfc28-2143-7934-89cc-ce6402563331","","null","
                <div class=""stimulus-container"">
                    <img src=""images/semantic_sequence/maintaining_a_car_semantic/maintaining_a_car_semantic_7.png"" class=""exp-image"">
                    <div class=""question-area""></div> 
                </div>","null","","","","","","","","","","","",""
"","","","","","html-button-response","156","462837","0.0-156.0","3684B7AA011B49AB851560B323FED266","019cfc44-a445-718c-bca8-9cfdb5a57891","019cfc28-2143-7934-89cc-ce6402563331","","443","
                <div class=""stimulus-container"">
                    <img src=""images/semantic_sequence/maintaining_a_car_semantic/maintaining_a_car_semantic_7.png"" class=""exp-image"">
                    <div class=""question-area"">
                        <p style=""font-size: 20px; font-weight: bold; margin: 0;"">Is there a person in this image?</p>
                    </div>
                </div>","0","main_experiment_trial","7","maintaining_a_car_semantic","semantic_sequence","chronological","","","","","","",""
"","","","","","html-keyboard-response","157","467840","0.0-157.0","3684B7AA011B49AB851560B323FED266","019cfc44-a445-718c-bca8-9cfdb5a57891","019cfc28-2143-7934-89cc-ce6402563331","","null","
                <div class=""stimulus-container"">
                    <img src=""images/semantic_sequence/maintaining_a_car_semantic/maintaining_a_car_semantic_8.png"" class=""exp-image"">
                    <div class=""question-area""></div> 
                </div>","null","","","","","","","","","","","",""
"","","","","","html-button-response","158","468467","0.0-158.0","3684B7AA011B49AB851560B323FED266","019cfc44-a445-718c-bca8-9cfdb5a57891","019cfc28-2143-7934-89cc-ce6402563331","","626","
                <div class=""stimulus-container"">
                    <img src=""images/semantic_sequence/maintaining_a_car_semantic/maintaining_a_car_semantic_8.png"" class=""exp-image"">
                    <div class=""question-area"">
                        <p style=""font-size: 20px; font-weight: bold; margin: 0;"">Is there a person in this image?</p>
                    </div>
                </div>","0","main_experiment_trial","8","maintaining_a_car_semantic","semantic_sequence","chronological","","","","","","",""
"","","","","","html-keyboard-response","159","473477","0.0-159.0","3684B7AA011B49AB851560B323FED266","019cfc44-a445-718c-bca8-9cfdb5a57891","019cfc28-2143-7934-89cc-ce6402563331","","null","
                <div class=""stimulus-container"">
                    <img src=""images/semantic_sequence/maintaining_a_car_semantic/maintaining_a_car_semantic_9.png"" class=""exp-image"">
                    <div class=""question-area""></div> 
                </div>","null","","","","","","","","","","","",""
"","","","","","html-button-response","160","473934","0.0-160.0","3684B7AA011B49AB851560B323FED266","019cfc44-a445-718c-bca8-9cfdb5a57891","019cfc28-2143-7934-89cc-ce6402563331","","457","
                <div class=""stimulus-container"">
                    <img src=""images/semantic_sequence/maintaining_a_car_semantic/maintaining_a_car_semantic_9.png"" class=""exp-image"">
                    <div class=""question-area"">
                        <p style=""font-size: 20px; font-weight: bold; margin: 0;"">Is there a person in this image?</p>
                    </div>
                </div>","0","main_experiment_trial","9","maintaining_a_car_semantic","semantic_sequence","chronological","","","","","","",""
"","","","","","html-keyboard-response","161","478947","0.0-161.0","3684B7AA011B49AB851560B323FED266","019cfc44-a445-718c-bca8-9cfdb5a57891","019cfc28-2143-7934-89cc-ce6402563331","","null","
                <div class=""stimulus-container"">
                    <img src=""images/semantic_sequence/maintaining_a_car_semantic/maintaining_a_car_semantic_ten.png"" class=""exp-image"">
                    <div class=""question-area""></div> 
                </div>","null","","","","","","","","","","","",""
"","","","","","html-button-response","162","479430","0.0-162.0","3684B7AA011B49AB851560B323FED266","019cfc44-a445-718c-bca8-9cfdb5a57891","019cfc28-2143-7934-89cc-ce6402563331","","482","
                <div class=""stimulus-container"">
                    <img src=""images/semantic_sequence/maintaining_a_car_semantic/maintaining_a_car_semantic_ten.png"" class=""exp-image"">
                    <div class=""question-area"">
                        <p style=""font-size: 20px; font-weight: bold; margin: 0;"">Is there a person in this image?</p>
                    </div>
                </div>","0","main_experiment_trial","ten","maintaining_a_car_semantic","semantic_sequence","chronological","","","","","","",""
"","","","","","html-keyboard-response","163","484435","0.0-163.0","3684B7AA011B49AB851560B323FED266","019cfc44-a445-718c-bca8-9cfdb5a57891","019cfc28-2143-7934-89cc-ce6402563331","","null","<div style=""background-color: white; width: 100vw; height: 100vh;""></div>","null","","","","","","","","","","","",""
"","","","","","html-keyboard-response","164","489442","0.0-164.0","3684B7AA011B49AB851560B323FED266","019cfc44-a445-718c-bca8-9cfdb5a57891","019cfc28-2143-7934-89cc-ce6402563331","","null","
                <div class=""stimulus-container"">
                    <img src=""images/schematic_sequence/hotel_scheme/hotel_scheme_1.png"" class=""exp-image"">
                    <div class=""question-area""></div> 
                </div>","null","","","","","","","","","","","",""
"","","","","","html-button-response","165","490189","0.0-165.0","3684B7AA011B49AB851560B323FED266","019cfc44-a445-718c-bca8-9cfdb5a57891","019cfc28-2143-7934-89cc-ce6402563331","","746","
                <div class=""stimulus-container"">
                    <img src=""images/schematic_sequence/hotel_scheme/hotel_scheme_1.png"" class=""exp-image"">
                    <div class=""question-area"">
                        <p style=""font-size: 20px; font-weight: bold; margin: 0;"">Is there a person in this image?</p>
                    </div>
                </div>","1","main_experiment_trial","1","hotel_scheme","schematic_sequence","chronological","","","","","","",""
"","","","","","html-keyboard-response","166","495194","0.0-166.0","3684B7AA011B49AB851560B323FED266","019cfc44-a445-718c-bca8-9cfdb5a57891","019cfc28-2143-7934-89cc-ce6402563331","","null","
                <div class=""stimulus-container"">
                    <img src=""images/schematic_sequence/hotel_scheme/hotel_scheme_2.png"" class=""exp-image"">
                    <div class=""question-area""></div> 
                </div>","null","","","","","","","","","","","",""
"","","","","","html-button-response","167","495900","0.0-167.0","3684B7AA011B49AB851560B323FED266","019cfc44-a445-718c-bca8-9cfdb5a57891","019cfc28-2143-7934-89cc-ce6402563331","","705","
                <div class=""stimulus-container"">
                    <img src=""images/schematic_sequence/hotel_scheme/hotel_scheme_2.png"" class=""exp-image"">
                    <div class=""question-area"">
                        <p style=""font-size: 20px; font-weight: bold; margin: 0;"">Is there a person in this image?</p>
                    </div>
                </div>","0","main_experiment_trial","2","hotel_scheme","schematic_sequence","chronological","","","","","","",""
"","","","","","html-keyboard-response","168","500907","0.0-168.0","3684B7AA011B49AB851560B323FED266","019cfc44-a445-718c-bca8-9cfdb5a57891","019cfc28-2143-7934-89cc-ce6402563331","","null","
                <div class=""stimulus-container"">
                    <img src=""images/schematic_sequence/hotel_scheme/hotel_scheme_3.png"" class=""exp-image"">
                    <div class=""question-area""></div> 
                </div>","null","","","","","","","","","","","",""
"","","","","","html-button-response","169","501341","0.0-169.0","3684B7AA011B49AB851560B323FED266","019cfc44-a445-718c-bca8-9cfdb5a57891","019cfc28-2143-7934-89cc-ce6402563331","","434","
                <div class=""stimulus-container"">
                    <img src=""images/schematic_sequence/hotel_scheme/hotel_scheme_3.png"" class=""exp-image"">
                    <div class=""question-area"">
                        <p style=""font-size: 20px; font-weight: bold; margin: 0;"">Is there a person in this image?</p>
                    </div>
                </div>","0","main_experiment_trial","3","hotel_scheme","schematic_sequence","chronological","","","","","","",""
"","","","","","html-keyboard-response","170","506354","0.0-170.0","3684B7AA011B49AB851560B323FED266","019cfc44-a445-718c-bca8-9cfdb5a57891","019cfc28-2143-7934-89cc-ce6402563331","","null","
                <div class=""stimulus-container"">
                    <img src=""images/schematic_sequence/hotel_scheme/hotel_scheme_4.png"" class=""exp-image"">
                    <div class=""question-area""></div> 
                </div>","null","","","","","","","","","","","",""
"","","","","","html-button-response","171","507249","0.0-171.0","3684B7AA011B49AB851560B323FED266","019cfc44-a445-718c-bca8-9cfdb5a57891","019cfc28-2143-7934-89cc-ce6402563331","","896","
                <div class=""stimulus-container"">
                    <img src=""images/schematic_sequence/hotel_scheme/hotel_scheme_4.png"" class=""exp-image"">
                    <div class=""question-area"">
                        <p style=""font-size: 20px; font-weight: bold; margin: 0;"">Is there a person in this image?</p>
                    </div>
                </div>","1","main_experiment_trial","4","hotel_scheme","schematic_sequence","chronological","","","","","","",""
"","","","","","html-keyboard-response","172","512258","0.0-172.0","3684B7AA011B49AB851560B323FED266","019cfc44-a445-718c-bca8-9cfdb5a57891","019cfc28-2143-7934-89cc-ce6402563331","","null","
                <div class=""stimulus-container"">
                    <img src=""images/schematic_sequence/hotel_scheme/hotel_scheme_5.png"" class=""exp-image"">
                    <div class=""question-area""></div> 
                </div>","null","","","","","","","","","","","",""
"","","","","","html-button-response","173","512644","0.0-173.0","3684B7AA011B49AB851560B323FED266","019cfc44-a445-718c-bca8-9cfdb5a57891","019cfc28-2143-7934-89cc-ce6402563331","","385","
                <div class=""stimulus-container"">
                    <img src=""images/schematic_sequence/hotel_scheme/hotel_scheme_5.png"" class=""exp-image"">
                    <div class=""question-area"">
                        <p style=""font-size: 20px; font-weight: bold; margin: 0;"">Is there a person in this image?</p>
                    </div>
                </div>","0","main_experiment_trial","5","hotel_scheme","schematic_sequence","chronological","","","","","","",""
"","","","","","html-keyboard-response","174","517658","0.0-174.0","3684B7AA011B49AB851560B323FED266","019cfc44-a445-718c-bca8-9cfdb5a57891","019cfc28-2143-7934-89cc-ce6402563331","","null","
                <div class=""stimulus-container"">
                    <img src=""images/schematic_sequence/hotel_scheme/hotel_scheme_6.png"" class=""exp-image"">
                    <div class=""question-area""></div> 
                </div>","null","","","","","","","","","","","",""
"","","","","","html-button-response","175","518263","0.0-175.0","3684B7AA011B49AB851560B323FED266","019cfc44-a445-718c-bca8-9cfdb5a57891","019cfc28-2143-7934-89cc-ce6402563331","","605","
                <div class=""stimulus-container"">
                    <img src=""images/schematic_sequence/hotel_scheme/hotel_scheme_6.png"" class=""exp-image"">
