"success","timeout","failed_images","failed_audio","failed_video","trial_type","trial_index","time_elapsed","internal_node_id","subject_id","study_id","session_id","view_history","rt","stimulus","response","task","image_index","folder","sequence_type","valuable_image_index","reward_type","correct_choice","chosen_image_index","target_X"
"true","false","[]","[]","[]","preload","0","9408","0.0-0.0","B20B2430F6984DA294167BBD904B22CF","019cf0d7-d810-7407-9eb4-99e0a744ff38","019cf037-5203-781a-b900-108ccb1cab86","","","","","","","","","","","","",""
"","","","","","instructions","1","16248","0.0-1.0","B20B2430F6984DA294167BBD904B22CF","019cf0d7-d810-7407-9eb4-99e0a744ff38","019cf037-5203-781a-b900-108ccb1cab86","[{""page_index"":0,""viewing_time"":6837}]","6837","","","","","","","","","","",""
"","","","","","instructions","2","31171","0.0-2.0","B20B2430F6984DA294167BBD904B22CF","019cf0d7-d810-7407-9eb4-99e0a744ff38","019cf037-5203-781a-b900-108ccb1cab86","[{""page_index"":0,""viewing_time"":14923}]","14923","","","","","","","","","","",""
"true","","","","","fullscreen","3","36785","0.0-3.0","B20B2430F6984DA294167BBD904B22CF","019cf0d7-d810-7407-9eb4-99e0a744ff38","019cf037-5203-781a-b900-108ccb1cab86","","4598","","","","","","","","","","",""
"","","","","","instructions","4","78632","0.0-4.0","B20B2430F6984DA294167BBD904B22CF","019cf0d7-d810-7407-9eb4-99e0a744ff38","019cf037-5203-781a-b900-108ccb1cab86","[{""page_index"":0,""viewing_time"":41847}]","41847","","","","","","","","","","",""
"","","","","","instructions","5","102086","0.0-5.0","B20B2430F6984DA294167BBD904B22CF","019cf0d7-d810-7407-9eb4-99e0a744ff38","019cf037-5203-781a-b900-108ccb1cab86","[{""page_index"":0,""viewing_time"":23454}]","23454","","","","","","","","","","",""
"","","","","","html-keyboard-response","6","106102","0.0-6.0","B20B2430F6984DA294167BBD904B22CF","019cf0d7-d810-7407-9eb4-99e0a744ff38","019cf037-5203-781a-b900-108ccb1cab86","","null","
                <div class=""stimulus-container"">
                    <img src=""images/instructions/movie_1.png"" class=""exp-image"">
                    <div class=""question-area""></div> 
                </div>","null","","","","","","","","",""
"","","","","","html-button-response","7","108200","0.0-7.0","B20B2430F6984DA294167BBD904B22CF","019cf0d7-d810-7407-9eb4-99e0a744ff38","019cf037-5203-781a-b900-108ccb1cab86","","2097","
                <div class=""stimulus-container"">
                    <img src=""images/instructions/movie_1.png"" class=""exp-image"">
                    <div class=""question-area"">
                        <p style=""font-size: 20px; font-weight: bold; margin: 0;"">Was there a person in this image?</p>
                    </div>
                </div>","0","example_question","1","","","","","","",""
"","","","","","html-keyboard-response","8","112202","0.0-8.0","B20B2430F6984DA294167BBD904B22CF","019cf0d7-d810-7407-9eb4-99e0a744ff38","019cf037-5203-781a-b900-108ccb1cab86","","null","
                <div class=""stimulus-container"">
                    <img src=""images/instructions/movie_2.png"" class=""exp-image"">
                    <div class=""question-area""></div> 
                </div>","null","","","","","","","","",""
"","","","","","html-button-response","9","113689","0.0-9.0","B20B2430F6984DA294167BBD904B22CF","019cf0d7-d810-7407-9eb4-99e0a744ff38","019cf037-5203-781a-b900-108ccb1cab86","","1486","
                <div class=""stimulus-container"">
                    <img src=""images/instructions/movie_2.png"" class=""exp-image"">
                    <div class=""question-area"">
                        <p style=""font-size: 20px; font-weight: bold; margin: 0;"">Was there a person in this image?</p>
                    </div>
                </div>","1","example_question","2","","","","","","",""
"","","","","","html-keyboard-response","10","117699","0.0-10.0","B20B2430F6984DA294167BBD904B22CF","019cf0d7-d810-7407-9eb4-99e0a744ff38","019cf037-5203-781a-b900-108ccb1cab86","","null","
                <div class=""stimulus-container"">
                    <img src=""images/instructions/movie_3.png"" class=""exp-image"">
                    <div class=""question-area""></div> 
                </div>","null","","","","","","","","",""
"","","","","","html-button-response","11","120597","0.0-11.0","B20B2430F6984DA294167BBD904B22CF","019cf0d7-d810-7407-9eb4-99e0a744ff38","019cf037-5203-781a-b900-108ccb1cab86","","2896","
                <div class=""stimulus-container"">
                    <img src=""images/instructions/movie_3.png"" class=""exp-image"">
                    <div class=""question-area"">
                        <p style=""font-size: 20px; font-weight: bold; margin: 0;"">Was there a person in this image?</p>
                    </div>
                </div>","0","example_question","3","","","","","","",""
"","","","","","html-keyboard-response","12","124602","0.0-12.0","B20B2430F6984DA294167BBD904B22CF","019cf0d7-d810-7407-9eb4-99e0a744ff38","019cf037-5203-781a-b900-108ccb1cab86","","null","
                <div class=""stimulus-container"">
                    <img src=""images/instructions/movie_4.png"" class=""exp-image"">
                    <div class=""question-area""></div> 
                </div>","null","","","","","","","","",""
"","","","","","html-button-response","13","125452","0.0-13.0","B20B2430F6984DA294167BBD904B22CF","019cf0d7-d810-7407-9eb4-99e0a744ff38","019cf037-5203-781a-b900-108ccb1cab86","","849","
                <div class=""stimulus-container"">
                    <img src=""images/instructions/movie_4.png"" class=""exp-image"">
                    <div class=""question-area"">
                        <p style=""font-size: 20px; font-weight: bold; margin: 0;"">Was there a person in this image?</p>
                    </div>
                </div>","0","example_question","4","","","","","","",""
"","","","","","instructions","14","128071","0.0-14.0","B20B2430F6984DA294167BBD904B22CF","019cf0d7-d810-7407-9eb4-99e0a744ff38","019cf037-5203-781a-b900-108ccb1cab86","[{""page_index"":0,""viewing_time"":2619}]","2619","","","","","","","","","","",""
"","","","","","instructions","15","139007","0.0-15.0","B20B2430F6984DA294167BBD904B22CF","019cf0d7-d810-7407-9eb4-99e0a744ff38","019cf037-5203-781a-b900-108ccb1cab86","[{""page_index"":0,""viewing_time"":10936}]","10936","","","","","","","","","","",""
"","","","","","html-keyboard-response","16","140018","0.0-16.0","B20B2430F6984DA294167BBD904B22CF","019cf0d7-d810-7407-9eb4-99e0a744ff38","019cf037-5203-781a-b900-108ccb1cab86","","null","<div style=""background-color: white; width: 100vw; height: 100vh;""></div>","null","","","","","","","","",""
"","","","","","html-keyboard-response","17","145033","0.0-17.0","B20B2430F6984DA294167BBD904B22CF","019cf0d7-d810-7407-9eb4-99e0a744ff38","019cf037-5203-781a-b900-108ccb1cab86","","null","
                <div class=""stimulus-container"">
                    <img src=""images/schematic_sequence/restaurant_scheme/restaurant_scheme_1.png"" class=""exp-image"">
                    <div class=""question-area""></div> 
                </div>","null","","","","","","","","",""
"","","","","","html-button-response","18","148049","0.0-18.0","B20B2430F6984DA294167BBD904B22CF","019cf0d7-d810-7407-9eb4-99e0a744ff38","019cf037-5203-781a-b900-108ccb1cab86","","null","
                <div class=""stimulus-container"">
                    <img src=""images/schematic_sequence/restaurant_scheme/restaurant_scheme_1.png"" class=""exp-image"">
                    <div class=""question-area"">
                        <p style=""font-size: 20px; font-weight: bold; margin: 0;"">Is there a person in this image?</p>
                    </div>
                </div>","null","main_experiment_trial","1","restaurant_scheme","schematic_sequence","","","","",""
"","","","","","html-keyboard-response","19","153051","0.0-19.0","B20B2430F6984DA294167BBD904B22CF","019cf0d7-d810-7407-9eb4-99e0a744ff38","019cf037-5203-781a-b900-108ccb1cab86","","null","
                <div class=""stimulus-container"">
                    <img src=""images/schematic_sequence/restaurant_scheme/restaurant_scheme_2.png"" class=""exp-image"">
                    <div class=""question-area""></div> 
                </div>","null","","","","","","","","",""
"","","","","","html-button-response","20","154039","0.0-20.0","B20B2430F6984DA294167BBD904B22CF","019cf0d7-d810-7407-9eb4-99e0a744ff38","019cf037-5203-781a-b900-108ccb1cab86","","988","
                <div class=""stimulus-container"">
                    <img src=""images/schematic_sequence/restaurant_scheme/restaurant_scheme_2.png"" class=""exp-image"">
                    <div class=""question-area"">
                        <p style=""font-size: 20px; font-weight: bold; margin: 0;"">Is there a person in this image?</p>
                    </div>
                </div>","1","main_experiment_trial","2","restaurant_scheme","schematic_sequence","","","","",""
"","","","","","html-keyboard-response","21","159051","0.0-21.0","B20B2430F6984DA294167BBD904B22CF","019cf0d7-d810-7407-9eb4-99e0a744ff38","019cf037-5203-781a-b900-108ccb1cab86","","null","
                <div class=""stimulus-container"">
                    <img src=""images/schematic_sequence/restaurant_scheme/restaurant_scheme_3.png"" class=""exp-image"">
                    <div class=""question-area""></div> 
                </div>","null","","","","","","","","",""
"","","","","","html-button-response","22","160802","0.0-22.0","B20B2430F6984DA294167BBD904B22CF","019cf0d7-d810-7407-9eb4-99e0a744ff38","019cf037-5203-781a-b900-108ccb1cab86","","1750","
                <div class=""stimulus-container"">
                    <img src=""images/schematic_sequence/restaurant_scheme/restaurant_scheme_3.png"" class=""exp-image"">
                    <div class=""question-area"">
                        <p style=""font-size: 20px; font-weight: bold; margin: 0;"">Is there a person in this image?</p>
                    </div>
                </div>","1","main_experiment_trial","3","restaurant_scheme","schematic_sequence","","","","",""
"","","","","","html-keyboard-response","23","165815","0.0-23.0","B20B2430F6984DA294167BBD904B22CF","019cf0d7-d810-7407-9eb4-99e0a744ff38","019cf037-5203-781a-b900-108ccb1cab86","","null","
                <div class=""stimulus-container"">
                    <img src=""images/schematic_sequence/restaurant_scheme/restaurant_scheme_4.png"" class=""exp-image"">
                    <div class=""question-area""></div> 
                </div>","null","","","","","","","","",""
"","","","","","html-button-response","24","166669","0.0-24.0","B20B2430F6984DA294167BBD904B22CF","019cf0d7-d810-7407-9eb4-99e0a744ff38","019cf037-5203-781a-b900-108ccb1cab86","","854","
                <div class=""stimulus-container"">
                    <img src=""images/schematic_sequence/restaurant_scheme/restaurant_scheme_4.png"" class=""exp-image"">
                    <div class=""question-area"">
                        <p style=""font-size: 20px; font-weight: bold; margin: 0;"">Is there a person in this image?</p>
                    </div>
                </div>","0","main_experiment_trial","4","restaurant_scheme","schematic_sequence","","","","",""
"","","","","","html-keyboard-response","25","171682","0.0-25.0","B20B2430F6984DA294167BBD904B22CF","019cf0d7-d810-7407-9eb4-99e0a744ff38","019cf037-5203-781a-b900-108ccb1cab86","","null","
                <div class=""stimulus-container"">
                    <img src=""images/schematic_sequence/restaurant_scheme/restaurant_scheme_5.png"" class=""exp-image"">
                    <div class=""question-area""></div> 
                </div>","null","","","","","","","","",""
"","","","","","html-button-response","26","172378","0.0-26.0","B20B2430F6984DA294167BBD904B22CF","019cf0d7-d810-7407-9eb4-99e0a744ff38","019cf037-5203-781a-b900-108ccb1cab86","","695","
                <div class=""stimulus-container"">
                    <img src=""images/schematic_sequence/restaurant_scheme/restaurant_scheme_5.png"" class=""exp-image"">
                    <div class=""question-area"">
                        <p style=""font-size: 20px; font-weight: bold; margin: 0;"">Is there a person in this image?</p>
                    </div>
                </div>","0","main_experiment_trial","5","restaurant_scheme","schematic_sequence","","","","",""
"","","","","","html-keyboard-response","27","177381","0.0-27.0","B20B2430F6984DA294167BBD904B22CF","019cf0d7-d810-7407-9eb4-99e0a744ff38","019cf037-5203-781a-b900-108ccb1cab86","","null","
                <div class=""stimulus-container"">
                    <img src=""images/schematic_sequence/restaurant_scheme/restaurant_scheme_6.png"" class=""exp-image"">
                    <div class=""question-area""></div> 
                </div>","null","","","","","","","","",""
"","","","","","html-button-response","28","178652","0.0-28.0","B20B2430F6984DA294167BBD904B22CF","019cf0d7-d810-7407-9eb4-99e0a744ff38","019cf037-5203-781a-b900-108ccb1cab86","","1270","
                <div class=""stimulus-container"">
                    <img src=""images/schematic_sequence/restaurant_scheme/restaurant_scheme_6.png"" class=""exp-image"">
                    <div class=""question-area"">
                        <p style=""font-size: 20px; font-weight: bold; margin: 0;"">Is there a person in this image?</p>
                    </div>
                </div>","1","main_experiment_trial","6","restaurant_scheme","schematic_sequence","","","","",""
"","","","","","html-keyboard-response","29","183658","0.0-29.0","B20B2430F6984DA294167BBD904B22CF","019cf0d7-d810-7407-9eb4-99e0a744ff38","019cf037-5203-781a-b900-108ccb1cab86","","null","
                <div class=""stimulus-container"">
                    <img src=""images/schematic_sequence/restaurant_scheme/restaurant_scheme_7.png"" class=""exp-image"">
                    <div class=""question-area""></div> 
                </div>","null","","","","","","","","",""
"","","","","","html-button-response","30","184498","0.0-30.0","B20B2430F6984DA294167BBD904B22CF","019cf0d7-d810-7407-9eb4-99e0a744ff38","019cf037-5203-781a-b900-108ccb1cab86","","839","
                <div class=""stimulus-container"">
                    <img src=""images/schematic_sequence/restaurant_scheme/restaurant_scheme_7.png"" class=""exp-image"">
                    <div class=""question-area"">
                        <p style=""font-size: 20px; font-weight: bold; margin: 0;"">Is there a person in this image?</p>
                    </div>
                </div>","1","main_experiment_trial","7","restaurant_scheme","schematic_sequence","","","","",""
"","","","","","html-keyboard-response","31","189508","0.0-31.0","B20B2430F6984DA294167BBD904B22CF","019cf0d7-d810-7407-9eb4-99e0a744ff38","019cf037-5203-781a-b900-108ccb1cab86","","null","
                <div class=""stimulus-container"">
                    <img src=""images/schematic_sequence/restaurant_scheme/restaurant_scheme_8.png"" class=""exp-image"">
                    <div class=""question-area""></div> 
                </div>","null","","","","","","","","",""
"","","","","","html-button-response","32","190245","0.0-32.0","B20B2430F6984DA294167BBD904B22CF","019cf0d7-d810-7407-9eb4-99e0a744ff38","019cf037-5203-781a-b900-108ccb1cab86","","736","
                <div class=""stimulus-container"">
                    <img src=""images/schematic_sequence/restaurant_scheme/restaurant_scheme_8.png"" class=""exp-image"">
                    <div class=""question-area"">
                        <p style=""font-size: 20px; font-weight: bold; margin: 0;"">Is there a person in this image?</p>
                    </div>
                </div>","1","main_experiment_trial","8","restaurant_scheme","schematic_sequence","","","","",""
"","","","","","html-keyboard-response","33","195258","0.0-33.0","B20B2430F6984DA294167BBD904B22CF","019cf0d7-d810-7407-9eb4-99e0a744ff38","019cf037-5203-781a-b900-108ccb1cab86","","null","
                <div class=""stimulus-container"">
                    <img src=""images/schematic_sequence/restaurant_scheme/restaurant_scheme_9.png"" class=""exp-image"">
                    <div class=""question-area""></div> 
                </div>","null","","","","","","","","",""
"","","","","","html-button-response","34","196036","0.0-34.0","B20B2430F6984DA294167BBD904B22CF","019cf0d7-d810-7407-9eb4-99e0a744ff38","019cf037-5203-781a-b900-108ccb1cab86","","777","
                <div class=""stimulus-container"">
                    <img src=""images/schematic_sequence/restaurant_scheme/restaurant_scheme_9.png"" class=""exp-image"">
                    <div class=""question-area"">
                        <p style=""font-size: 20px; font-weight: bold; margin: 0;"">Is there a person in this image?</p>
                    </div>
                </div>","0","main_experiment_trial","9","restaurant_scheme","schematic_sequence","","","","",""
"","","","","","html-keyboard-response","35","201038","0.0-35.0","B20B2430F6984DA294167BBD904B22CF","019cf0d7-d810-7407-9eb4-99e0a744ff38","019cf037-5203-781a-b900-108ccb1cab86","","null","
                <div class=""stimulus-container"">
                    <img src=""images/schematic_sequence/restaurant_scheme/restaurant_scheme_ten.png"" class=""exp-image"">
                    <div class=""question-area""></div> 
                </div>","null","","","","","","","","",""
"","","","","","html-button-response","36","201746","0.0-36.0","B20B2430F6984DA294167BBD904B22CF","019cf0d7-d810-7407-9eb4-99e0a744ff38","019cf037-5203-781a-b900-108ccb1cab86","","707","
                <div class=""stimulus-container"">
                    <img src=""images/schematic_sequence/restaurant_scheme/restaurant_scheme_ten.png"" class=""exp-image"">
                    <div class=""question-area"">
                        <p style=""font-size: 20px; font-weight: bold; margin: 0;"">Is there a person in this image?</p>
                    </div>
                </div>","0","main_experiment_trial","ten","restaurant_scheme","schematic_sequence","","","","",""
"","","","","","html-keyboard-response","37","202748","0.0-37.0","B20B2430F6984DA294167BBD904B22CF","019cf0d7-d810-7407-9eb4-99e0a744ff38","019cf037-5203-781a-b900-108ccb1cab86","","null","<div style=""background-color: white; width: 100vw; height: 100vh;""></div>","null","","","","","","","","",""
"","","","","","html-keyboard-response","38","207752","0.0-38.0","B20B2430F6984DA294167BBD904B22CF","019cf0d7-d810-7407-9eb4-99e0a744ff38","019cf037-5203-781a-b900-108ccb1cab86","","null","
                <div class=""stimulus-container"">
                    <img src=""images/schematic_sequence/dinner_party_scheme/dinner_party_scheme_1.png"" class=""exp-image"">
                    <div class=""question-area""></div> 
                </div>","null","","","","","","","","",""
"","","","","","html-button-response","39","208796","0.0-39.0","B20B2430F6984DA294167BBD904B22CF","019cf0d7-d810-7407-9eb4-99e0a744ff38","019cf037-5203-781a-b900-108ccb1cab86","","1043","
                <div class=""stimulus-container"">
                    <img src=""images/schematic_sequence/dinner_party_scheme/dinner_party_scheme_1.png"" class=""exp-image"">
                    <div class=""question-area"">
                        <p style=""font-size: 20px; font-weight: bold; margin: 0;"">Is there a person in this image?</p>
                    </div>
                </div>","0","main_experiment_trial","1","dinner_party_scheme","schematic_sequence","","","","",""
"","","","","","html-keyboard-response","40","213807","0.0-40.0","B20B2430F6984DA294167BBD904B22CF","019cf0d7-d810-7407-9eb4-99e0a744ff38","019cf037-5203-781a-b900-108ccb1cab86","","null","
                <div class=""stimulus-container"">
                    <img src=""images/schematic_sequence/dinner_party_scheme/dinner_party_scheme_2.png"" class=""exp-image"">
                    <div class=""question-area""></div> 
                </div>","null","","","","","","","","",""
"","","","","","html-button-response","41","214601","0.0-41.0","B20B2430F6984DA294167BBD904B22CF","019cf0d7-d810-7407-9eb4-99e0a744ff38","019cf037-5203-781a-b900-108ccb1cab86","","793","
                <div class=""stimulus-container"">
                    <img src=""images/schematic_sequence/dinner_party_scheme/dinner_party_scheme_2.png"" class=""exp-image"">
                    <div class=""question-area"">
                        <p style=""font-size: 20px; font-weight: bold; margin: 0;"">Is there a person in this image?</p>
                    </div>
                </div>","0","main_experiment_trial","2","dinner_party_scheme","schematic_sequence","","","","",""
"","","","","","html-keyboard-response","42","219603","0.0-42.0","B20B2430F6984DA294167BBD904B22CF","019cf0d7-d810-7407-9eb4-99e0a744ff38","019cf037-5203-781a-b900-108ccb1cab86","","null","
                <div class=""stimulus-container"">
                    <img src=""images/schematic_sequence/dinner_party_scheme/dinner_party_scheme_3.png"" class=""exp-image"">
                    <div class=""question-area""></div> 
                </div>","null","","","","","","","","",""
"","","","","","html-button-response","43","220199","0.0-43.0","B20B2430F6984DA294167BBD904B22CF","019cf0d7-d810-7407-9eb4-99e0a744ff38","019cf037-5203-781a-b900-108ccb1cab86","","596","
                <div class=""stimulus-container"">
                    <img src=""images/schematic_sequence/dinner_party_scheme/dinner_party_scheme_3.png"" class=""exp-image"">
                    <div class=""question-area"">
                        <p style=""font-size: 20px; font-weight: bold; margin: 0;"">Is there a person in this image?</p>
                    </div>
                </div>","0","main_experiment_trial","3","dinner_party_scheme","schematic_sequence","","","","",""
"","","","","","html-keyboard-response","44","225206","0.0-44.0","B20B2430F6984DA294167BBD904B22CF","019cf0d7-d810-7407-9eb4-99e0a744ff38","019cf037-5203-781a-b900-108ccb1cab86","","null","
                <div class=""stimulus-container"">
                    <img src=""images/schematic_sequence/dinner_party_scheme/dinner_party_scheme_4.png"" class=""exp-image"">
                    <div class=""question-area""></div> 
                </div>","null","","","","","","","","",""
"","","","","","html-button-response","45","226412","0.0-45.0","B20B2430F6984DA294167BBD904B22CF","019cf0d7-d810-7407-9eb4-99e0a744ff38","019cf037-5203-781a-b900-108ccb1cab86","","1205","
                <div class=""stimulus-container"">
                    <img src=""images/schematic_sequence/dinner_party_scheme/dinner_party_scheme_4.png"" class=""exp-image"">
                    <div class=""question-area"">
                        <p style=""font-size: 20px; font-weight: bold; margin: 0;"">Is there a person in this image?</p>
                    </div>
                </div>","0","main_experiment_trial","4","dinner_party_scheme","schematic_sequence","","","","",""
"","","","","","html-keyboard-response","46","231427","0.0-46.0","B20B2430F6984DA294167BBD904B22CF","019cf0d7-d810-7407-9eb4-99e0a744ff38","019cf037-5203-781a-b900-108ccb1cab86","","null","
                <div class=""stimulus-container"">
                    <img src=""images/schematic_sequence/dinner_party_scheme/dinner_party_scheme_5.png"" class=""exp-image"">
                    <div class=""question-area""></div> 
                </div>","null","","","","","","","","",""
"","","","","","html-button-response","47","233396","0.0-47.0","B20B2430F6984DA294167BBD904B22CF","019cf0d7-d810-7407-9eb4-99e0a744ff38","019cf037-5203-781a-b900-108ccb1cab86","","1967","
                <div class=""stimulus-container"">
                    <img src=""images/schematic_sequence/dinner_party_scheme/dinner_party_scheme_5.png"" class=""exp-image"">
                    <div class=""question-area"">
                        <p style=""font-size: 20px; font-weight: bold; margin: 0;"">Is there a person in this image?</p>
                    </div>
                </div>","0","main_experiment_trial","5","dinner_party_scheme","schematic_sequence","","","","",""
"","","","","","html-keyboard-response","48","238402","0.0-48.0","B20B2430F6984DA294167BBD904B22CF","019cf0d7-d810-7407-9eb4-99e0a744ff38","019cf037-5203-781a-b900-108ccb1cab86","","null","
                <div class=""stimulus-container"">
                    <img src=""images/schematic_sequence/dinner_party_scheme/dinner_party_scheme_6.png"" class=""exp-image"">
                    <div class=""question-area""></div> 
                </div>","null","","","","","","","","",""
"","","","","","html-button-response","49","239814","0.0-49.0","B20B2430F6984DA294167BBD904B22CF","019cf0d7-d810-7407-9eb4-99e0a744ff38","019cf037-5203-781a-b900-108ccb1cab86","","1411","
                <div class=""stimulus-container"">
                    <img src=""images/schematic_sequence/dinner_party_scheme/dinner_party_scheme_6.png"" class=""exp-image"">
                    <div class=""question-area"">
                        <p style=""font-size: 20px; font-weight: bold; margin: 0;"">Is there a person in this image?</p>
                    </div>
                </div>","0","main_experiment_trial","6","dinner_party_scheme","schematic_sequence","","","","",""
"","","","","","html-keyboard-response","50","244828","0.0-50.0","B20B2430F6984DA294167BBD904B22CF","019cf0d7-d810-7407-9eb4-99e0a744ff38","019cf037-5203-781a-b900-108ccb1cab86","","null","
                <div class=""stimulus-container"">
                    <img src=""images/schematic_sequence/dinner_party_scheme/dinner_party_scheme_7.png"" class=""exp-image"">
                    <div class=""question-area""></div> 
                </div>","null","","","","","","","","",""
"","","","","","html-button-response","51","246226","0.0-51.0","B20B2430F6984DA294167BBD904B22CF","019cf0d7-d810-7407-9eb4-99e0a744ff38","019cf037-5203-781a-b900-108ccb1cab86","","1397","
                <div class=""stimulus-container"">
                    <img src=""images/schematic_sequence/dinner_party_scheme/dinner_party_scheme_7.png"" class=""exp-image"">
                    <div class=""question-area"">
                        <p style=""font-size: 20px; font-weight: bold; margin: 0;"">Is there a person in this image?</p>
                    </div>
                </div>","0","main_experiment_trial","7","dinner_party_scheme","schematic_sequence","","","","",""
"","","","","","html-keyboard-response","52","251231","0.0-52.0","B20B2430F6984DA294167BBD904B22CF","019cf0d7-d810-7407-9eb4-99e0a744ff38","019cf037-5203-781a-b900-108ccb1cab86","","null","
                <div class=""stimulus-container"">
                    <img src=""images/schematic_sequence/dinner_party_scheme/dinner_party_scheme_8.png"" class=""exp-image"">
                    <div class=""question-area""></div> 
                </div>","null","","","","","","","","",""
"","","","","","html-button-response","53","252406","0.0-53.0","B20B2430F6984DA294167BBD904B22CF","019cf0d7-d810-7407-9eb4-99e0a744ff38","019cf037-5203-781a-b900-108ccb1cab86","","1173","
                <div class=""stimulus-container"">
                    <img src=""images/schematic_sequence/dinner_party_scheme/dinner_party_scheme_8.png"" class=""exp-image"">
                    <div class=""question-area"">
                        <p style=""font-size: 20px; font-weight: bold; margin: 0;"">Is there a person in this image?</p>
                    </div>
                </div>","0","main_experiment_trial","8","dinner_party_scheme","schematic_sequence","","","","",""
"","","","","","html-keyboard-response","54","257418","0.0-54.0","B20B2430F6984DA294167BBD904B22CF","019cf0d7-d810-7407-9eb4-99e0a744ff38","019cf037-5203-781a-b900-108ccb1cab86","","null","
                <div class=""stimulus-container"">
                    <img src=""images/schematic_sequence/dinner_party_scheme/dinner_party_scheme_9.png"" class=""exp-image"">
                    <div class=""question-area""></div> 
                </div>","null","","","","","","","","",""
"","","","","","html-button-response","55","260434","0.0-55.0","B20B2430F6984DA294167BBD904B22CF","019cf0d7-d810-7407-9eb4-99e0a744ff38","019cf037-5203-781a-b900-108ccb1cab86","","null","
                <div class=""stimulus-container"">
                    <img src=""images/schematic_sequence/dinner_party_scheme/dinner_party_scheme_9.png"" class=""exp-image"">
                    <div class=""question-area"">
                        <p style=""font-size: 20px; font-weight: bold; margin: 0;"">Is there a person in this image?</p>
                    </div>
                </div>","null","main_experiment_trial","9","dinner_party_scheme","schematic_sequence","","","","",""
"","","","","","html-keyboard-response","56","265445","0.0-56.0","B20B2430F6984DA294167BBD904B22CF","019cf0d7-d810-7407-9eb4-99e0a744ff38","019cf037-5203-781a-b900-108ccb1cab86","","null","
                <div class=""stimulus-container"">
                    <img src=""images/schematic_sequence/dinner_party_scheme/dinner_party_scheme_ten.png"" class=""exp-image"">
                    <div class=""question-area""></div> 
                </div>","null","","","","","","","","",""
"","","","","","html-button-response","57","266647","0.0-57.0","B20B2430F6984DA294167BBD904B22CF","019cf0d7-d810-7407-9eb4-99e0a744ff38","019cf037-5203-781a-b900-108ccb1cab86","","1200","
                <div class=""stimulus-container"">
                    <img src=""images/schematic_sequence/dinner_party_scheme/dinner_party_scheme_ten.png"" class=""exp-image"">
                    <div class=""question-area"">
                        <p style=""font-size: 20px; font-weight: bold; margin: 0;"">Is there a person in this image?</p>
                    </div>
                </div>","0","main_experiment_trial","ten","dinner_party_scheme","schematic_sequence","","","","",""
"","","","","","html-keyboard-response","58","267659","0.0-58.0","B20B2430F6984DA294167BBD904B22CF","019cf0d7-d810-7407-9eb4-99e0a744ff38","019cf037-5203-781a-b900-108ccb1cab86","","null","<div style=""background-color: white; width: 100vw; height: 100vh;""></div>","null","","","","","","","","",""
"","","","","","html-keyboard-response","59","272665","0.0-59.0","B20B2430F6984DA294167BBD904B22CF","019cf0d7-d810-7407-9eb4-99e0a744ff38","019cf037-5203-781a-b900-108ccb1cab86","","null","
                <div class=""stimulus-container"">
                    <img src=""images/causal_sequence/saving_a_cat_causal/saving_a_cat_causal_1.png"" class=""exp-image"">
                    <div class=""question-area""></div> 
                </div>","null","","","","","","","","",""
"","","","","","html-button-response","60","273801","0.0-60.0","B20B2430F6984DA294167BBD904B22CF","019cf0d7-d810-7407-9eb4-99e0a744ff38","019cf037-5203-781a-b900-108ccb1cab86","","1135","
                <div class=""stimulus-container"">
                    <img src=""images/causal_sequence/saving_a_cat_causal/saving_a_cat_causal_1.png"" class=""exp-image"">
                    <div class=""question-area"">
                        <p style=""font-size: 20px; font-weight: bold; margin: 0;"">Is there a person in this image?</p>
                    </div>
                </div>","0","main_experiment_trial","1","saving_a_cat_causal","causal_sequence","","","","",""
"","","","","","html-keyboard-response","61","278803","0.0-61.0","B20B2430F6984DA294167BBD904B22CF","019cf0d7-d810-7407-9eb4-99e0a744ff38","019cf037-5203-781a-b900-108ccb1cab86","","null","
                <div class=""stimulus-container"">
                    <img src=""images/causal_sequence/saving_a_cat_causal/saving_a_cat_causal_2.png"" class=""exp-image"">
                    <div class=""question-area""></div> 
                </div>","null","","","","","","","","",""
"","","","","","html-button-response","62","280369","0.0-62.0","B20B2430F6984DA294167BBD904B22CF","019cf0d7-d810-7407-9eb4-99e0a744ff38","019cf037-5203-781a-b900-108ccb1cab86","","1565","
                <div class=""stimulus-container"">
                    <img src=""images/causal_sequence/saving_a_cat_causal/saving_a_cat_causal_2.png"" class=""exp-image"">
                    <div class=""question-area"">
                        <p style=""font-size: 20px; font-weight: bold; margin: 0;"">Is there a person in this image?</p>
                    </div>
                </div>","1","main_experiment_trial","2","saving_a_cat_causal","causal_sequence","","","","",""
"","","","","","html-keyboard-response","63","285377","0.0-63.0","B20B2430F6984DA294167BBD904B22CF","019cf0d7-d810-7407-9eb4-99e0a744ff38","019cf037-5203-781a-b900-108ccb1cab86","","null","
                <div class=""stimulus-container"">
                    <img src=""images/causal_sequence/saving_a_cat_causal/saving_a_cat_causal_3.png"" class=""exp-image"">
                    <div class=""question-area""></div> 
                </div>","null","","","","","","","","",""
"","","","","","html-button-response","64","286163","0.0-64.0","B20B2430F6984DA294167BBD904B22CF","019cf0d7-d810-7407-9eb4-99e0a744ff38","019cf037-5203-781a-b900-108ccb1cab86","","784","
                <div class=""stimulus-container"">
                    <img src=""images/causal_sequence/saving_a_cat_causal/saving_a_cat_causal_3.png"" class=""exp-image"">
                    <div class=""question-area"">
                        <p style=""font-size: 20px; font-weight: bold; margin: 0;"">Is there a person in this image?</p>
                    </div>
                </div>","1","main_experiment_trial","3","saving_a_cat_causal","causal_sequence","","","","",""
"","","","","","html-keyboard-response","65","291176","0.0-65.0","B20B2430F6984DA294167BBD904B22CF","019cf0d7-d810-7407-9eb4-99e0a744ff38","019cf037-5203-781a-b900-108ccb1cab86","","null","
                <div class=""stimulus-container"">
                    <img src=""images/causal_sequence/saving_a_cat_causal/saving_a_cat_causal_4.png"" class=""exp-image"">
                    <div class=""question-area""></div> 
                </div>","null","","","","","","","","",""
"","","","","","html-button-response","66","292738","0.0-66.0","B20B2430F6984DA294167BBD904B22CF","019cf0d7-d810-7407-9eb4-99e0a744ff38","019cf037-5203-781a-b900-108ccb1cab86","","1560","
                <div class=""stimulus-container"">
                    <img src=""images/causal_sequence/saving_a_cat_causal/saving_a_cat_causal_4.png"" class=""exp-image"">
                    <div class=""question-area"">
                        <p style=""font-size: 20px; font-weight: bold; margin: 0;"">Is there a person in this image?</p>
                    </div>
                </div>","0","main_experiment_trial","4","saving_a_cat_causal","causal_sequence","","","","",""
"","","","","","html-keyboard-response","67","297741","0.0-67.0","B20B2430F6984DA294167BBD904B22CF","019cf0d7-d810-7407-9eb4-99e0a744ff38","019cf037-5203-781a-b900-108ccb1cab86","","null","
                <div class=""stimulus-container"">
                    <img src=""images/causal_sequence/saving_a_cat_causal/saving_a_cat_causal_5.png"" class=""exp-image"">
                    <div class=""question-area""></div> 
                </div>","null","","","","","","","","",""
"","","","","","html-button-response","68","298511","0.0-68.0","B20B2430F6984DA294167BBD904B22CF","019cf0d7-d810-7407-9eb4-99e0a744ff38","019cf037-5203-781a-b900-108ccb1cab86","","768","
                <div class=""stimulus-container"">
                    <img src=""images/causal_sequence/saving_a_cat_causal/saving_a_cat_causal_5.png"" class=""exp-image"">
                    <div class=""question-area"">
                        <p style=""font-size: 20px; font-weight: bold; margin: 0;"">Is there a person in this image?</p>
                    </div>
                </div>","0","main_experiment_trial","5","saving_a_cat_causal","causal_sequence","","","","",""
"","","","","","html-keyboard-response","69","303521","0.0-69.0","B20B2430F6984DA294167BBD904B22CF","019cf0d7-d810-7407-9eb4-99e0a744ff38","019cf037-5203-781a-b900-108ccb1cab86","","null","
                <div class=""stimulus-container"">
                    <img src=""images/causal_sequence/saving_a_cat_causal/saving_a_cat_causal_6.png"" class=""exp-image"">
                    <div class=""question-area""></div> 
                </div>","null","","","","","","","","",""
"","","","","","html-button-response","70","305017","0.0-70.0","B20B2430F6984DA294167BBD904B22CF","019cf0d7-d810-7407-9eb4-99e0a744ff38","019cf037-5203-781a-b900-108ccb1cab86","","1495","
                <div class=""stimulus-container"">
                    <img src=""images/causal_sequence/saving_a_cat_causal/saving_a_cat_causal_6.png"" class=""exp-image"">
                    <div class=""question-area"">
                        <p style=""font-size: 20px; font-weight: bold; margin: 0;"">Is there a person in this image?</p>
                    </div>
                </div>","0","main_experiment_trial","6","saving_a_cat_causal","causal_sequence","","","","",""
"","","","","","html-keyboard-response","71","310022","0.0-71.0","B20B2430F6984DA294167BBD904B22CF","019cf0d7-d810-7407-9eb4-99e0a744ff38","019cf037-5203-781a-b900-108ccb1cab86","","null","
                <div class=""stimulus-container"">
                    <img src=""images/causal_sequence/saving_a_cat_causal/saving_a_cat_causal_7.png"" class=""exp-image"">
                    <div class=""question-area""></div> 
                </div>","null","","","","","","","","",""
"","","","","","html-button-response","72","312427","0.0-72.0","B20B2430F6984DA294167BBD904B22CF","019cf0d7-d810-7407-9eb4-99e0a744ff38","019cf037-5203-781a-b900-108ccb1cab86","","2404","
                <div class=""stimulus-container"">
                    <img src=""images/causal_sequence/saving_a_cat_causal/saving_a_cat_causal_7.png"" class=""exp-image"">
                    <div class=""question-area"">
                        <p style=""font-size: 20px; font-weight: bold; margin: 0;"">Is there a person in this image?</p>
                    </div>
                </div>","0","main_experiment_trial","7","saving_a_cat_causal","causal_sequence","","","","",""
"","","","","","html-keyboard-response","73","317430","0.0-73.0","B20B2430F6984DA294167BBD904B22CF","019cf0d7-d810-7407-9eb4-99e0a744ff38","019cf037-5203-781a-b900-108ccb1cab86","","null","
                <div class=""stimulus-container"">
                    <img src=""images/causal_sequence/saving_a_cat_causal/saving_a_cat_causal_8.png"" class=""exp-image"">
                    <div class=""question-area""></div> 
                </div>","null","","","","","","","","",""
"","","","","","html-button-response","74","318220","0.0-74.0","B20B2430F6984DA294167BBD904B22CF","019cf0d7-d810-7407-9eb4-99e0a744ff38","019cf037-5203-781a-b900-108ccb1cab86","","789","
                <div class=""stimulus-container"">
                    <img src=""images/causal_sequence/saving_a_cat_causal/saving_a_cat_causal_8.png"" class=""exp-image"">
                    <div class=""question-area"">
                        <p style=""font-size: 20px; font-weight: bold; margin: 0;"">Is there a person in this image?</p>
                    </div>
                </div>","0","main_experiment_trial","8","saving_a_cat_causal","causal_sequence","","","","",""
"","","","","","html-keyboard-response","75","323226","0.0-75.0","B20B2430F6984DA294167BBD904B22CF","019cf0d7-d810-7407-9eb4-99e0a744ff38","019cf037-5203-781a-b900-108ccb1cab86","","null","
                <div class=""stimulus-container"">
                    <img src=""images/causal_sequence/saving_a_cat_causal/saving_a_cat_causal_9.png"" class=""exp-image"">
                    <div class=""question-area""></div> 
                </div>","null","","","","","","","","",""
"","","","","","html-button-response","76","323893","0.0-76.0","B20B2430F6984DA294167BBD904B22CF","019cf0d7-d810-7407-9eb4-99e0a744ff38","019cf037-5203-781a-b900-108ccb1cab86","","666","
                <div class=""stimulus-container"">
                    <img src=""images/causal_sequence/saving_a_cat_causal/saving_a_cat_causal_9.png"" class=""exp-image"">
                    <div class=""question-area"">
                        <p style=""font-size: 20px; font-weight: bold; margin: 0;"">Is there a person in this image?</p>
                    </div>
                </div>","0","main_experiment_trial","9","saving_a_cat_causal","causal_sequence","","","","",""
"","","","","","html-keyboard-response","77","328906","0.0-77.0","B20B2430F6984DA294167BBD904B22CF","019cf0d7-d810-7407-9eb4-99e0a744ff38","019cf037-5203-781a-b900-108ccb1cab86","","null","
                <div class=""stimulus-container"">
                    <img src=""images/causal_sequence/saving_a_cat_causal/saving_a_cat_causal_ten.png"" class=""exp-image"">
                    <div class=""question-area""></div> 
                </div>","null","","","","","","","","",""
"","","","","","html-button-response","78","329657","0.0-78.0","B20B2430F6984DA294167BBD904B22CF","019cf0d7-d810-7407-9eb4-99e0a744ff38","019cf037-5203-781a-b900-108ccb1cab86","","750","
                <div class=""stimulus-container"">
                    <img src=""images/causal_sequence/saving_a_cat_causal/saving_a_cat_causal_ten.png"" class=""exp-image"">
                    <div class=""question-area"">
                        <p style=""font-size: 20px; font-weight: bold; margin: 0;"">Is there a person in this image?</p>
                    </div>
                </div>","0","main_experiment_trial","ten","saving_a_cat_causal","causal_sequence","","","","",""
"","","","","","html-keyboard-response","79","330666","0.0-79.0","B20B2430F6984DA294167BBD904B22CF","019cf0d7-d810-7407-9eb4-99e0a744ff38","019cf037-5203-781a-b900-108ccb1cab86","","null","<div style=""background-color: white; width: 100vw; height: 100vh;""></div>","null","","","","","","","","",""
"","","","","","html-keyboard-response","80","335667","0.0-80.0","B20B2430F6984DA294167BBD904B22CF","019cf0d7-d810-7407-9eb4-99e0a744ff38","019cf037-5203-781a-b900-108ccb1cab86","","null","
                <div class=""stimulus-container"">
                    <img src=""images/causal_sequence/museum_causal/museum_causal_1.png"" class=""exp-image"">
                    <div class=""question-area""></div> 
                </div>","null","","","","","","","","",""
"","","","","","html-button-response","81","336951","0.0-81.0","B20B2430F6984DA294167BBD904B22CF","019cf0d7-d810-7407-9eb4-99e0a744ff38","019cf037-5203-781a-b900-108ccb1cab86","","1282","
                <div class=""stimulus-container"">
                    <img src=""images/causal_sequence/museum_causal/museum_causal_1.png"" class=""exp-image"">
                    <div class=""question-area"">
                        <p style=""font-size: 20px; font-weight: bold; margin: 0;"">Is there a person in this image?</p>
                    </div>
                </div>","0","main_experiment_trial","1","museum_causal","causal_sequence","","","","",""
"","","","","","html-keyboard-response","82","341963","0.0-82.0","B20B2430F6984DA294167BBD904B22CF","019cf0d7-d810-7407-9eb4-99e0a744ff38","019cf037-5203-781a-b900-108ccb1cab86","","null","
                <div class=""stimulus-container"">
                    <img src=""images/causal_sequence/museum_causal/museum_causal_2.png"" class=""exp-image"">
                    <div class=""question-area""></div> 
                </div>","null","","","","","","","","",""
"","","","","","html-button-response","83","344070","0.0-83.0","B20B2430F6984DA294167BBD904B22CF","019cf0d7-d810-7407-9eb4-99e0a744ff38","019cf037-5203-781a-b900-108ccb1cab86","","2105","
                <div class=""stimulus-container"">
                    <img src=""images/causal_sequence/museum_causal/museum_causal_2.png"" class=""exp-image"">
                    <div class=""question-area"">
                        <p style=""font-size: 20px; font-weight: bold; margin: 0;"">Is there a person in this image?</p>
                    </div>
                </div>","1","main_experiment_trial","2","museum_causal","causal_sequence","","","","",""
"","","","","","html-keyboard-response","84","349082","0.0-84.0","B20B2430F6984DA294167BBD904B22CF","019cf0d7-d810-7407-9eb4-99e0a744ff38","019cf037-5203-781a-b900-108ccb1cab86","","null","
                <div class=""stimulus-container"">
                    <img src=""images/causal_sequence/museum_causal/museum_causal_3.png"" class=""exp-image"">
                    <div class=""question-area""></div> 
                </div>","null","","","","","","","","",""
"","","","","","html-button-response","85","352097","0.0-85.0","B20B2430F6984DA294167BBD904B22CF","019cf0d7-d810-7407-9eb4-99e0a744ff38","019cf037-5203-781a-b900-108ccb1cab86","","null","
                <div class=""stimulus-container"">
                    <img src=""images/causal_sequence/museum_causal/museum_causal_3.png"" class=""exp-image"">
                    <div class=""question-area"">
                        <p style=""font-size: 20px; font-weight: bold; margin: 0;"">Is there a person in this image?</p>
                    </div>
                </div>","null","main_experiment_trial","3","museum_causal","causal_sequence","","","","",""
"","","","","","html-keyboard-response","86","357109","0.0-86.0","B20B2430F6984DA294167BBD904B22CF","019cf0d7-d810-7407-9eb4-99e0a744ff38","019cf037-5203-781a-b900-108ccb1cab86","","null","
                <div class=""stimulus-container"">
                    <img src=""images/causal_sequence/museum_causal/museum_causal_4.png"" class=""exp-image"">
                    <div class=""question-area""></div> 
                </div>","null","","","","","","","","",""
"","","","","","html-button-response","87","357939","0.0-87.0","B20B2430F6984DA294167BBD904B22CF","019cf0d7-d810-7407-9eb4-99e0a744ff38","019cf037-5203-781a-b900-108ccb1cab86","","829","
                <div class=""stimulus-container"">
                    <img src=""images/causal_sequence/museum_causal/museum_causal_4.png"" class=""exp-image"">
                    <div class=""question-area"">
                        <p style=""font-size: 20px; font-weight: bold; margin: 0;"">Is there a person in this image?</p>
                    </div>
                </div>","1","main_experiment_trial","4","museum_causal","causal_sequence","","","","",""
"","","","","","html-keyboard-response","88","362940","0.0-88.0","B20B2430F6984DA294167BBD904B22CF","019cf0d7-d810-7407-9eb4-99e0a744ff38","019cf037-5203-781a-b900-108ccb1cab86","","null","
                <div class=""stimulus-container"">
                    <img src=""images/causal_sequence/museum_causal/museum_causal_5.png"" class=""exp-image"">
                    <div class=""question-area""></div> 
                </div>","null","","","","","","","","",""
"","","","","","html-button-response","89","363781","0.0-89.0","B20B2430F6984DA294167BBD904B22CF","019cf0d7-d810-7407-9eb4-99e0a744ff38","019cf037-5203-781a-b900-108ccb1cab86","","839","
                <div class=""stimulus-container"">
                    <img src=""images/causal_sequence/museum_causal/museum_causal_5.png"" class=""exp-image"">
                    <div class=""question-area"">
                        <p style=""font-size: 20px; font-weight: bold; margin: 0;"">Is there a person in this image?</p>
                    </div>
                </div>","0","main_experiment_trial","5","museum_causal","causal_sequence","","","","",""
"","","","","","html-keyboard-response","90","368785","0.0-90.0","B20B2430F6984DA294167BBD904B22CF","019cf0d7-d810-7407-9eb4-99e0a744ff38","019cf037-5203-781a-b900-108ccb1cab86","","null","
                <div class=""stimulus-container"">
                    <img src=""images/causal_sequence/museum_causal/museum_causal_6.png"" class=""exp-image"">
                    <div class=""question-area""></div> 
                </div>","null","","","","","","","","",""
"","","","","","html-button-response","91","369657","0.0-91.0","B20B2430F6984DA294167BBD904B22CF","019cf0d7-d810-7407-9eb4-99e0a744ff38","019cf037-5203-781a-b900-108ccb1cab86","","870","
                <div class=""stimulus-container"">
                    <img src=""images/causal_sequence/museum_causal/museum_causal_6.png"" class=""exp-image"">
                    <div class=""question-area"">
                        <p style=""font-size: 20px; font-weight: bold; margin: 0;"">Is there a person in this image?</p>
                    </div>
                </div>","0","main_experiment_trial","6","museum_causal","causal_sequence","","","","",""
"","","","","","html-keyboard-response","92","374673","0.0-92.0","B20B2430F6984DA294167BBD904B22CF","019cf0d7-d810-7407-9eb4-99e0a744ff38","019cf037-5203-781a-b900-108ccb1cab86","","null","
                <div class=""stimulus-container"">
                    <img src=""images/causal_sequence/museum_causal/museum_causal_7.png"" class=""exp-image"">
                    <div class=""question-area""></div> 
                </div>","null","","","","","","","","",""
"","","","","","html-button-response","93","375471","0.0-93.0","B20B2430F6984DA294167BBD904B22CF","019cf0d7-d810-7407-9eb4-99e0a744ff38","019cf037-5203-781a-b900-108ccb1cab86","","796","
                <div class=""stimulus-container"">
                    <img src=""images/causal_sequence/museum_causal/museum_causal_7.png"" class=""exp-image"">
                    <div class=""question-area"">
                        <p style=""font-size: 20px; font-weight: bold; margin: 0;"">Is there a person in this image?</p>
                    </div>
                </div>","1","main_experiment_trial","7","museum_causal","causal_sequence","","","","",""
"","","","","","html-keyboard-response","94","380479","0.0-94.0","B20B2430F6984DA294167BBD904B22CF","019cf0d7-d810-7407-9eb4-99e0a744ff38","019cf037-5203-781a-b900-108ccb1cab86","","null","
                <div class=""stimulus-container"">
                    <img src=""images/causal_sequence/museum_causal/museum_causal_8.png"" class=""exp-image"">
                    <div class=""question-area""></div> 
                </div>","null","","","","","","","","",""
"","","","","","html-button-response","95","381278","0.0-95.0","B20B2430F6984DA294167BBD904B22CF","019cf0d7-d810-7407-9eb4-99e0a744ff38","019cf037-5203-781a-b900-108ccb1cab86","","799","
                <div class=""stimulus-container"">
                    <img src=""images/causal_sequence/museum_causal/museum_causal_8.png"" class=""exp-image"">
                    <div class=""question-area"">
                        <p style=""font-size: 20px; font-weight: bold; margin: 0;"">Is there a person in this image?</p>
                    </div>
                </div>","0","main_experiment_trial","8","museum_causal","causal_sequence","","","","",""
"","","","","","html-keyboard-response","96","386288","0.0-96.0","B20B2430F6984DA294167BBD904B22CF","019cf0d7-d810-7407-9eb4-99e0a744ff38","019cf037-5203-781a-b900-108ccb1cab86","","null","
                <div class=""stimulus-container"">
                    <img src=""images/causal_sequence/museum_causal/museum_causal_9.png"" class=""exp-image"">
                    <div class=""question-area""></div> 
                </div>","null","","","","","","","","",""
"","","","","","html-button-response","97","387459","0.0-97.0","B20B2430F6984DA294167BBD904B22CF","019cf0d7-d810-7407-9eb4-99e0a744ff38","019cf037-5203-781a-b900-108ccb1cab86","","1170","
                <div class=""stimulus-container"">
                    <img src=""images/causal_sequence/museum_causal/museum_causal_9.png"" class=""exp-image"">
                    <div class=""question-area"">
                        <p style=""font-size: 20px; font-weight: bold; margin: 0;"">Is there a person in this image?</p>
                    </div>
                </div>","1","main_experiment_trial","9","museum_causal","causal_sequence","","","","",""
"","","","","","html-keyboard-response","98","392460","0.0-98.0","B20B2430F6984DA294167BBD904B22CF","019cf0d7-d810-7407-9eb4-99e0a744ff38","019cf037-5203-781a-b900-108ccb1cab86","","null","
                <div class=""stimulus-container"">
                    <img src=""images/causal_sequence/museum_causal/museum_causal_ten.png"" class=""exp-image"">
                    <div class=""question-area""></div> 
                </div>","null","","","","","","","","",""
"","","","","","html-button-response","99","393867","0.0-99.0","B20B2430F6984DA294167BBD904B22CF","019cf0d7-d810-7407-9eb4-99e0a744ff38","019cf037-5203-781a-b900-108ccb1cab86","","1405","
                <div class=""stimulus-container"">
                    <img src=""images/causal_sequence/museum_causal/museum_causal_ten.png"" class=""exp-image"">
                    <div class=""question-area"">
                        <p style=""font-size: 20px; font-weight: bold; margin: 0;"">Is there a person in this image?</p>
                    </div>
                </div>","0","main_experiment_trial","ten","museum_causal","causal_sequence","","","","",""
"","","","","","html-keyboard-response","100","394883","0.0-100.0","B20B2430F6984DA294167BBD904B22CF","019cf0d7-d810-7407-9eb4-99e0a744ff38","019cf037-5203-781a-b900-108ccb1cab86","","null","<div style=""background-color: white; width: 100vw; height: 100vh;""></div>","null","","","","","","","","",""
"","","","","","html-keyboard-response","101","399889","0.0-101.0","B20B2430F6984DA294167BBD904B22CF","019cf0d7-d810-7407-9eb4-99e0a744ff38","019cf037-5203-781a-b900-108ccb1cab86","","null","
                <div class=""stimulus-container"">
                    <img src=""images/schematic_sequence/flight_scheme/flight_scheme_1.png"" class=""exp-image"">
                    <div class=""question-area""></div> 
                </div>","null","","","","","","","","",""
"","","","","","html-button-response","102","401287","0.0-102.0","B20B2430F6984DA294167BBD904B22CF","019cf0d7-d810-7407-9eb4-99e0a744ff38","019cf037-5203-781a-b900-108ccb1cab86","","1397","
                <div class=""stimulus-container"">
                    <img src=""images/schematic_sequence/flight_scheme/flight_scheme_1.png"" class=""exp-image"">
                    <div class=""question-area"">
                        <p style=""font-size: 20px; font-weight: bold; margin: 0;"">Is there a person in this image?</p>
                    </div>
                </div>","0","main_experiment_trial","1","flight_scheme","schematic_sequence","","","","",""
"","","","","","html-keyboard-response","103","406292","0.0-103.0","B20B2430F6984DA294167BBD904B22CF","019cf0d7-d810-7407-9eb4-99e0a744ff38","019cf037-5203-781a-b900-108ccb1cab86","","null","
                <div class=""stimulus-container"">
                    <img src=""images/schematic_sequence/flight_scheme/flight_scheme_2.png"" class=""exp-image"">
                    <div class=""question-area""></div> 
                </div>","null","","","","","","","","",""
"","","","","","html-button-response","104","409294","0.0-104.0","B20B2430F6984DA294167BBD904B22CF","019cf0d7-d810-7407-9eb4-99e0a744ff38","019cf037-5203-781a-b900-108ccb1cab86","","null","
                <div class=""stimulus-container"">
                    <img src=""images/schematic_sequence/flight_scheme/flight_scheme_2.png"" class=""exp-image"">
                    <div class=""question-area"">
                        <p style=""font-size: 20px; font-weight: bold; margin: 0;"">Is there a person in this image?</p>
                    </div>
                </div>","null","main_experiment_trial","2","flight_scheme","schematic_sequence","","","","",""
"","","","","","html-keyboard-response","105","414303","0.0-105.0","B20B2430F6984DA294167BBD904B22CF","019cf0d7-d810-7407-9eb4-99e0a744ff38","019cf037-5203-781a-b900-108ccb1cab86","","null","
                <div class=""stimulus-container"">
                    <img src=""images/schematic_sequence/flight_scheme/flight_scheme_3.png"" class=""exp-image"">
                    <div class=""question-area""></div> 
                </div>","null","","","","","","","","",""
"","","","","","html-button-response","106","415615","0.0-106.0","B20B2430F6984DA294167BBD904B22CF","019cf0d7-d810-7407-9eb4-99e0a744ff38","019cf037-5203-781a-b900-108ccb1cab86","","1311","
                <div class=""stimulus-container"">
                    <img src=""images/schematic_sequence/flight_scheme/flight_scheme_3.png"" class=""exp-image"">
                    <div class=""question-area"">
                        <p style=""font-size: 20px; font-weight: bold; margin: 0;"">Is there a person in this image?</p>
                    </div>
                </div>","0","main_experiment_trial","3","flight_scheme","schematic_sequence","","","","",""
"","","","","","html-keyboard-response","107","420617","0.0-107.0","B20B2430F6984DA294167BBD904B22CF","019cf0d7-d810-7407-9eb4-99e0a744ff38","019cf037-5203-781a-b900-108ccb1cab86","","null","
                <div class=""stimulus-container"">
                    <img src=""images/schematic_sequence/flight_scheme/flight_scheme_4.png"" class=""exp-image"">
                    <div class=""question-area""></div> 
                </div>","null","","","","","","","","",""
"","","","","","html-button-response","108","422410","0.0-108.0","B20B2430F6984DA294167BBD904B22CF","019cf0d7-d810-7407-9eb4-99e0a744ff38","019cf037-5203-781a-b900-108ccb1cab86","","1792","
                <div class=""stimulus-container"">
                    <img src=""images/schematic_sequence/flight_scheme/flight_scheme_4.png"" class=""exp-image"">
                    <div class=""question-area"">
                        <p style=""font-size: 20px; font-weight: bold; margin: 0;"">Is there a person in this image?</p>
                    </div>
                </div>","0","main_experiment_trial","4","flight_scheme","schematic_sequence","","","","",""
"","","","","","html-keyboard-response","109","427421","0.0-109.0","B20B2430F6984DA294167BBD904B22CF","019cf0d7-d810-7407-9eb4-99e0a744ff38","019cf037-5203-781a-b900-108ccb1cab86","","null","
                <div class=""stimulus-container"">
                    <img src=""images/schematic_sequence/flight_scheme/flight_scheme_5.png"" class=""exp-image"">
                    <div class=""question-area""></div> 
                </div>","null","","","","","","","","",""
"","","","","","html-button-response","110","428295","0.0-110.0","B20B2430F6984DA294167BBD904B22CF","019cf0d7-d810-7407-9eb4-99e0a744ff38","019cf037-5203-781a-b900-108ccb1cab86","","873","
                <div class=""stimulus-container"">
                    <img src=""images/schematic_sequence/flight_scheme/flight_scheme_5.png"" class=""exp-image"">
                    <div class=""question-area"">
                        <p style=""font-size: 20px; font-weight: bold; margin: 0;"">Is there a person in this image?</p>
                    </div>
                </div>","0","main_experiment_trial","5","flight_scheme","schematic_sequence","","","","",""
"","","","","","html-keyboard-response","111","433299","0.0-111.0","B20B2430F6984DA294167BBD904B22CF","019cf0d7-d810-7407-9eb4-99e0a744ff38","019cf037-5203-781a-b900-108ccb1cab86","","null","
                <div class=""stimulus-container"">
                    <img src=""images/schematic_sequence/flight_scheme/flight_scheme_6.png"" class=""exp-image"">
                    <div class=""question-area""></div> 
                </div>","null","","","","","","","","",""
"","","","","","html-button-response","112","434188","0.0-112.0","B20B2430F6984DA294167BBD904B22CF","019cf0d7-d810-7407-9eb4-99e0a744ff38","019cf037-5203-781a-b900-108ccb1cab86","","888","
                <div class=""stimulus-container"">
                    <img src=""images/schematic_sequence/flight_scheme/flight_scheme_6.png"" class=""exp-image"">
                    <div class=""question-area"">
                        <p style=""font-size: 20px; font-weight: bold; margin: 0;"">Is there a person in this image?</p>
                    </div>
                </div>","1","main_experiment_trial","6","flight_scheme","schematic_sequence","","","","",""
"","","","","","html-keyboard-response","113","439203","0.0-113.0","B20B2430F6984DA294167BBD904B22CF","019cf0d7-d810-7407-9eb4-99e0a744ff38","019cf037-5203-781a-b900-108ccb1cab86","","null","
                <div class=""stimulus-container"">
                    <img src=""images/schematic_sequence/flight_scheme/flight_scheme_7.png"" class=""exp-image"">
                    <div class=""question-area""></div> 
                </div>","null","","","","","","","","",""
"","","","","","html-button-response","114","439873","0.0-114.0","B20B2430F6984DA294167BBD904B22CF","019cf0d7-d810-7407-9eb4-99e0a744ff38","019cf037-5203-781a-b900-108ccb1cab86","","669","
                <div class=""stimulus-container"">
                    <img src=""images/schematic_sequence/flight_scheme/flight_scheme_7.png"" class=""exp-image"">
                    <div class=""question-area"">
                        <p style=""font-size: 20px; font-weight: bold; margin: 0;"">Is there a person in this image?</p>
                    </div>
                </div>","1","main_experiment_trial","7","flight_scheme","schematic_sequence","","","","",""
"","","","","","html-keyboard-response","115","444882","0.0-115.0","B20B2430F6984DA294167BBD904B22CF","019cf0d7-d810-7407-9eb4-99e0a744ff38","019cf037-5203-781a-b900-108ccb1cab86","","null","
                <div class=""stimulus-container"">
                    <img src=""images/schematic_sequence/flight_scheme/flight_scheme_8.png"" class=""exp-image"">
                    <div class=""question-area""></div> 
                </div>","null","","","","","","","","",""
"","","","","","html-button-response","116","445527","0.0-116.0","B20B2430F6984DA294167BBD904B22CF","019cf0d7-d810-7407-9eb4-99e0a744ff38","019cf037-5203-781a-b900-108ccb1cab86","","644","
                <div class=""stimulus-container"">
                    <img src=""images/schematic_sequence/flight_scheme/flight_scheme_8.png"" class=""exp-image"">
                    <div class=""question-area"">
                        <p style=""font-size: 20px; font-weight: bold; margin: 0;"">Is there a person in this image?</p>
                    </div>
                </div>","1","main_experiment_trial","8","flight_scheme","schematic_sequence","","","","",""
"","","","","","html-keyboard-response","117","450536","0.0-117.0","B20B2430F6984DA294167BBD904B22CF","019cf0d7-d810-7407-9eb4-99e0a744ff38","019cf037-5203-781a-b900-108ccb1cab86","","null","
                <div class=""stimulus-container"">
                    <img src=""images/schematic_sequence/flight_scheme/flight_scheme_9.png"" class=""exp-image"">
                    <div class=""question-area""></div> 
                </div>","null","","","","","","","","",""
"","","","","","html-button-response","118","451347","0.0-118.0","B20B2430F6984DA294167BBD904B22CF","019cf0d7-d810-7407-9eb4-99e0a744ff38","019cf037-5203-781a-b900-108ccb1cab86","","810","
                <div class=""stimulus-container"">
                    <img src=""images/schematic_sequence/flight_scheme/flight_scheme_9.png"" class=""exp-image"">
                    <div class=""question-area"">
                        <p style=""font-size: 20px; font-weight: bold; margin: 0;"">Is there a person in this image?</p>
                    </div>
                </div>","0","main_experiment_trial","9","flight_scheme","schematic_sequence","","","","",""
"","","","","","html-keyboard-response","119","456349","0.0-119.0","B20B2430F6984DA294167BBD904B22CF","019cf0d7-d810-7407-9eb4-99e0a744ff38","019cf037-5203-781a-b900-108ccb1cab86","","null","
                <div class=""stimulus-container"">
                    <img src=""images/schematic_sequence/flight_scheme/flight_scheme_ten.png"" class=""exp-image"">
                    <div class=""question-area""></div> 
                </div>","null","","","","","","","","",""
"","","","","","html-button-response","120","457441","0.0-120.0","B20B2430F6984DA294167BBD904B22CF","019cf0d7-d810-7407-9eb4-99e0a744ff38","019cf037-5203-781a-b900-108ccb1cab86","","1091","
                <div class=""stimulus-container"">
                    <img src=""images/schematic_sequence/flight_scheme/flight_scheme_ten.png"" class=""exp-image"">
                    <div class=""question-area"">
                        <p style=""font-size: 20px; font-weight: bold; margin: 0;"">Is there a person in this image?</p>
                    </div>
                </div>","0","main_experiment_trial","ten","flight_scheme","schematic_sequence","","","","",""
"","","","","","html-keyboard-response","121","458457","0.0-121.0","B20B2430F6984DA294167BBD904B22CF","019cf0d7-d810-7407-9eb4-99e0a744ff38","019cf037-5203-781a-b900-108ccb1cab86","","null","<div style=""background-color: white; width: 100vw; height: 100vh;""></div>","null","","","","","","","","",""
"","","","","","html-keyboard-response","122","463458","0.0-122.0","B20B2430F6984DA294167BBD904B22CF","019cf0d7-d810-7407-9eb4-99e0a744ff38","019cf037-5203-781a-b900-108ccb1cab86","","null","
                <div class=""stimulus-container"">
                    <img src=""images/schematic_sequence/interview_scheme/interview_scheme_1.png"" class=""exp-image"">
                    <div class=""question-area""></div> 
                </div>","null","","","","","","","","",""
"","","","","","html-button-response","123","464781","0.0-123.0","B20B2430F6984DA294167BBD904B22CF","019cf0d7-d810-7407-9eb4-99e0a744ff38","019cf037-5203-781a-b900-108ccb1cab86","","1322","
                <div class=""stimulus-container"">
                    <img src=""images/schematic_sequence/interview_scheme/interview_scheme_1.png"" class=""exp-image"">
                    <div class=""question-area"">
                        <p style=""font-size: 20px; font-weight: bold; margin: 0;"">Is there a person in this image?</p>
                    </div>
                </div>","1","main_experiment_trial","1","interview_scheme","schematic_sequence","","","","",""
"","","","","","html-keyboard-response","124","469790","0.0-124.0","B20B2430F6984DA294167BBD904B22CF","019cf0d7-d810-7407-9eb4-99e0a744ff38","019cf037-5203-781a-b900-108ccb1cab86","","null","
                <div class=""stimulus-container"">
                    <img src=""images/schematic_sequence/interview_scheme/interview_scheme_2.png"" class=""exp-image"">
                    <div class=""question-area""></div> 
                </div>","null","","","","","","","","",""
"","","","","","html-button-response","125","470839","0.0-125.0","B20B2430F6984DA294167BBD904B22CF","019cf0d7-d810-7407-9eb4-99e0a744ff38","019cf037-5203-781a-b900-108ccb1cab86","","1047","
                <div class=""stimulus-container"">
                    <img src=""images/schematic_sequence/interview_scheme/interview_scheme_2.png"" class=""exp-image"">
                    <div class=""question-area"">
                        <p style=""font-size: 20px; font-weight: bold; margin: 0;"">Is there a person in this image?</p>
                    </div>
                </div>","1","main_experiment_trial","2","interview_scheme","schematic_sequence","","","","",""
"","","","","","html-keyboard-response","126","475847","0.0-126.0","B20B2430F6984DA294167BBD904B22CF","019cf0d7-d810-7407-9eb4-99e0a744ff38","019cf037-5203-781a-b900-108ccb1cab86","","null","
                <div class=""stimulus-container"">
                    <img src=""images/schematic_sequence/interview_scheme/interview_scheme_3.png"" class=""exp-image"">
                    <div class=""question-area""></div> 
                </div>","null","","","","","","","","",""
"","","","","","html-button-response","127","476522","0.0-127.0","B20B2430F6984DA294167BBD904B22CF","019cf0d7-d810-7407-9eb4-99e0a744ff38","019cf037-5203-781a-b900-108ccb1cab86","","673","
                <div class=""stimulus-container"">
                    <img src=""images/schematic_sequence/interview_scheme/interview_scheme_3.png"" class=""exp-image"">
                    <div class=""question-area"">
                        <p style=""font-size: 20px; font-weight: bold; margin: 0;"">Is there a person in this image?</p>
                    </div>
                </div>","1","main_experiment_trial","3","interview_scheme","schematic_sequence","","","","",""
"","","","","","html-keyboard-response","128","481533","0.0-128.0","B20B2430F6984DA294167BBD904B22CF","019cf0d7-d810-7407-9eb4-99e0a744ff38","019cf037-5203-781a-b900-108ccb1cab86","","null","
                <div class=""stimulus-container"">
                    <img src=""images/schematic_sequence/interview_scheme/interview_scheme_4.png"" class=""exp-image"">
                    <div class=""question-area""></div> 
                </div>","null","","","","","","","","",""
"","","","","","html-button-response","129","482551","0.0-129.0","B20B2430F6984DA294167BBD904B22CF","019cf0d7-d810-7407-9eb4-99e0a744ff38","019cf037-5203-781a-b900-108ccb1cab86","","1016","
                <div class=""stimulus-container"">
                    <img src=""images/schematic_sequence/interview_scheme/interview_scheme_4.png"" class=""exp-image"">
                    <div class=""question-area"">
                        <p style=""font-size: 20px; font-weight: bold; margin: 0;"">Is there a person in this image?</p>
                    </div>
                </div>","1","main_experiment_trial","4","interview_scheme","schematic_sequence","","","","",""
"","","","","","html-keyboard-response","130","487566","0.0-130.0","B20B2430F6984DA294167BBD904B22CF","019cf0d7-d810-7407-9eb4-99e0a744ff38","019cf037-5203-781a-b900-108ccb1cab86","","null","
                <div class=""stimulus-container"">
                    <img src=""images/schematic_sequence/interview_scheme/interview_scheme_5.png"" class=""exp-image"">
                    <div class=""question-area""></div> 
                </div>","null","","","","","","","","",""
"","","","","","html-button-response","131","488477","0.0-131.0","B20B2430F6984DA294167BBD904B22CF","019cf0d7-d810-7407-9eb4-99e0a744ff38","019cf037-5203-781a-b900-108ccb1cab86","","910","
                <div class=""stimulus-container"">
                    <img src=""images/schematic_sequence/interview_scheme/interview_scheme_5.png"" class=""exp-image"">
                    <div class=""question-area"">
                        <p style=""font-size: 20px; font-weight: bold; margin: 0;"">Is there a person in this image?</p>
                    </div>
                </div>","0","main_experiment_trial","5","interview_scheme","schematic_sequence","","","","",""
"","","","","","html-keyboard-response","132","493493","0.0-132.0","B20B2430F6984DA294167BBD904B22CF","019cf0d7-d810-7407-9eb4-99e0a744ff38","019cf037-5203-781a-b900-108ccb1cab86","","null","
                <div class=""stimulus-container"">
                    <img src=""images/schematic_sequence/interview_scheme/interview_scheme_6.png"" class=""exp-image"">
                    <div class=""question-area""></div> 
                </div>","null","","","","","","","","",""
"","","","","","html-button-response","133","494168","0.0-133.0","B20B2430F6984DA294167BBD904B22CF","019cf0d7-d810-7407-9eb4-99e0a744ff38","019cf037-5203-781a-b900-108ccb1cab86","","673","
                <div class=""stimulus-container"">
                    <img src=""images/schematic_sequence/interview_scheme/interview_scheme_6.png"" class=""exp-image"">
                    <div class=""question-area"">
                        <p style=""font-size: 20px; font-weight: bold; margin: 0;"">Is there a person in this image?</p>
                    </div>
                </div>","0","main_experiment_trial","6","interview_scheme","schematic_sequence","","","","",""
"","","","","","html-keyboard-response","134","499175","0.0-134.0","B20B2430F6984DA294167BBD904B22CF","019cf0d7-d810-7407-9eb4-99e0a744ff38","019cf037-5203-781a-b900-108ccb1cab86","","null","
                <div class=""stimulus-container"">
                    <img src=""images/schematic_sequence/interview_scheme/interview_scheme_7.png"" class=""exp-image"">
                    <div class=""question-area""></div> 
                </div>","null","","","","","","","","",""
"","","","","","html-button-response","135","499661","0.0-135.0","B20B2430F6984DA294167BBD904B22CF","019cf0d7-d810-7407-9eb4-99e0a744ff38","019cf037-5203-781a-b900-108ccb1cab86","","484","
                <div class=""stimulus-container"">
                    <img src=""images/schematic_sequence/interview_scheme/interview_scheme_7.png"" class=""exp-image"">
                    <div class=""question-area"">
                        <p style=""font-size: 20px; font-weight: bold; margin: 0;"">Is there a person in this image?</p>
                    </div>
                </div>","0","main_experiment_trial","7","interview_scheme","schematic_sequence","","","","",""
"","","","","","html-keyboard-response","136","504676","0.0-136.0","B20B2430F6984DA294167BBD904B22CF","019cf0d7-d810-7407-9eb4-99e0a744ff38","019cf037-5203-781a-b900-108ccb1cab86","","null","
                <div class=""stimulus-container"">
                    <img src=""images/schematic_sequence/interview_scheme/interview_scheme_8.png"" class=""exp-image"">
                    <div class=""question-area""></div> 
                </div>","null","","","","","","","","",""
"","","","","","html-button-response","137","505096","0.0-137.0","B20B2430F6984DA294167BBD904B22CF","019cf0d7-d810-7407-9eb4-99e0a744ff38","019cf037-5203-781a-b900-108ccb1cab86","","420","
                <div class=""stimulus-container"">
                    <img src=""images/schematic_sequence/interview_scheme/interview_scheme_8.png"" class=""exp-image"">
                    <div class=""question-area"">
                        <p style=""font-size: 20px; font-weight: bold; margin: 0;"">Is there a person in this image?</p>
                    </div>
                </div>","0","main_experiment_trial","8","interview_scheme","schematic_sequence","","","","",""
"","","","","","html-keyboard-response","138","510111","0.0-138.0","B20B2430F6984DA294167BBD904B22CF","019cf0d7-d810-7407-9eb4-99e0a744ff38","019cf037-5203-781a-b900-108ccb1cab86","","null","
                <div class=""stimulus-container"">
                    <img src=""images/schematic_sequence/interview_scheme/interview_scheme_9.png"" class=""exp-image"">
                    <div class=""question-area""></div> 
                </div>","null","","","","","","","","",""
"","","","","","html-button-response","139","510628","0.0-139.0","B20B2430F6984DA294167BBD904B22CF","019cf0d7-d810-7407-9eb4-99e0a744ff38","019cf037-5203-781a-b900-108ccb1cab86","","517","
                <div class=""stimulus-container"">
                    <img src=""images/schematic_sequence/interview_scheme/interview_scheme_9.png"" class=""exp-image"">
                    <div class=""question-area"">
                        <p style=""font-size: 20px; font-weight: bold; margin: 0;"">Is there a person in this image?</p>
                    </div>
                </div>","0","main_experiment_trial","9","interview_scheme","schematic_sequence","","","","",""
"","","","","","html-keyboard-response","140","515637","0.0-140.0","B20B2430F6984DA294167BBD904B22CF","019cf0d7-d810-7407-9eb4-99e0a744ff38","019cf037-5203-781a-b900-108ccb1cab86","","null","
                <div class=""stimulus-container"">
                    <img src=""images/schematic_sequence/interview_scheme/interview_scheme_ten.png"" class=""exp-image"">
                    <div class=""question-area""></div> 
                </div>","null","","","","","","","","",""
"","","","","","html-button-response","141","516928","0.0-141.0","B20B2430F6984DA294167BBD904B22CF","019cf0d7-d810-7407-9eb4-99e0a744ff38","019cf037-5203-781a-b900-108ccb1cab86","","1289","
                <div class=""stimulus-container"">
                    <img src=""images/schematic_sequence/interview_scheme/interview_scheme_ten.png"" class=""exp-image"">
                    <div class=""question-area"">
                        <p style=""font-size: 20px; font-weight: bold; margin: 0;"">Is there a person in this image?</p>
                    </div>
                </div>","0","main_experiment_trial","ten","interview_scheme","schematic_sequence","","","","",""
"","","","","","html-keyboard-response","142","517944","0.0-142.0","B20B2430F6984DA294167BBD904B22CF","019cf0d7-d810-7407-9eb4-99e0a744ff38","019cf037-5203-781a-b900-108ccb1cab86","","null","<div style=""background-color: white; width: 100vw; height: 100vh;""></div>","null","","","","","","","","",""
"","","","","","html-keyboard-response","143","522949","0.0-143.0","B20B2430F6984DA294167BBD904B22CF","019cf0d7-d810-7407-9eb4-99e0a744ff38","019cf037-5203-781a-b900-108ccb1cab86","","null","
                <div class=""stimulus-container"">
                    <img src=""images/causal_sequence/coin_causal/coin_causal_1.png"" class=""exp-image"">
                    <div class=""question-area""></div> 
                </div>","null","","","","","","","","",""
"","","","","","html-button-response","144","524348","0.0-144.0","B20B2430F6984DA294167BBD904B22CF","019cf0d7-d810-7407-9eb4-99e0a744ff38","019cf037-5203-781a-b900-108ccb1cab86","","1397","
                <div class=""stimulus-container"">
                    <img src=""images/causal_sequence/coin_causal/coin_causal_1.png"" class=""exp-image"">
                    <div class=""question-area"">
                        <p style=""font-size: 20px; font-weight: bold; margin: 0;"">Is there a person in this image?</p>
                    </div>
                </div>","0","main_experiment_trial","1","coin_causal","causal_sequence","","","","",""
"","","","","","html-keyboard-response","145","529355","0.0-145.0","B20B2430F6984DA294167BBD904B22CF","019cf0d7-d810-7407-9eb4-99e0a744ff38","019cf037-5203-781a-b900-108ccb1cab86","","null","
                <div class=""stimulus-container"">
                    <img src=""images/causal_sequence/coin_causal/coin_causal_2.png"" class=""exp-image"">
                    <div class=""question-area""></div> 
                </div>","null","","","","","","","","",""
"","","","","","html-button-response","146","530572","0.0-146.0","B20B2430F6984DA294167BBD904B22CF","019cf0d7-d810-7407-9eb4-99e0a744ff38","019cf037-5203-781a-b900-108ccb1cab86","","1216","
                <div class=""stimulus-container"">
                    <img src=""images/causal_sequence/coin_causal/coin_causal_2.png"" class=""exp-image"">
                    <div class=""question-area"">
                        <p style=""font-size: 20px; font-weight: bold; margin: 0;"">Is there a person in this image?</p>
                    </div>
                </div>","0","main_experiment_trial","2","coin_causal","causal_sequence","","","","",""
"","","","","","html-keyboard-response","147","535576","0.0-147.0","B20B2430F6984DA294167BBD904B22CF","019cf0d7-d810-7407-9eb4-99e0a744ff38","019cf037-5203-781a-b900-108ccb1cab86","","null","
                <div class=""stimulus-container"">
                    <img src=""images/causal_sequence/coin_causal/coin_causal_3.png"" class=""exp-image"">
                    <div class=""question-area""></div> 
                </div>","null","","","","","","","","",""
"","","","","","html-button-response","148","536326","0.0-148.0","B20B2430F6984DA294167BBD904B22CF","019cf0d7-d810-7407-9eb4-99e0a744ff38","019cf037-5203-781a-b900-108ccb1cab86","","748","
                <div class=""stimulus-container"">
                    <img src=""images/causal_sequence/coin_causal/coin_causal_3.png"" class=""exp-image"">
                    <div class=""question-area"">
                        <p style=""font-size: 20px; font-weight: bold; margin: 0;"">Is there a person in this image?</p>
                    </div>
                </div>","0","main_experiment_trial","3","coin_causal","causal_sequence","","","","",""
"","","","","","html-keyboard-response","149","541332","0.0-149.0","B20B2430F6984DA294167BBD904B22CF","019cf0d7-d810-7407-9eb4-99e0a744ff38","019cf037-5203-781a-b900-108ccb1cab86","","null","
                <div class=""stimulus-container"">
                    <img src=""images/causal_sequence/coin_causal/coin_causal_4.png"" class=""exp-image"">
                    <div class=""question-area""></div> 
                </div>","null","","","","","","","","",""
"","","","","","html-button-response","150","542456","0.0-150.0","B20B2430F6984DA294167BBD904B22CF","019cf0d7-d810-7407-9eb4-99e0a744ff38","019cf037-5203-781a-b900-108ccb1cab86","","1123","
                <div class=""stimulus-container"">
                    <img src=""images/causal_sequence/coin_causal/coin_causal_4.png"" class=""exp-image"">
                    <div class=""question-area"">
                        <p style=""font-size: 20px; font-weight: bold; margin: 0;"">Is there a person in this image?</p>
                    </div>
                </div>","0","main_experiment_trial","4","coin_causal","causal_sequence","","","","",""
"","","","","","html-keyboard-response","151","547462","0.0-151.0","B20B2430F6984DA294167BBD904B22CF","019cf0d7-d810-7407-9eb4-99e0a744ff38","019cf037-5203-781a-b900-108ccb1cab86","","null","
                <div class=""stimulus-container"">
                    <img src=""images/causal_sequence/coin_causal/coin_causal_5.png"" class=""exp-image"">
                    <div class=""question-area""></div> 
                </div>","null","","","","","","","","",""
"","","","","","html-button-response","152","548505","0.0-152.0","B20B2430F6984DA294167BBD904B22CF","019cf0d7-d810-7407-9eb4-99e0a744ff38","019cf037-5203-781a-b900-108ccb1cab86","","1042","
                <div class=""stimulus-container"">
                    <img src=""images/causal_sequence/coin_causal/coin_causal_5.png"" class=""exp-image"">
                    <div class=""question-area"">
                        <p style=""font-size: 20px; font-weight: bold; margin: 0;"">Is there a person in this image?</p>
                    </div>
                </div>","0","main_experiment_trial","5","coin_causal","causal_sequence","","","","",""
"","","","","","html-keyboard-response","153","553521","0.0-153.0","B20B2430F6984DA294167BBD904B22CF","019cf0d7-d810-7407-9eb4-99e0a744ff38","019cf037-5203-781a-b900-108ccb1cab86","","null","
                <div class=""stimulus-container"">
                    <img src=""images/causal_sequence/coin_causal/coin_causal_6.png"" class=""exp-image"">
                    <div class=""question-area""></div> 
                </div>","null","","","","","","","","",""
"","","","","","html-button-response","154","555137","0.0-154.0","B20B2430F6984DA294167BBD904B22CF","019cf0d7-d810-7407-9eb4-99e0a744ff38","019cf037-5203-781a-b900-108ccb1cab86","","1615","
                <div class=""stimulus-container"">
                    <img src=""images/causal_sequence/coin_causal/coin_causal_6.png"" class=""exp-image"">
                    <div class=""question-area"">
                        <p style=""font-size: 20px; font-weight: bold; margin: 0;"">Is there a person in this image?</p>
                    </div>
                </div>","0","main_experiment_trial","6","coin_causal","causal_sequence","","","","",""
"","","","","","html-keyboard-response","155","560150","0.0-155.0","B20B2430F6984DA294167BBD904B22CF","019cf0d7-d810-7407-9eb4-99e0a744ff38","019cf037-5203-781a-b900-108ccb1cab86","","null","
                <div class=""stimulus-container"">
                    <img src=""images/causal_sequence/coin_causal/coin_causal_7.png"" class=""exp-image"">
                    <div class=""question-area""></div> 
                </div>","null","","","","","","","","",""
"","","","","","html-button-response","156","561088","0.0-156.0","B20B2430F6984DA294167BBD904B22CF","019cf0d7-d810-7407-9eb4-99e0a744ff38","019cf037-5203-781a-b900-108ccb1cab86","","937","
                <div class=""stimulus-container"">
                    <img src=""images/causal_sequence/coin_causal/coin_causal_7.png"" class=""exp-image"">
                    <div class=""question-area"">
                        <p style=""font-size: 20px; font-weight: bold; margin: 0;"">Is there a person in this image?</p>
                    </div>
                </div>","1","main_experiment_trial","7","coin_causal","causal_sequence","","","","",""
"","","","","","html-keyboard-response","157","566102","0.0-157.0","B20B2430F6984DA294167BBD904B22CF","019cf0d7-d810-7407-9eb4-99e0a744ff38","019cf037-5203-781a-b900-108ccb1cab86","","null","
                <div class=""stimulus-container"">
                    <img src=""images/causal_sequence/coin_causal/coin_causal_8.png"" class=""exp-image"">
                    <div class=""question-area""></div> 
                </div>","null","","","","","","","","",""
"","","","","","html-button-response","158","566887","0.0-158.0","B20B2430F6984DA294167BBD904B22CF","019cf0d7-d810-7407-9eb4-99e0a744ff38","019cf037-5203-781a-b900-108ccb1cab86","","784","
                <div class=""stimulus-container"">
                    <img src=""images/causal_sequence/coin_causal/coin_causal_8.png"" class=""exp-image"">
                    <div class=""question-area"">
                        <p style=""font-size: 20px; font-weight: bold; margin: 0;"">Is there a person in this image?</p>
                    </div>
                </div>","0","main_experiment_trial","8","coin_causal","causal_sequence","","","","",""
"","","","","","html-keyboard-response","159","571892","0.0-159.0","B20B2430F6984DA294167BBD904B22CF","019cf0d7-d810-7407-9eb4-99e0a744ff38","019cf037-5203-781a-b900-108ccb1cab86","","null","
                <div class=""stimulus-container"">
                    <img src=""images/causal_sequence/coin_causal/coin_causal_9.png"" class=""exp-image"">
                    <div class=""question-area""></div> 
                </div>","null","","","","","","","","",""
"","","","","","html-button-response","160","572692","0.0-160.0","B20B2430F6984DA294167BBD904B22CF","019cf0d7-d810-7407-9eb4-99e0a744ff38","019cf037-5203-781a-b900-108ccb1cab86","","798","
                <div class=""stimulus-container"">
                    <img src=""images/causal_sequence/coin_causal/coin_causal_9.png"" class=""exp-image"">
                    <div class=""question-area"">
                        <p style=""font-size: 20px; font-weight: bold; margin: 0;"">Is there a person in this image?</p>
                    </div>
                </div>","0","main_experiment_trial","9","coin_causal","causal_sequence","","","","",""
"","","","","","html-keyboard-response","161","577704","0.0-161.0","B20B2430F6984DA294167BBD904B22CF","019cf0d7-d810-7407-9eb4-99e0a744ff38","019cf037-5203-781a-b900-108ccb1cab86","","null","
                <div class=""stimulus-container"">
                    <img src=""images/causal_sequence/coin_causal/coin_causal_ten.png"" class=""exp-image"">
                    <div class=""question-area""></div> 
                </div>","null","","","","","","","","",""
"","","","","","html-button-response","162","578354","0.0-162.0","B20B2430F6984DA294167BBD904B22CF","019cf0d7-d810-7407-9eb4-99e0a744ff38","019cf037-5203-781a-b900-108ccb1cab86","","649","
                <div class=""stimulus-container"">
                    <img src=""images/causal_sequence/coin_causal/coin_causal_ten.png"" class=""exp-image"">
                    <div class=""question-area"">
                        <p style=""font-size: 20px; font-weight: bold; margin: 0;"">Is there a person in this image?</p>
                    </div>
                </div>","0","main_experiment_trial","ten","coin_causal","causal_sequence","","","","",""
"","","","","","html-keyboard-response","163","579369","0.0-163.0","B20B2430F6984DA294167BBD904B22CF","019cf0d7-d810-7407-9eb4-99e0a744ff38","019cf037-5203-781a-b900-108ccb1cab86","","null","<div style=""background-color: white; width: 100vw; height: 100vh;""></div>","null","","","","","","","","",""
"","","","","","html-keyboard-response","164","584380","0.0-164.0","B20B2430F6984DA294167BBD904B22CF","019cf0d7-d810-7407-9eb4-99e0a744ff38","019cf037-5203-781a-b900-108ccb1cab86","","null","
                <div class=""stimulus-container"">
                    <img src=""images/causal_sequence/the_performance_causal/the_performance_causal_1.png"" class=""exp-image"">
                    <div class=""question-area""></div> 
                </div>","null","","","","","","","","",""
"","","","","","html-button-response","165","584850","0.0-165.0","B20B2430F6984DA294167BBD904B22CF","019cf0d7-d810-7407-9eb4-99e0a744ff38","019cf037-5203-781a-b900-108ccb1cab86","","469","
                <div class=""stimulus-container"">
                    <img src=""images/causal_sequence/the_performance_causal/the_performance_causal_1.png"" class=""exp-image"">
                    <div class=""question-area"">
                        <p style=""font-size: 20px; font-weight: bold; margin: 0;"">Is there a person in this image?</p>
                    </div>
                </div>","0","main_experiment_trial","1","the_performance_causal","causal_sequence","","","","",""
"","","","","","html-keyboard-response","166","589859","0.0-166.0","B20B2430F6984DA294167BBD904B22CF","019cf0d7-d810-7407-9eb4-99e0a744ff38","019cf037-5203-781a-b900-108ccb1cab86","","null","
                <div class=""stimulus-container"">
                    <img src=""images/causal_sequence/the_performance_causal/the_performance_causal_2.png"" class=""exp-image"">
                    <div class=""question-area""></div> 
                </div>","null","","","","","","","","",""
"","","","","","html-button-response","167","590334","0.0-167.0","B20B2430F6984DA294167BBD904B22CF","019cf0d7-d810-7407-9eb4-99e0a744ff38","019cf037-5203-781a-b900-108ccb1cab86","","474","
                <div class=""stimulus-container"">
                    <img src=""images/causal_sequence/the_performance_causal/the_performance_causal_2.png"" class=""exp-image"">
                    <div class=""question-area"">
                        <p style=""font-size: 20px; font-weight: bold; margin: 0;"">Is there a person in this image?</p>
                    </div>
                </div>","0","main_experiment_trial","2","the_performance_causal","causal_sequence","","","","",""
"","","","","","html-keyboard-response","168","595342","0.0-168.0","B20B2430F6984DA294167BBD904B22CF","019cf0d7-d810-7407-9eb4-99e0a744ff38","019cf037-5203-781a-b900-108ccb1cab86","","null","
                <div class=""stimulus-container"">
                    <img src=""images/causal_sequence/the_performance_causal/the_performance_causal_3.png"" class=""exp-image"">
                    <div class=""question-area""></div> 
                </div>","null","","","","","","","","",""
"","","","","","html-button-response","169","595905","0.0-169.0","B20B2430F6984DA294167BBD904B22CF","019cf0d7-d810-7407-9eb4-99e0a744ff38","019cf037-5203-781a-b900-108ccb1cab86","","562","
                <div class=""stimulus-container"">
                    <img src=""images/causal_sequence/the_performance_causal/the_performance_causal_3.png"" class=""exp-image"">
                    <div class=""question-area"">
                        <p style=""font-size: 20px; font-weight: bold; margin: 0;"">Is there a person in this image?</p>
                    </div>
                </div>","0","main_experiment_trial","3","the_performance_causal","causal_sequence","","","","",""
"","","","","","html-keyboard-response","170","600912","0.0-170.0","B20B2430F6984DA294167BBD904B22CF","019cf0d7-d810-7407-9eb4-99e0a744ff38","019cf037-5203-781a-b900-108ccb1cab86","","null","
                <div class=""stimulus-container"">
                    <img src=""images/causal_sequence/the_performance_causal/the_performance_causal_4.png"" class=""exp-image"">
                    <div class=""question-area""></div> 
                </div>","null","","","","","","","","",""
"","","","","","html-button-response","171","601580","0.0-171.0","B20B2430F6984DA294167BBD904B22CF","019cf0d7-d810-7407-9eb4-99e0a744ff38","019cf037-5203-781a-b900-108ccb1cab86","","667","
                <div class=""stimulus-container"">
                    <img src=""images/causal_sequence/the_performance_causal/the_performance_causal_4.png"" class=""exp-image"">
                    <div class=""question-area"">
                        <p style=""font-size: 20px; font-weight: bold; margin: 0;"">Is there a person in this image?</p>
                    </div>
                </div>","0","main_experiment_trial","4","the_performance_causal","causal_sequence","","","","",""
"","","","","","html-keyboard-response","172","606585","0.0-172.0","B20B2430F6984DA294167BBD904B22CF","019cf0d7-d810-7407-9eb4-99e0a744ff38","019cf037-5203-781a-b900-108ccb1cab86","","null","
                <div class=""stimulus-container"">
                    <img src=""images/causal_sequence/the_performance_causal/the_performance_causal_5.png"" class=""exp-image"">
                    <div class=""question-area""></div> 
                </div>","null","","","","","","","","",""
"","","","","","html-button-response","173","607044","0.0-173.0","B20B2430F6984DA294167BBD904B22CF","019cf0d7-d810-7407-9eb4-99e0a744ff38","019cf037-5203-781a-b900-108ccb1cab86","","458","
                <div class=""stimulus-container"">
                    <img src=""images/causal_sequence/the_performance_causal/the_performance_causal_5.png"" class=""exp-image"">
                    <div class=""question-area"">
                        <p style=""font-size: 20px; font-weight: bold; margin: 0;"">Is there a person in this image?</p>
                    </div>
                </div>","0","main_experiment_trial","5","the_performance_causal","causal_sequence","","","","",""
"","","","","","html-keyboard-response","174","612048","0.0-174.0","B20B2430F6984DA294167BBD904B22CF","019cf0d7-d810-7407-9eb4-99e0a744ff38","019cf037-5203-781a-b900-108ccb1cab86","","null","
                <div class=""stimulus-container"">
                    <img src=""images/causal_sequence/the_performance_causal/the_performance_causal_6.png"" class=""exp-image"">
                    <div class=""question-area""></div> 
                </div>","null","","","","","","","","",""
"","","","","","html-button-response","175","612701","0.0-175.0","B20B2430F6984DA294167BBD904B22CF","019cf0d7-d810-7407-9eb4-99e0a744ff38","019cf037-5203-781a-b900-108ccb1cab86","","652","
                <div class=""stimulus-container"">
                    <img src=""images/causal_sequence/the_performance_causal/the_performance_causal_6.png"" class=""exp-image"">
                    <div class=""question-area"">
                        <p style=""font-size: 20px; font-weight: bold; margin: 0;"">Is there a person in this image?</p>
                    </div>
                </div>","0","main_experiment_trial","6","the_performance_causal","causal_sequence","","","","",""
"","","","","","html-keyboard-response","176","617714","0.0-176.0","B20B2430F6984DA294167BBD904B22CF","019cf0d7-d810-7407-9eb4-99e0a744ff38","019cf037-5203-781a-b900-108ccb1cab86","","null","
                <div class=""stimulus-container"">
                    <img src=""images/causal_sequence/the_performance_causal/the_performance_causal_7.png"" class=""exp-image"">
                    <div class=""question-area""></div> 
                </div>","null","","","","","","","","",""
"","","","","","html-button-response","177","618142","0.0-177.0","B20B2430F6984DA294167BBD904B22CF","019cf0d7-d810-7407-9eb4-99e0a744ff38","019cf037-5203-781a-b900-108ccb1cab86","","428","
                <div class=""stimulus-container"">
                    <img src=""images/causal_sequence/the_performance_causal/the_performance_causal_7.png"" class=""exp-image"">
                    <div class=""question-area"">
                        <p style=""font-size: 20px; font-weight: bold; margin: 0;"">Is there a person in this image?</p>
                    </div>
                </div>","0","main_experiment_trial","7","the_performance_causal","causal_sequence","","","","",""
"","","","","","html-keyboard-response","178","623158","0.0-178.0","B20B2430F6984DA294167BBD904B22CF","019cf0d7-d810-7407-9eb4-99e0a744ff38","019cf037-5203-781a-b900-108ccb1cab86","","null","
                <div class=""stimulus-container"">
                    <img src=""images/causal_sequence/the_performance_causal/the_performance_causal_8.png"" class=""exp-image"">
                    <div class=""question-area""></div> 
                </div>","null","","","","","","","","",""
"","","","","","html-button-response","179","623692","0.0-179.0","B20B2430F6984DA294167BBD904B22CF","019cf0d7-d810-7407-9eb4-99e0a744ff38","019cf037-5203-781a-b900-108ccb1cab86","","534","
                <div class=""stimulus-container"">
                    <img src=""images/causal_sequence/the_performance_causal/the_performance_causal_8.png"" class=""exp-image"">
                    <div class=""question-area"">
                        <p style=""font-size: 20px; font-weight: bold; margin: 0;"">Is there a person in this image?</p>
                    </div>
                </div>","0","main_experiment_trial","8","the_performance_causal","causal_sequence","","","","",""
"","","","","","html-keyboard-response","180","628698","0.0-180.0","B20B2430F6984DA294167BBD904B22CF","019cf0d7-d810-7407-9eb4-99e0a744ff38","019cf037-5203-781a-b900-108ccb1cab86","","null","
                <div class=""stimulus-container"">
                    <img src=""images/causal_sequence/the_performance_causal/the_performance_causal_9.png"" class=""exp-image"">
                    <div class=""question-area""></div> 
                </div>","null","","","","","","","","",""
"","","","","","html-button-response","181","629201","0.0-181.0","B20B2430F6984DA294167BBD904B22CF","019cf0d7-d810-7407-9eb4-99e0a744ff38","019cf037-5203-781a-b900-108ccb1cab86","","501","
                <div class=""stimulus-container"">
                    <img src=""images/causal_sequence/the_performance_causal/the_performance_causal_9.png"" class=""exp-image"">
                    <div class=""question-area"">
                        <p style=""font-size: 20px; font-weight: bold; margin: 0;"">Is there a person in this image?</p>
                    </div>
                </div>","0","main_experiment_trial","9","the_performance_causal","causal_sequence","","","","",""
"","","","","","html-keyboard-response","182","634205","0.0-182.0","B20B2430F6984DA294167BBD904B22CF","019cf0d7-d810-7407-9eb4-99e0a744ff38","019cf037-5203-781a-b900-108ccb1cab86","","null","
                <div class=""stimulus-container"">
                    <img src=""images/causal_sequence/the_performance_causal/the_performance_causal_ten.png"" class=""exp-image"">
                    <div class=""question-area""></div> 
                </div>","null","","","","","","","","",""
"","","","","","html-button-response","183","634773","0.0-183.0","B20B2430F6984DA294167BBD904B22CF","019cf0d7-d810-7407-9eb4-99e0a744ff38","019cf037-5203-781a-b900-108ccb1cab86","","567","
