"success","timeout","failed_images","failed_audio","failed_video","trial_type","trial_index","time_elapsed","internal_node_id","subject_id","study_id","session_id","view_history","rt","stimulus","response","task","image_index","folder","sequence_type","presentation_order","valuable_image_index","reward_type","distance_from_x","target_X","chosen_image_index","is_x_plus_dist","correct_choice"
"true","false","[]","[]","[]","preload","0","3769","0.0-0.0","72F4920CFD57458689AF44F25973D167","019cfa84-2b53-79ae-8cd3-3b0a3f19e5a5","019cfa3a-388e-72ab-ad58-bdeb258f96cd","","","","","","","","","","","","","","","",""
"","","","","","instructions","1","9475","0.0-1.0","72F4920CFD57458689AF44F25973D167","019cfa84-2b53-79ae-8cd3-3b0a3f19e5a5","019cfa3a-388e-72ab-ad58-bdeb258f96cd","[{""page_index"":0,""viewing_time"":5705}]","5705","","","","","","","","","","","","","",""
"","","","","","instructions","2","26655","0.0-2.0","72F4920CFD57458689AF44F25973D167","019cfa84-2b53-79ae-8cd3-3b0a3f19e5a5","019cfa3a-388e-72ab-ad58-bdeb258f96cd","[{""page_index"":0,""viewing_time"":17179}]","17179","","","","","","","","","","","","","",""
"true","","","","","fullscreen","3","30107","0.0-3.0","72F4920CFD57458689AF44F25973D167","019cfa84-2b53-79ae-8cd3-3b0a3f19e5a5","019cfa3a-388e-72ab-ad58-bdeb258f96cd","","2448","","","","","","","","","","","","","",""
"","","","","","instructions","4","44068","0.0-4.0","72F4920CFD57458689AF44F25973D167","019cfa84-2b53-79ae-8cd3-3b0a3f19e5a5","019cfa3a-388e-72ab-ad58-bdeb258f96cd","[{""page_index"":0,""viewing_time"":13960}]","13960","","","","","","","","","","","","","",""
"","","","","","instructions","5","65240","0.0-5.0","72F4920CFD57458689AF44F25973D167","019cfa84-2b53-79ae-8cd3-3b0a3f19e5a5","019cfa3a-388e-72ab-ad58-bdeb258f96cd","[{""page_index"":0,""viewing_time"":21171}]","21171","","","","","","","","","","","","","",""
"","","","","","html-keyboard-response","6","69485","0.0-6.0","72F4920CFD57458689AF44F25973D167","019cfa84-2b53-79ae-8cd3-3b0a3f19e5a5","019cfa3a-388e-72ab-ad58-bdeb258f96cd","","null","
                <div class=""stimulus-container"">
                    <img src=""images/instructions/movie_1.png"" class=""exp-image"">
                    <div class=""question-area""></div> 
                </div>","null","","","","","","","","","","","",""
"","","","","","html-button-response","7","71385","0.0-7.0","72F4920CFD57458689AF44F25973D167","019cfa84-2b53-79ae-8cd3-3b0a3f19e5a5","019cfa3a-388e-72ab-ad58-bdeb258f96cd","","1898","
                <div class=""stimulus-container"">
                    <img src=""images/instructions/movie_1.png"" class=""exp-image"">
                    <div class=""question-area"">
                        <p style=""font-size: 20px; font-weight: bold; margin: 0;"">Was there a person in this image?</p>
                    </div>
                </div>","0","example_question","1","","","","","","","","","",""
"","","","","","html-keyboard-response","8","75390","0.0-8.0","72F4920CFD57458689AF44F25973D167","019cfa84-2b53-79ae-8cd3-3b0a3f19e5a5","019cfa3a-388e-72ab-ad58-bdeb258f96cd","","null","
                <div class=""stimulus-container"">
                    <img src=""images/instructions/movie_2.png"" class=""exp-image"">
                    <div class=""question-area""></div> 
                </div>","null","","","","","","","","","","","",""
"","","","","","html-button-response","9","76852","0.0-9.0","72F4920CFD57458689AF44F25973D167","019cfa84-2b53-79ae-8cd3-3b0a3f19e5a5","019cfa3a-388e-72ab-ad58-bdeb258f96cd","","1460","
                <div class=""stimulus-container"">
                    <img src=""images/instructions/movie_2.png"" class=""exp-image"">
                    <div class=""question-area"">
                        <p style=""font-size: 20px; font-weight: bold; margin: 0;"">Was there a person in this image?</p>
                    </div>
                </div>","0","example_question","2","","","","","","","","","",""
"","","","","","html-keyboard-response","10","80857","0.0-10.0","72F4920CFD57458689AF44F25973D167","019cfa84-2b53-79ae-8cd3-3b0a3f19e5a5","019cfa3a-388e-72ab-ad58-bdeb258f96cd","","null","
                <div class=""stimulus-container"">
                    <img src=""images/instructions/movie_3.png"" class=""exp-image"">
                    <div class=""question-area""></div> 
                </div>","null","","","","","","","","","","","",""
"","","","","","html-button-response","11","82300","0.0-11.0","72F4920CFD57458689AF44F25973D167","019cfa84-2b53-79ae-8cd3-3b0a3f19e5a5","019cfa3a-388e-72ab-ad58-bdeb258f96cd","","1443","
                <div class=""stimulus-container"">
                    <img src=""images/instructions/movie_3.png"" class=""exp-image"">
                    <div class=""question-area"">
                        <p style=""font-size: 20px; font-weight: bold; margin: 0;"">Was there a person in this image?</p>
                    </div>
                </div>","0","example_question","3","","","","","","","","","",""
"","","","","","html-keyboard-response","12","86304","0.0-12.0","72F4920CFD57458689AF44F25973D167","019cfa84-2b53-79ae-8cd3-3b0a3f19e5a5","019cfa3a-388e-72ab-ad58-bdeb258f96cd","","null","
                <div class=""stimulus-container"">
                    <img src=""images/instructions/movie_4.png"" class=""exp-image"">
                    <div class=""question-area""></div> 
                </div>","null","","","","","","","","","","","",""
"","","","","","html-button-response","13","87240","0.0-13.0","72F4920CFD57458689AF44F25973D167","019cfa84-2b53-79ae-8cd3-3b0a3f19e5a5","019cfa3a-388e-72ab-ad58-bdeb258f96cd","","936","
                <div class=""stimulus-container"">
                    <img src=""images/instructions/movie_4.png"" class=""exp-image"">
                    <div class=""question-area"">
                        <p style=""font-size: 20px; font-weight: bold; margin: 0;"">Was there a person in this image?</p>
                    </div>
                </div>","0","example_question","4","","","","","","","","","",""
"","","","","","instructions","14","90356","0.0-14.0","72F4920CFD57458689AF44F25973D167","019cfa84-2b53-79ae-8cd3-3b0a3f19e5a5","019cfa3a-388e-72ab-ad58-bdeb258f96cd","[{""page_index"":0,""viewing_time"":3115}]","3115","","","","","","","","","","","","","",""
"","","","","","instructions","15","99176","0.0-15.0","72F4920CFD57458689AF44F25973D167","019cfa84-2b53-79ae-8cd3-3b0a3f19e5a5","019cfa3a-388e-72ab-ad58-bdeb258f96cd","[{""page_index"":0,""viewing_time"":8820}]","8820","","","","","","","","","","","","","",""
"","","","","","html-keyboard-response","16","104182","0.0-16.0","72F4920CFD57458689AF44F25973D167","019cfa84-2b53-79ae-8cd3-3b0a3f19e5a5","019cfa3a-388e-72ab-ad58-bdeb258f96cd","","null","<div style=""background-color: white; width: 100vw; height: 100vh;""></div>","null","","","","","","","","","","","",""
"","","","","","html-keyboard-response","17","105186","0.0-17.0","72F4920CFD57458689AF44F25973D167","019cfa84-2b53-79ae-8cd3-3b0a3f19e5a5","019cfa3a-388e-72ab-ad58-bdeb258f96cd","","null","
                <div class=""stimulus-container"">
                    <img src=""images/semantic_sequence/housework_semantic/housework_semantic_1.png"" class=""exp-image"">
                    <div class=""question-area""></div> 
                </div>","null","","","","","","","","","","","",""
"","","","","","html-button-response","18","108191","0.0-18.0","72F4920CFD57458689AF44F25973D167","019cfa84-2b53-79ae-8cd3-3b0a3f19e5a5","019cfa3a-388e-72ab-ad58-bdeb258f96cd","","null","
                <div class=""stimulus-container"">
                    <img src=""images/semantic_sequence/housework_semantic/housework_semantic_1.png"" class=""exp-image"">
                    <div class=""question-area"">
                        <p style=""font-size: 20px; font-weight: bold; margin: 0;"">Is there a person in this image?</p>
                    </div>
                </div>","null","main_experiment_trial","1","housework_semantic","semantic_sequence","chronological","","","","","","",""
"","","","","","html-keyboard-response","19","109203","0.0-19.0","72F4920CFD57458689AF44F25973D167","019cfa84-2b53-79ae-8cd3-3b0a3f19e5a5","019cfa3a-388e-72ab-ad58-bdeb258f96cd","","null","
                <div class=""stimulus-container"">
                    <img src=""images/semantic_sequence/housework_semantic/housework_semantic_2.png"" class=""exp-image"">
                    <div class=""question-area""></div> 
                </div>","null","","","","","","","","","","","",""
"","","","","","html-button-response","20","109997","0.0-20.0","72F4920CFD57458689AF44F25973D167","019cfa84-2b53-79ae-8cd3-3b0a3f19e5a5","019cfa3a-388e-72ab-ad58-bdeb258f96cd","","793","
                <div class=""stimulus-container"">
                    <img src=""images/semantic_sequence/housework_semantic/housework_semantic_2.png"" class=""exp-image"">
                    <div class=""question-area"">
                        <p style=""font-size: 20px; font-weight: bold; margin: 0;"">Is there a person in this image?</p>
                    </div>
                </div>","0","main_experiment_trial","2","housework_semantic","semantic_sequence","chronological","","","","","","",""
"","","","","","html-keyboard-response","21","111007","0.0-21.0","72F4920CFD57458689AF44F25973D167","019cfa84-2b53-79ae-8cd3-3b0a3f19e5a5","019cfa3a-388e-72ab-ad58-bdeb258f96cd","","null","
                <div class=""stimulus-container"">
                    <img src=""images/semantic_sequence/housework_semantic/housework_semantic_3.png"" class=""exp-image"">
                    <div class=""question-area""></div> 
                </div>","null","","","","","","","","","","","",""
"","","","","","html-button-response","22","111599","0.0-22.0","72F4920CFD57458689AF44F25973D167","019cfa84-2b53-79ae-8cd3-3b0a3f19e5a5","019cfa3a-388e-72ab-ad58-bdeb258f96cd","","592","
                <div class=""stimulus-container"">
                    <img src=""images/semantic_sequence/housework_semantic/housework_semantic_3.png"" class=""exp-image"">
                    <div class=""question-area"">
                        <p style=""font-size: 20px; font-weight: bold; margin: 0;"">Is there a person in this image?</p>
                    </div>
                </div>","0","main_experiment_trial","3","housework_semantic","semantic_sequence","chronological","","","","","","",""
"","","","","","html-keyboard-response","23","112601","0.0-23.0","72F4920CFD57458689AF44F25973D167","019cfa84-2b53-79ae-8cd3-3b0a3f19e5a5","019cfa3a-388e-72ab-ad58-bdeb258f96cd","","null","
                <div class=""stimulus-container"">
                    <img src=""images/semantic_sequence/housework_semantic/housework_semantic_4.png"" class=""exp-image"">
                    <div class=""question-area""></div> 
                </div>","null","","","","","","","","","","","",""
"","","","","","html-button-response","24","113324","0.0-24.0","72F4920CFD57458689AF44F25973D167","019cfa84-2b53-79ae-8cd3-3b0a3f19e5a5","019cfa3a-388e-72ab-ad58-bdeb258f96cd","","722","
                <div class=""stimulus-container"">
                    <img src=""images/semantic_sequence/housework_semantic/housework_semantic_4.png"" class=""exp-image"">
                    <div class=""question-area"">
                        <p style=""font-size: 20px; font-weight: bold; margin: 0;"">Is there a person in this image?</p>
                    </div>
                </div>","0","main_experiment_trial","4","housework_semantic","semantic_sequence","chronological","","","","","","",""
"","","","","","html-keyboard-response","25","114376","0.0-25.0","72F4920CFD57458689AF44F25973D167","019cfa84-2b53-79ae-8cd3-3b0a3f19e5a5","019cfa3a-388e-72ab-ad58-bdeb258f96cd","","null","
                <div class=""stimulus-container"">
                    <img src=""images/semantic_sequence/housework_semantic/housework_semantic_5.png"" class=""exp-image"">
                    <div class=""question-area""></div> 
                </div>","null","","","","","","","","","","","",""
"","","","","","html-button-response","26","114941","0.0-26.0","72F4920CFD57458689AF44F25973D167","019cfa84-2b53-79ae-8cd3-3b0a3f19e5a5","019cfa3a-388e-72ab-ad58-bdeb258f96cd","","564","
                <div class=""stimulus-container"">
                    <img src=""images/semantic_sequence/housework_semantic/housework_semantic_5.png"" class=""exp-image"">
                    <div class=""question-area"">
                        <p style=""font-size: 20px; font-weight: bold; margin: 0;"">Is there a person in this image?</p>
                    </div>
                </div>","0","main_experiment_trial","5","housework_semantic","semantic_sequence","chronological","","","","","","",""
"","","","","","html-keyboard-response","27","115951","0.0-27.0","72F4920CFD57458689AF44F25973D167","019cfa84-2b53-79ae-8cd3-3b0a3f19e5a5","019cfa3a-388e-72ab-ad58-bdeb258f96cd","","null","
                <div class=""stimulus-container"">
                    <img src=""images/semantic_sequence/housework_semantic/housework_semantic_6.png"" class=""exp-image"">
                    <div class=""question-area""></div> 
                </div>","null","","","","","","","","","","","",""
"","","","","","html-button-response","28","116508","0.0-28.0","72F4920CFD57458689AF44F25973D167","019cfa84-2b53-79ae-8cd3-3b0a3f19e5a5","019cfa3a-388e-72ab-ad58-bdeb258f96cd","","557","
                <div class=""stimulus-container"">
                    <img src=""images/semantic_sequence/housework_semantic/housework_semantic_6.png"" class=""exp-image"">
                    <div class=""question-area"">
                        <p style=""font-size: 20px; font-weight: bold; margin: 0;"">Is there a person in this image?</p>
                    </div>
                </div>","0","main_experiment_trial","6","housework_semantic","semantic_sequence","chronological","","","","","","",""
"","","","","","html-keyboard-response","29","117513","0.0-29.0","72F4920CFD57458689AF44F25973D167","019cfa84-2b53-79ae-8cd3-3b0a3f19e5a5","019cfa3a-388e-72ab-ad58-bdeb258f96cd","","null","
                <div class=""stimulus-container"">
                    <img src=""images/semantic_sequence/housework_semantic/housework_semantic_7.png"" class=""exp-image"">
                    <div class=""question-area""></div> 
                </div>","null","","","","","","","","","","","",""
"","","","","","html-button-response","30","118152","0.0-30.0","72F4920CFD57458689AF44F25973D167","019cfa84-2b53-79ae-8cd3-3b0a3f19e5a5","019cfa3a-388e-72ab-ad58-bdeb258f96cd","","638","
                <div class=""stimulus-container"">
                    <img src=""images/semantic_sequence/housework_semantic/housework_semantic_7.png"" class=""exp-image"">
                    <div class=""question-area"">
                        <p style=""font-size: 20px; font-weight: bold; margin: 0;"">Is there a person in this image?</p>
                    </div>
                </div>","1","main_experiment_trial","7","housework_semantic","semantic_sequence","chronological","","","","","","",""
"","","","","","html-keyboard-response","31","119167","0.0-31.0","72F4920CFD57458689AF44F25973D167","019cfa84-2b53-79ae-8cd3-3b0a3f19e5a5","019cfa3a-388e-72ab-ad58-bdeb258f96cd","","null","
                <div class=""stimulus-container"">
                    <img src=""images/semantic_sequence/housework_semantic/housework_semantic_8.png"" class=""exp-image"">
                    <div class=""question-area""></div> 
                </div>","null","","","","","","","","","","","",""
"","","","","","html-button-response","32","119713","0.0-32.0","72F4920CFD57458689AF44F25973D167","019cfa84-2b53-79ae-8cd3-3b0a3f19e5a5","019cfa3a-388e-72ab-ad58-bdeb258f96cd","","545","
                <div class=""stimulus-container"">
                    <img src=""images/semantic_sequence/housework_semantic/housework_semantic_8.png"" class=""exp-image"">
                    <div class=""question-area"">
                        <p style=""font-size: 20px; font-weight: bold; margin: 0;"">Is there a person in this image?</p>
                    </div>
                </div>","0","main_experiment_trial","8","housework_semantic","semantic_sequence","chronological","","","","","","",""
"","","","","","html-keyboard-response","33","120723","0.0-33.0","72F4920CFD57458689AF44F25973D167","019cfa84-2b53-79ae-8cd3-3b0a3f19e5a5","019cfa3a-388e-72ab-ad58-bdeb258f96cd","","null","
                <div class=""stimulus-container"">
                    <img src=""images/semantic_sequence/housework_semantic/housework_semantic_9.png"" class=""exp-image"">
                    <div class=""question-area""></div> 
                </div>","null","","","","","","","","","","","",""
"","","","","","html-button-response","34","121164","0.0-34.0","72F4920CFD57458689AF44F25973D167","019cfa84-2b53-79ae-8cd3-3b0a3f19e5a5","019cfa3a-388e-72ab-ad58-bdeb258f96cd","","441","
                <div class=""stimulus-container"">
                    <img src=""images/semantic_sequence/housework_semantic/housework_semantic_9.png"" class=""exp-image"">
                    <div class=""question-area"">
                        <p style=""font-size: 20px; font-weight: bold; margin: 0;"">Is there a person in this image?</p>
                    </div>
                </div>","0","main_experiment_trial","9","housework_semantic","semantic_sequence","chronological","","","","","","",""
"","","","","","html-keyboard-response","35","122168","0.0-35.0","72F4920CFD57458689AF44F25973D167","019cfa84-2b53-79ae-8cd3-3b0a3f19e5a5","019cfa3a-388e-72ab-ad58-bdeb258f96cd","","null","
                <div class=""stimulus-container"">
                    <img src=""images/semantic_sequence/housework_semantic/housework_semantic_ten.png"" class=""exp-image"">
                    <div class=""question-area""></div> 
                </div>","null","","","","","","","","","","","",""
"","","","","","html-button-response","36","122573","0.0-36.0","72F4920CFD57458689AF44F25973D167","019cfa84-2b53-79ae-8cd3-3b0a3f19e5a5","019cfa3a-388e-72ab-ad58-bdeb258f96cd","","404","
                <div class=""stimulus-container"">
                    <img src=""images/semantic_sequence/housework_semantic/housework_semantic_ten.png"" class=""exp-image"">
                    <div class=""question-area"">
                        <p style=""font-size: 20px; font-weight: bold; margin: 0;"">Is there a person in this image?</p>
                    </div>
                </div>","0","main_experiment_trial","ten","housework_semantic","semantic_sequence","chronological","","","","","","",""
"","","","","","html-keyboard-response","37","128189","0.0-37.0","72F4920CFD57458689AF44F25973D167","019cfa84-2b53-79ae-8cd3-3b0a3f19e5a5","019cfa3a-388e-72ab-ad58-bdeb258f96cd","","null","<div style=""background-color: white; width: 100vw; height: 100vh;""></div>","null","","","","","","","","","","","",""
"","","","","","html-keyboard-response","38","129190","0.0-38.0","72F4920CFD57458689AF44F25973D167","019cfa84-2b53-79ae-8cd3-3b0a3f19e5a5","019cfa3a-388e-72ab-ad58-bdeb258f96cd","","null","
                <div class=""stimulus-container"">
                    <img src=""images/semantic_sequence/exploring_nature_semantic/exploring_nature_semantic_1.png"" class=""exp-image"">
                    <div class=""question-area""></div> 
                </div>","null","","","","","","","","","","","",""
"","","","","","html-button-response","39","130220","0.0-39.0","72F4920CFD57458689AF44F25973D167","019cfa84-2b53-79ae-8cd3-3b0a3f19e5a5","019cfa3a-388e-72ab-ad58-bdeb258f96cd","","1030","
                <div class=""stimulus-container"">
                    <img src=""images/semantic_sequence/exploring_nature_semantic/exploring_nature_semantic_1.png"" class=""exp-image"">
                    <div class=""question-area"">
                        <p style=""font-size: 20px; font-weight: bold; margin: 0;"">Is there a person in this image?</p>
                    </div>
                </div>","0","main_experiment_trial","1","exploring_nature_semantic","semantic_sequence","chronological","","","","","","",""
"","","","","","html-keyboard-response","40","131232","0.0-40.0","72F4920CFD57458689AF44F25973D167","019cfa84-2b53-79ae-8cd3-3b0a3f19e5a5","019cfa3a-388e-72ab-ad58-bdeb258f96cd","","null","
                <div class=""stimulus-container"">
                    <img src=""images/semantic_sequence/exploring_nature_semantic/exploring_nature_semantic_2.png"" class=""exp-image"">
                    <div class=""question-area""></div> 
                </div>","null","","","","","","","","","","","",""
"","","","","","html-button-response","41","131789","0.0-41.0","72F4920CFD57458689AF44F25973D167","019cfa84-2b53-79ae-8cd3-3b0a3f19e5a5","019cfa3a-388e-72ab-ad58-bdeb258f96cd","","556","
                <div class=""stimulus-container"">
                    <img src=""images/semantic_sequence/exploring_nature_semantic/exploring_nature_semantic_2.png"" class=""exp-image"">
                    <div class=""question-area"">
                        <p style=""font-size: 20px; font-weight: bold; margin: 0;"">Is there a person in this image?</p>
                    </div>
                </div>","0","main_experiment_trial","2","exploring_nature_semantic","semantic_sequence","chronological","","","","","","",""
"","","","","","html-keyboard-response","42","132806","0.0-42.0","72F4920CFD57458689AF44F25973D167","019cfa84-2b53-79ae-8cd3-3b0a3f19e5a5","019cfa3a-388e-72ab-ad58-bdeb258f96cd","","null","
                <div class=""stimulus-container"">
                    <img src=""images/semantic_sequence/exploring_nature_semantic/exploring_nature_semantic_3.png"" class=""exp-image"">
                    <div class=""question-area""></div> 
                </div>","null","","","","","","","","","","","",""
"","","","","","html-button-response","43","133276","0.0-43.0","72F4920CFD57458689AF44F25973D167","019cfa84-2b53-79ae-8cd3-3b0a3f19e5a5","019cfa3a-388e-72ab-ad58-bdeb258f96cd","","469","
                <div class=""stimulus-container"">
                    <img src=""images/semantic_sequence/exploring_nature_semantic/exploring_nature_semantic_3.png"" class=""exp-image"">
                    <div class=""question-area"">
                        <p style=""font-size: 20px; font-weight: bold; margin: 0;"">Is there a person in this image?</p>
                    </div>
                </div>","0","main_experiment_trial","3","exploring_nature_semantic","semantic_sequence","chronological","","","","","","",""
"","","","","","html-keyboard-response","44","134281","0.0-44.0","72F4920CFD57458689AF44F25973D167","019cfa84-2b53-79ae-8cd3-3b0a3f19e5a5","019cfa3a-388e-72ab-ad58-bdeb258f96cd","","null","
                <div class=""stimulus-container"">
                    <img src=""images/semantic_sequence/exploring_nature_semantic/exploring_nature_semantic_4.png"" class=""exp-image"">
                    <div class=""question-area""></div> 
                </div>","null","","","","","","","","","","","",""
"","","","","","html-button-response","45","134692","0.0-45.0","72F4920CFD57458689AF44F25973D167","019cfa84-2b53-79ae-8cd3-3b0a3f19e5a5","019cfa3a-388e-72ab-ad58-bdeb258f96cd","","411","
                <div class=""stimulus-container"">
                    <img src=""images/semantic_sequence/exploring_nature_semantic/exploring_nature_semantic_4.png"" class=""exp-image"">
                    <div class=""question-area"">
                        <p style=""font-size: 20px; font-weight: bold; margin: 0;"">Is there a person in this image?</p>
                    </div>
                </div>","0","main_experiment_trial","4","exploring_nature_semantic","semantic_sequence","chronological","","","","","","",""
"","","","","","html-keyboard-response","46","135700","0.0-46.0","72F4920CFD57458689AF44F25973D167","019cfa84-2b53-79ae-8cd3-3b0a3f19e5a5","019cfa3a-388e-72ab-ad58-bdeb258f96cd","","null","
                <div class=""stimulus-container"">
                    <img src=""images/semantic_sequence/exploring_nature_semantic/exploring_nature_semantic_5.png"" class=""exp-image"">
                    <div class=""question-area""></div> 
                </div>","null","","","","","","","","","","","",""
"","","","","","html-button-response","47","136085","0.0-47.0","72F4920CFD57458689AF44F25973D167","019cfa84-2b53-79ae-8cd3-3b0a3f19e5a5","019cfa3a-388e-72ab-ad58-bdeb258f96cd","","384","
                <div class=""stimulus-container"">
                    <img src=""images/semantic_sequence/exploring_nature_semantic/exploring_nature_semantic_5.png"" class=""exp-image"">
                    <div class=""question-area"">
                        <p style=""font-size: 20px; font-weight: bold; margin: 0;"">Is there a person in this image?</p>
                    </div>
                </div>","0","main_experiment_trial","5","exploring_nature_semantic","semantic_sequence","chronological","","","","","","",""
"","","","","","html-keyboard-response","48","137095","0.0-48.0","72F4920CFD57458689AF44F25973D167","019cfa84-2b53-79ae-8cd3-3b0a3f19e5a5","019cfa3a-388e-72ab-ad58-bdeb258f96cd","","null","
                <div class=""stimulus-container"">
                    <img src=""images/semantic_sequence/exploring_nature_semantic/exploring_nature_semantic_6.png"" class=""exp-image"">
                    <div class=""question-area""></div> 
                </div>","null","","","","","","","","","","","",""
"","","","","","html-button-response","49","138388","0.0-49.0","72F4920CFD57458689AF44F25973D167","019cfa84-2b53-79ae-8cd3-3b0a3f19e5a5","019cfa3a-388e-72ab-ad58-bdeb258f96cd","","1293","
                <div class=""stimulus-container"">
                    <img src=""images/semantic_sequence/exploring_nature_semantic/exploring_nature_semantic_6.png"" class=""exp-image"">
                    <div class=""question-area"">
                        <p style=""font-size: 20px; font-weight: bold; margin: 0;"">Is there a person in this image?</p>
                    </div>
                </div>","0","main_experiment_trial","6","exploring_nature_semantic","semantic_sequence","chronological","","","","","","",""
"","","","","","html-keyboard-response","50","139395","0.0-50.0","72F4920CFD57458689AF44F25973D167","019cfa84-2b53-79ae-8cd3-3b0a3f19e5a5","019cfa3a-388e-72ab-ad58-bdeb258f96cd","","null","
                <div class=""stimulus-container"">
                    <img src=""images/semantic_sequence/exploring_nature_semantic/exploring_nature_semantic_7.png"" class=""exp-image"">
                    <div class=""question-area""></div> 
                </div>","null","","","","","","","","","","","",""
"","","","","","html-button-response","51","139832","0.0-51.0","72F4920CFD57458689AF44F25973D167","019cfa84-2b53-79ae-8cd3-3b0a3f19e5a5","019cfa3a-388e-72ab-ad58-bdeb258f96cd","","436","
                <div class=""stimulus-container"">
                    <img src=""images/semantic_sequence/exploring_nature_semantic/exploring_nature_semantic_7.png"" class=""exp-image"">
                    <div class=""question-area"">
                        <p style=""font-size: 20px; font-weight: bold; margin: 0;"">Is there a person in this image?</p>
                    </div>
                </div>","0","main_experiment_trial","7","exploring_nature_semantic","semantic_sequence","chronological","","","","","","",""
"","","","","","html-keyboard-response","52","140844","0.0-52.0","72F4920CFD57458689AF44F25973D167","019cfa84-2b53-79ae-8cd3-3b0a3f19e5a5","019cfa3a-388e-72ab-ad58-bdeb258f96cd","","null","
                <div class=""stimulus-container"">
                    <img src=""images/semantic_sequence/exploring_nature_semantic/exploring_nature_semantic_8.png"" class=""exp-image"">
                    <div class=""question-area""></div> 
                </div>","null","","","","","","","","","","","",""
"","","","","","html-button-response","53","141337","0.0-53.0","72F4920CFD57458689AF44F25973D167","019cfa84-2b53-79ae-8cd3-3b0a3f19e5a5","019cfa3a-388e-72ab-ad58-bdeb258f96cd","","491","
                <div class=""stimulus-container"">
                    <img src=""images/semantic_sequence/exploring_nature_semantic/exploring_nature_semantic_8.png"" class=""exp-image"">
                    <div class=""question-area"">
                        <p style=""font-size: 20px; font-weight: bold; margin: 0;"">Is there a person in this image?</p>
                    </div>
                </div>","0","main_experiment_trial","8","exploring_nature_semantic","semantic_sequence","chronological","","","","","","",""
"","","","","","html-keyboard-response","54","142350","0.0-54.0","72F4920CFD57458689AF44F25973D167","019cfa84-2b53-79ae-8cd3-3b0a3f19e5a5","019cfa3a-388e-72ab-ad58-bdeb258f96cd","","null","
                <div class=""stimulus-container"">
                    <img src=""images/semantic_sequence/exploring_nature_semantic/exploring_nature_semantic_9.png"" class=""exp-image"">
                    <div class=""question-area""></div> 
                </div>","null","","","","","","","","","","","",""
"","","","","","html-button-response","55","142765","0.0-55.0","72F4920CFD57458689AF44F25973D167","019cfa84-2b53-79ae-8cd3-3b0a3f19e5a5","019cfa3a-388e-72ab-ad58-bdeb258f96cd","","414","
                <div class=""stimulus-container"">
                    <img src=""images/semantic_sequence/exploring_nature_semantic/exploring_nature_semantic_9.png"" class=""exp-image"">
                    <div class=""question-area"">
                        <p style=""font-size: 20px; font-weight: bold; margin: 0;"">Is there a person in this image?</p>
                    </div>
                </div>","0","main_experiment_trial","9","exploring_nature_semantic","semantic_sequence","chronological","","","","","","",""
"","","","","","html-keyboard-response","56","143773","0.0-56.0","72F4920CFD57458689AF44F25973D167","019cfa84-2b53-79ae-8cd3-3b0a3f19e5a5","019cfa3a-388e-72ab-ad58-bdeb258f96cd","","null","
                <div class=""stimulus-container"">
                    <img src=""images/semantic_sequence/exploring_nature_semantic/exploring_nature_semantic_ten.png"" class=""exp-image"">
                    <div class=""question-area""></div> 
                </div>","null","","","","","","","","","","","",""
"","","","","","html-button-response","57","144129","0.0-57.0","72F4920CFD57458689AF44F25973D167","019cfa84-2b53-79ae-8cd3-3b0a3f19e5a5","019cfa3a-388e-72ab-ad58-bdeb258f96cd","","356","
                <div class=""stimulus-container"">
                    <img src=""images/semantic_sequence/exploring_nature_semantic/exploring_nature_semantic_ten.png"" class=""exp-image"">
                    <div class=""question-area"">
                        <p style=""font-size: 20px; font-weight: bold; margin: 0;"">Is there a person in this image?</p>
                    </div>
                </div>","0","main_experiment_trial","ten","exploring_nature_semantic","semantic_sequence","chronological","","","","","","",""
"","","","","","html-keyboard-response","58","149133","0.0-58.0","72F4920CFD57458689AF44F25973D167","019cfa84-2b53-79ae-8cd3-3b0a3f19e5a5","019cfa3a-388e-72ab-ad58-bdeb258f96cd","","null","<div style=""background-color: white; width: 100vw; height: 100vh;""></div>","null","","","","","","","","","","","",""
"","","","","","html-keyboard-response","59","150142","0.0-59.0","72F4920CFD57458689AF44F25973D167","019cfa84-2b53-79ae-8cd3-3b0a3f19e5a5","019cfa3a-388e-72ab-ad58-bdeb258f96cd","","null","
                <div class=""stimulus-container"">
                    <img src=""images/causal_sequence/the_performance_causal/the_performance_causal_1.png"" class=""exp-image"">
                    <div class=""question-area""></div> 
                </div>","null","","","","","","","","","","","",""
"","","","","","html-button-response","60","152272","0.0-60.0","72F4920CFD57458689AF44F25973D167","019cfa84-2b53-79ae-8cd3-3b0a3f19e5a5","019cfa3a-388e-72ab-ad58-bdeb258f96cd","","2130","
                <div class=""stimulus-container"">
                    <img src=""images/causal_sequence/the_performance_causal/the_performance_causal_1.png"" class=""exp-image"">
                    <div class=""question-area"">
                        <p style=""font-size: 20px; font-weight: bold; margin: 0;"">Is there a person in this image?</p>
                    </div>
                </div>","0","main_experiment_trial","1","the_performance_causal","causal_sequence","chronological","","","","","","",""
"","","","","","html-keyboard-response","61","153277","0.0-61.0","72F4920CFD57458689AF44F25973D167","019cfa84-2b53-79ae-8cd3-3b0a3f19e5a5","019cfa3a-388e-72ab-ad58-bdeb258f96cd","","null","
                <div class=""stimulus-container"">
                    <img src=""images/causal_sequence/the_performance_causal/the_performance_causal_2.png"" class=""exp-image"">
                    <div class=""question-area""></div> 
                </div>","null","","","","","","","","","","","",""
"","","","","","html-button-response","62","154764","0.0-62.0","72F4920CFD57458689AF44F25973D167","019cfa84-2b53-79ae-8cd3-3b0a3f19e5a5","019cfa3a-388e-72ab-ad58-bdeb258f96cd","","1486","
                <div class=""stimulus-container"">
                    <img src=""images/causal_sequence/the_performance_causal/the_performance_causal_2.png"" class=""exp-image"">
                    <div class=""question-area"">
                        <p style=""font-size: 20px; font-weight: bold; margin: 0;"">Is there a person in this image?</p>
                    </div>
                </div>","0","main_experiment_trial","2","the_performance_causal","causal_sequence","chronological","","","","","","",""
"","","","","","html-keyboard-response","63","155778","0.0-63.0","72F4920CFD57458689AF44F25973D167","019cfa84-2b53-79ae-8cd3-3b0a3f19e5a5","019cfa3a-388e-72ab-ad58-bdeb258f96cd","","null","
                <div class=""stimulus-container"">
                    <img src=""images/causal_sequence/the_performance_causal/the_performance_causal_3.png"" class=""exp-image"">
                    <div class=""question-area""></div> 
                </div>","null","","","","","","","","","","","",""
"","","","","","html-button-response","64","156461","0.0-64.0","72F4920CFD57458689AF44F25973D167","019cfa84-2b53-79ae-8cd3-3b0a3f19e5a5","019cfa3a-388e-72ab-ad58-bdeb258f96cd","","682","
                <div class=""stimulus-container"">
                    <img src=""images/causal_sequence/the_performance_causal/the_performance_causal_3.png"" class=""exp-image"">
                    <div class=""question-area"">
                        <p style=""font-size: 20px; font-weight: bold; margin: 0;"">Is there a person in this image?</p>
                    </div>
                </div>","0","main_experiment_trial","3","the_performance_causal","causal_sequence","chronological","","","","","","",""
"","","","","","html-keyboard-response","65","157471","0.0-65.0","72F4920CFD57458689AF44F25973D167","019cfa84-2b53-79ae-8cd3-3b0a3f19e5a5","019cfa3a-388e-72ab-ad58-bdeb258f96cd","","null","
                <div class=""stimulus-container"">
                    <img src=""images/causal_sequence/the_performance_causal/the_performance_causal_4.png"" class=""exp-image"">
                    <div class=""question-area""></div> 
                </div>","null","","","","","","","","","","","",""
"","","","","","html-button-response","66","160304","0.0-66.0","72F4920CFD57458689AF44F25973D167","019cfa84-2b53-79ae-8cd3-3b0a3f19e5a5","019cfa3a-388e-72ab-ad58-bdeb258f96cd","","2832","
                <div class=""stimulus-container"">
                    <img src=""images/causal_sequence/the_performance_causal/the_performance_causal_4.png"" class=""exp-image"">
                    <div class=""question-area"">
                        <p style=""font-size: 20px; font-weight: bold; margin: 0;"">Is there a person in this image?</p>
                    </div>
                </div>","0","main_experiment_trial","4","the_performance_causal","causal_sequence","chronological","","","","","","",""
"","","","","","html-keyboard-response","67","161312","0.0-67.0","72F4920CFD57458689AF44F25973D167","019cfa84-2b53-79ae-8cd3-3b0a3f19e5a5","019cfa3a-388e-72ab-ad58-bdeb258f96cd","","null","
                <div class=""stimulus-container"">
                    <img src=""images/causal_sequence/the_performance_causal/the_performance_causal_5.png"" class=""exp-image"">
                    <div class=""question-area""></div> 
                </div>","null","","","","","","","","","","","",""
"","","","","","html-button-response","68","162013","0.0-68.0","72F4920CFD57458689AF44F25973D167","019cfa84-2b53-79ae-8cd3-3b0a3f19e5a5","019cfa3a-388e-72ab-ad58-bdeb258f96cd","","699","
                <div class=""stimulus-container"">
                    <img src=""images/causal_sequence/the_performance_causal/the_performance_causal_5.png"" class=""exp-image"">
                    <div class=""question-area"">
                        <p style=""font-size: 20px; font-weight: bold; margin: 0;"">Is there a person in this image?</p>
                    </div>
                </div>","0","main_experiment_trial","5","the_performance_causal","causal_sequence","chronological","","","","","","",""
"","","","","","html-keyboard-response","69","163015","0.0-69.0","72F4920CFD57458689AF44F25973D167","019cfa84-2b53-79ae-8cd3-3b0a3f19e5a5","019cfa3a-388e-72ab-ad58-bdeb258f96cd","","null","
                <div class=""stimulus-container"">
                    <img src=""images/causal_sequence/the_performance_causal/the_performance_causal_6.png"" class=""exp-image"">
                    <div class=""question-area""></div> 
                </div>","null","","","","","","","","","","","",""
"","","","","","html-button-response","70","163872","0.0-70.0","72F4920CFD57458689AF44F25973D167","019cfa84-2b53-79ae-8cd3-3b0a3f19e5a5","019cfa3a-388e-72ab-ad58-bdeb258f96cd","","857","
                <div class=""stimulus-container"">
                    <img src=""images/causal_sequence/the_performance_causal/the_performance_causal_6.png"" class=""exp-image"">
                    <div class=""question-area"">
                        <p style=""font-size: 20px; font-weight: bold; margin: 0;"">Is there a person in this image?</p>
                    </div>
                </div>","0","main_experiment_trial","6","the_performance_causal","causal_sequence","chronological","","","","","","",""
"","","","","","html-keyboard-response","71","164888","0.0-71.0","72F4920CFD57458689AF44F25973D167","019cfa84-2b53-79ae-8cd3-3b0a3f19e5a5","019cfa3a-388e-72ab-ad58-bdeb258f96cd","","null","
                <div class=""stimulus-container"">
                    <img src=""images/causal_sequence/the_performance_causal/the_performance_causal_7.png"" class=""exp-image"">
                    <div class=""question-area""></div> 
                </div>","null","","","","","","","","","","","",""
"","","","","","html-button-response","72","166329","0.0-72.0","72F4920CFD57458689AF44F25973D167","019cfa84-2b53-79ae-8cd3-3b0a3f19e5a5","019cfa3a-388e-72ab-ad58-bdeb258f96cd","","1442","
                <div class=""stimulus-container"">
                    <img src=""images/causal_sequence/the_performance_causal/the_performance_causal_7.png"" class=""exp-image"">
                    <div class=""question-area"">
                        <p style=""font-size: 20px; font-weight: bold; margin: 0;"">Is there a person in this image?</p>
                    </div>
                </div>","0","main_experiment_trial","7","the_performance_causal","causal_sequence","chronological","","","","","","",""
"","","","","","html-keyboard-response","73","167343","0.0-73.0","72F4920CFD57458689AF44F25973D167","019cfa84-2b53-79ae-8cd3-3b0a3f19e5a5","019cfa3a-388e-72ab-ad58-bdeb258f96cd","","null","
                <div class=""stimulus-container"">
                    <img src=""images/causal_sequence/the_performance_causal/the_performance_causal_8.png"" class=""exp-image"">
                    <div class=""question-area""></div> 
                </div>","null","","","","","","","","","","","",""
"","","","","","html-button-response","74","168573","0.0-74.0","72F4920CFD57458689AF44F25973D167","019cfa84-2b53-79ae-8cd3-3b0a3f19e5a5","019cfa3a-388e-72ab-ad58-bdeb258f96cd","","1229","
                <div class=""stimulus-container"">
                    <img src=""images/causal_sequence/the_performance_causal/the_performance_causal_8.png"" class=""exp-image"">
                    <div class=""question-area"">
                        <p style=""font-size: 20px; font-weight: bold; margin: 0;"">Is there a person in this image?</p>
                    </div>
                </div>","0","main_experiment_trial","8","the_performance_causal","causal_sequence","chronological","","","","","","",""
"","","","","","html-keyboard-response","75","169579","0.0-75.0","72F4920CFD57458689AF44F25973D167","019cfa84-2b53-79ae-8cd3-3b0a3f19e5a5","019cfa3a-388e-72ab-ad58-bdeb258f96cd","","null","
                <div class=""stimulus-container"">
                    <img src=""images/causal_sequence/the_performance_causal/the_performance_causal_9.png"" class=""exp-image"">
                    <div class=""question-area""></div> 
                </div>","null","","","","","","","","","","","",""
"","","","","","html-button-response","76","172712","0.0-76.0","72F4920CFD57458689AF44F25973D167","019cfa84-2b53-79ae-8cd3-3b0a3f19e5a5","019cfa3a-388e-72ab-ad58-bdeb258f96cd","","null","
                <div class=""stimulus-container"">
                    <img src=""images/causal_sequence/the_performance_causal/the_performance_causal_9.png"" class=""exp-image"">
                    <div class=""question-area"">
                        <p style=""font-size: 20px; font-weight: bold; margin: 0;"">Is there a person in this image?</p>
                    </div>
                </div>","null","main_experiment_trial","9","the_performance_causal","causal_sequence","chronological","","","","","","",""
"","","","","","html-keyboard-response","77","173715","0.0-77.0","72F4920CFD57458689AF44F25973D167","019cfa84-2b53-79ae-8cd3-3b0a3f19e5a5","019cfa3a-388e-72ab-ad58-bdeb258f96cd","","null","
                <div class=""stimulus-container"">
                    <img src=""images/causal_sequence/the_performance_causal/the_performance_causal_ten.png"" class=""exp-image"">
                    <div class=""question-area""></div> 
                </div>","null","","","","","","","","","","","",""
"","","","","","html-button-response","78","174896","0.0-78.0","72F4920CFD57458689AF44F25973D167","019cfa84-2b53-79ae-8cd3-3b0a3f19e5a5","019cfa3a-388e-72ab-ad58-bdeb258f96cd","","1181","
                <div class=""stimulus-container"">
                    <img src=""images/causal_sequence/the_performance_causal/the_performance_causal_ten.png"" class=""exp-image"">
                    <div class=""question-area"">
                        <p style=""font-size: 20px; font-weight: bold; margin: 0;"">Is there a person in this image?</p>
                    </div>
                </div>","0","main_experiment_trial","ten","the_performance_causal","causal_sequence","chronological","","","","","","",""
"","","","","","html-keyboard-response","79","179919","0.0-79.0","72F4920CFD57458689AF44F25973D167","019cfa84-2b53-79ae-8cd3-3b0a3f19e5a5","019cfa3a-388e-72ab-ad58-bdeb258f96cd","","null","<div style=""background-color: white; width: 100vw; height: 100vh;""></div>","null","","","","","","","","","","","",""
"","","","","","html-keyboard-response","80","180924","0.0-80.0","72F4920CFD57458689AF44F25973D167","019cfa84-2b53-79ae-8cd3-3b0a3f19e5a5","019cfa3a-388e-72ab-ad58-bdeb258f96cd","","null","
                <div class=""stimulus-container"">
                    <img src=""images/causal_sequence/dog_causal/dog_causal_1.png"" class=""exp-image"">
                    <div class=""question-area""></div> 
                </div>","null","","","","","","","","","","","",""
"","","","","","html-button-response","81","182717","0.0-81.0","72F4920CFD57458689AF44F25973D167","019cfa84-2b53-79ae-8cd3-3b0a3f19e5a5","019cfa3a-388e-72ab-ad58-bdeb258f96cd","","1791","
                <div class=""stimulus-container"">
                    <img src=""images/causal_sequence/dog_causal/dog_causal_1.png"" class=""exp-image"">
                    <div class=""question-area"">
                        <p style=""font-size: 20px; font-weight: bold; margin: 0;"">Is there a person in this image?</p>
                    </div>
                </div>","0","main_experiment_trial","1","dog_causal","causal_sequence","chronological","","","","","","",""
"","","","","","html-keyboard-response","82","183762","0.0-82.0","72F4920CFD57458689AF44F25973D167","019cfa84-2b53-79ae-8cd3-3b0a3f19e5a5","019cfa3a-388e-72ab-ad58-bdeb258f96cd","","null","
                <div class=""stimulus-container"">
                    <img src=""images/causal_sequence/dog_causal/dog_causal_2.png"" class=""exp-image"">
                    <div class=""question-area""></div> 
                </div>","null","","","","","","","","","","","",""
"","","","","","html-button-response","83","184300","0.0-83.0","72F4920CFD57458689AF44F25973D167","019cfa84-2b53-79ae-8cd3-3b0a3f19e5a5","019cfa3a-388e-72ab-ad58-bdeb258f96cd","","537","
                <div class=""stimulus-container"">
                    <img src=""images/causal_sequence/dog_causal/dog_causal_2.png"" class=""exp-image"">
                    <div class=""question-area"">
                        <p style=""font-size: 20px; font-weight: bold; margin: 0;"">Is there a person in this image?</p>
                    </div>
                </div>","0","main_experiment_trial","2","dog_causal","causal_sequence","chronological","","","","","","",""
"","","","","","html-keyboard-response","84","185398","0.0-84.0","72F4920CFD57458689AF44F25973D167","019cfa84-2b53-79ae-8cd3-3b0a3f19e5a5","019cfa3a-388e-72ab-ad58-bdeb258f96cd","","null","
                <div class=""stimulus-container"">
                    <img src=""images/causal_sequence/dog_causal/dog_causal_3.png"" class=""exp-image"">
                    <div class=""question-area""></div> 
                </div>","null","","","","","","","","","","","",""
"","","","","","html-button-response","85","185838","0.0-85.0","72F4920CFD57458689AF44F25973D167","019cfa84-2b53-79ae-8cd3-3b0a3f19e5a5","019cfa3a-388e-72ab-ad58-bdeb258f96cd","","439","
                <div class=""stimulus-container"">
                    <img src=""images/causal_sequence/dog_causal/dog_causal_3.png"" class=""exp-image"">
                    <div class=""question-area"">
                        <p style=""font-size: 20px; font-weight: bold; margin: 0;"">Is there a person in this image?</p>
                    </div>
                </div>","0","main_experiment_trial","3","dog_causal","causal_sequence","chronological","","","","","","",""
"","","","","","html-keyboard-response","86","186853","0.0-86.0","72F4920CFD57458689AF44F25973D167","019cfa84-2b53-79ae-8cd3-3b0a3f19e5a5","019cfa3a-388e-72ab-ad58-bdeb258f96cd","","null","
                <div class=""stimulus-container"">
                    <img src=""images/causal_sequence/dog_causal/dog_causal_4.png"" class=""exp-image"">
                    <div class=""question-area""></div> 
                </div>","null","","","","","","","","","","","",""
"","","","","","html-button-response","87","187469","0.0-87.0","72F4920CFD57458689AF44F25973D167","019cfa84-2b53-79ae-8cd3-3b0a3f19e5a5","019cfa3a-388e-72ab-ad58-bdeb258f96cd","","615","
                <div class=""stimulus-container"">
                    <img src=""images/causal_sequence/dog_causal/dog_causal_4.png"" class=""exp-image"">
                    <div class=""question-area"">
                        <p style=""font-size: 20px; font-weight: bold; margin: 0;"">Is there a person in this image?</p>
                    </div>
                </div>","0","main_experiment_trial","4","dog_causal","causal_sequence","chronological","","","","","","",""
"","","","","","html-keyboard-response","88","188505","0.0-88.0","72F4920CFD57458689AF44F25973D167","019cfa84-2b53-79ae-8cd3-3b0a3f19e5a5","019cfa3a-388e-72ab-ad58-bdeb258f96cd","","null","
                <div class=""stimulus-container"">
                    <img src=""images/causal_sequence/dog_causal/dog_causal_5.png"" class=""exp-image"">
                    <div class=""question-area""></div> 
                </div>","null","","","","","","","","","","","",""
"","","","","","html-button-response","89","189589","0.0-89.0","72F4920CFD57458689AF44F25973D167","019cfa84-2b53-79ae-8cd3-3b0a3f19e5a5","019cfa3a-388e-72ab-ad58-bdeb258f96cd","","1082","
                <div class=""stimulus-container"">
                    <img src=""images/causal_sequence/dog_causal/dog_causal_5.png"" class=""exp-image"">
                    <div class=""question-area"">
                        <p style=""font-size: 20px; font-weight: bold; margin: 0;"">Is there a person in this image?</p>
                    </div>
                </div>","0","main_experiment_trial","5","dog_causal","causal_sequence","chronological","","","","","","",""
"","","","","","html-keyboard-response","90","190631","0.0-90.0","72F4920CFD57458689AF44F25973D167","019cfa84-2b53-79ae-8cd3-3b0a3f19e5a5","019cfa3a-388e-72ab-ad58-bdeb258f96cd","","null","
                <div class=""stimulus-container"">
                    <img src=""images/causal_sequence/dog_causal/dog_causal_6.png"" class=""exp-image"">
                    <div class=""question-area""></div> 
                </div>","null","","","","","","","","","","","",""
"","","","","","html-button-response","91","191545","0.0-91.0","72F4920CFD57458689AF44F25973D167","019cfa84-2b53-79ae-8cd3-3b0a3f19e5a5","019cfa3a-388e-72ab-ad58-bdeb258f96cd","","914","
                <div class=""stimulus-container"">
                    <img src=""images/causal_sequence/dog_causal/dog_causal_6.png"" class=""exp-image"">
                    <div class=""question-area"">
                        <p style=""font-size: 20px; font-weight: bold; margin: 0;"">Is there a person in this image?</p>
                    </div>
                </div>","0","main_experiment_trial","6","dog_causal","causal_sequence","chronological","","","","","","",""
"","","","","","html-keyboard-response","92","192549","0.0-92.0","72F4920CFD57458689AF44F25973D167","019cfa84-2b53-79ae-8cd3-3b0a3f19e5a5","019cfa3a-388e-72ab-ad58-bdeb258f96cd","","null","
                <div class=""stimulus-container"">
                    <img src=""images/causal_sequence/dog_causal/dog_causal_7.png"" class=""exp-image"">
                    <div class=""question-area""></div> 
                </div>","null","","","","","","","","","","","",""
"","","","","","html-button-response","93","193412","0.0-93.0","72F4920CFD57458689AF44F25973D167","019cfa84-2b53-79ae-8cd3-3b0a3f19e5a5","019cfa3a-388e-72ab-ad58-bdeb258f96cd","","862","
                <div class=""stimulus-container"">
                    <img src=""images/causal_sequence/dog_causal/dog_causal_7.png"" class=""exp-image"">
                    <div class=""question-area"">
                        <p style=""font-size: 20px; font-weight: bold; margin: 0;"">Is there a person in this image?</p>
                    </div>
                </div>","0","main_experiment_trial","7","dog_causal","causal_sequence","chronological","","","","","","",""
"","","","","","html-keyboard-response","94","194456","0.0-94.0","72F4920CFD57458689AF44F25973D167","019cfa84-2b53-79ae-8cd3-3b0a3f19e5a5","019cfa3a-388e-72ab-ad58-bdeb258f96cd","","null","
                <div class=""stimulus-container"">
                    <img src=""images/causal_sequence/dog_causal/dog_causal_8.png"" class=""exp-image"">
                    <div class=""question-area""></div> 
                </div>","null","","","","","","","","","","","",""
"","","","","","html-button-response","95","195245","0.0-95.0","72F4920CFD57458689AF44F25973D167","019cfa84-2b53-79ae-8cd3-3b0a3f19e5a5","019cfa3a-388e-72ab-ad58-bdeb258f96cd","","789","
                <div class=""stimulus-container"">
                    <img src=""images/causal_sequence/dog_causal/dog_causal_8.png"" class=""exp-image"">
                    <div class=""question-area"">
                        <p style=""font-size: 20px; font-weight: bold; margin: 0;"">Is there a person in this image?</p>
                    </div>
                </div>","0","main_experiment_trial","8","dog_causal","causal_sequence","chronological","","","","","","",""
"","","","","","html-keyboard-response","96","196254","0.0-96.0","72F4920CFD57458689AF44F25973D167","019cfa84-2b53-79ae-8cd3-3b0a3f19e5a5","019cfa3a-388e-72ab-ad58-bdeb258f96cd","","null","
                <div class=""stimulus-container"">
                    <img src=""images/causal_sequence/dog_causal/dog_causal_9.png"" class=""exp-image"">
                    <div class=""question-area""></div> 
                </div>","null","","","","","","","","","","","",""
"","","","","","html-button-response","97","196997","0.0-97.0","72F4920CFD57458689AF44F25973D167","019cfa84-2b53-79ae-8cd3-3b0a3f19e5a5","019cfa3a-388e-72ab-ad58-bdeb258f96cd","","741","
                <div class=""stimulus-container"">
                    <img src=""images/causal_sequence/dog_causal/dog_causal_9.png"" class=""exp-image"">
                    <div class=""question-area"">
                        <p style=""font-size: 20px; font-weight: bold; margin: 0;"">Is there a person in this image?</p>
                    </div>
                </div>","0","main_experiment_trial","9","dog_causal","causal_sequence","chronological","","","","","","",""
"","","","","","html-keyboard-response","98","198003","0.0-98.0","72F4920CFD57458689AF44F25973D167","019cfa84-2b53-79ae-8cd3-3b0a3f19e5a5","019cfa3a-388e-72ab-ad58-bdeb258f96cd","","null","
                <div class=""stimulus-container"">
                    <img src=""images/causal_sequence/dog_causal/dog_causal_ten.png"" class=""exp-image"">
                    <div class=""question-area""></div> 
                </div>","null","","","","","","","","","","","",""
"","","","","","html-button-response","99","198601","0.0-99.0","72F4920CFD57458689AF44F25973D167","019cfa84-2b53-79ae-8cd3-3b0a3f19e5a5","019cfa3a-388e-72ab-ad58-bdeb258f96cd","","597","
                <div class=""stimulus-container"">
                    <img src=""images/causal_sequence/dog_causal/dog_causal_ten.png"" class=""exp-image"">
                    <div class=""question-area"">
                        <p style=""font-size: 20px; font-weight: bold; margin: 0;"">Is there a person in this image?</p>
                    </div>
                </div>","0","main_experiment_trial","ten","dog_causal","causal_sequence","chronological","","","","","","",""
"","","","","","html-keyboard-response","100","203872","0.0-100.0","72F4920CFD57458689AF44F25973D167","019cfa84-2b53-79ae-8cd3-3b0a3f19e5a5","019cfa3a-388e-72ab-ad58-bdeb258f96cd","","null","<div style=""background-color: white; width: 100vw; height: 100vh;""></div>","null","","","","","","","","","","","",""
"","","","","","html-keyboard-response","101","204886","0.0-101.0","72F4920CFD57458689AF44F25973D167","019cfa84-2b53-79ae-8cd3-3b0a3f19e5a5","019cfa3a-388e-72ab-ad58-bdeb258f96cd","","null","
                <div class=""stimulus-container"">
                    <img src=""images/semantic_sequence/physical_activity_semantic/physical_activity_semantic_1.png"" class=""exp-image"">
                    <div class=""question-area""></div> 
                </div>","null","","","","","","","","","","","",""
"","","","","","html-button-response","102","207156","0.0-102.0","72F4920CFD57458689AF44F25973D167","019cfa84-2b53-79ae-8cd3-3b0a3f19e5a5","019cfa3a-388e-72ab-ad58-bdeb258f96cd","","2269","
                <div class=""stimulus-container"">
                    <img src=""images/semantic_sequence/physical_activity_semantic/physical_activity_semantic_1.png"" class=""exp-image"">
                    <div class=""question-area"">
                        <p style=""font-size: 20px; font-weight: bold; margin: 0;"">Is there a person in this image?</p>
                    </div>
                </div>","0","main_experiment_trial","1","physical_activity_semantic","semantic_sequence","chronological","","","","","","",""
"","","","","","html-keyboard-response","103","208170","0.0-103.0","72F4920CFD57458689AF44F25973D167","019cfa84-2b53-79ae-8cd3-3b0a3f19e5a5","019cfa3a-388e-72ab-ad58-bdeb258f96cd","","null","
                <div class=""stimulus-container"">
                    <img src=""images/semantic_sequence/physical_activity_semantic/physical_activity_semantic_2.png"" class=""exp-image"">
                    <div class=""question-area""></div> 
                </div>","null","","","","","","","","","","","",""
"","","","","","html-button-response","104","208695","0.0-104.0","72F4920CFD57458689AF44F25973D167","019cfa84-2b53-79ae-8cd3-3b0a3f19e5a5","019cfa3a-388e-72ab-ad58-bdeb258f96cd","","524","
                <div class=""stimulus-container"">
                    <img src=""images/semantic_sequence/physical_activity_semantic/physical_activity_semantic_2.png"" class=""exp-image"">
                    <div class=""question-area"">
                        <p style=""font-size: 20px; font-weight: bold; margin: 0;"">Is there a person in this image?</p>
                    </div>
                </div>","0","main_experiment_trial","2","physical_activity_semantic","semantic_sequence","chronological","","","","","","",""
"","","","","","html-keyboard-response","105","209704","0.0-105.0","72F4920CFD57458689AF44F25973D167","019cfa84-2b53-79ae-8cd3-3b0a3f19e5a5","019cfa3a-388e-72ab-ad58-bdeb258f96cd","","null","
                <div class=""stimulus-container"">
                    <img src=""images/semantic_sequence/physical_activity_semantic/physical_activity_semantic_3.png"" class=""exp-image"">
                    <div class=""question-area""></div> 
                </div>","null","","","","","","","","","","","",""
"","","","","","html-button-response","106","210153","0.0-106.0","72F4920CFD57458689AF44F25973D167","019cfa84-2b53-79ae-8cd3-3b0a3f19e5a5","019cfa3a-388e-72ab-ad58-bdeb258f96cd","","449","
                <div class=""stimulus-container"">
                    <img src=""images/semantic_sequence/physical_activity_semantic/physical_activity_semantic_3.png"" class=""exp-image"">
                    <div class=""question-area"">
                        <p style=""font-size: 20px; font-weight: bold; margin: 0;"">Is there a person in this image?</p>
                    </div>
                </div>","0","main_experiment_trial","3","physical_activity_semantic","semantic_sequence","chronological","","","","","","",""
"","","","","","html-keyboard-response","107","211165","0.0-107.0","72F4920CFD57458689AF44F25973D167","019cfa84-2b53-79ae-8cd3-3b0a3f19e5a5","019cfa3a-388e-72ab-ad58-bdeb258f96cd","","null","
                <div class=""stimulus-container"">
                    <img src=""images/semantic_sequence/physical_activity_semantic/physical_activity_semantic_4.png"" class=""exp-image"">
                    <div class=""question-area""></div> 
                </div>","null","","","","","","","","","","","",""
"","","","","","html-button-response","108","211777","0.0-108.0","72F4920CFD57458689AF44F25973D167","019cfa84-2b53-79ae-8cd3-3b0a3f19e5a5","019cfa3a-388e-72ab-ad58-bdeb258f96cd","","611","
                <div class=""stimulus-container"">
                    <img src=""images/semantic_sequence/physical_activity_semantic/physical_activity_semantic_4.png"" class=""exp-image"">
                    <div class=""question-area"">
                        <p style=""font-size: 20px; font-weight: bold; margin: 0;"">Is there a person in this image?</p>
                    </div>
                </div>","0","main_experiment_trial","4","physical_activity_semantic","semantic_sequence","chronological","","","","","","",""
"","","","","","html-keyboard-response","109","212785","0.0-109.0","72F4920CFD57458689AF44F25973D167","019cfa84-2b53-79ae-8cd3-3b0a3f19e5a5","019cfa3a-388e-72ab-ad58-bdeb258f96cd","","null","
                <div class=""stimulus-container"">
                    <img src=""images/semantic_sequence/physical_activity_semantic/physical_activity_semantic_5.png"" class=""exp-image"">
                    <div class=""question-area""></div> 
                </div>","null","","","","","","","","","","","",""
"","","","","","html-button-response","110","213665","0.0-110.0","72F4920CFD57458689AF44F25973D167","019cfa84-2b53-79ae-8cd3-3b0a3f19e5a5","019cfa3a-388e-72ab-ad58-bdeb258f96cd","","879","
                <div class=""stimulus-container"">
                    <img src=""images/semantic_sequence/physical_activity_semantic/physical_activity_semantic_5.png"" class=""exp-image"">
                    <div class=""question-area"">
                        <p style=""font-size: 20px; font-weight: bold; margin: 0;"">Is there a person in this image?</p>
                    </div>
                </div>","0","main_experiment_trial","5","physical_activity_semantic","semantic_sequence","chronological","","","","","","",""
"","","","","","html-keyboard-response","111","214790","0.0-111.0","72F4920CFD57458689AF44F25973D167","019cfa84-2b53-79ae-8cd3-3b0a3f19e5a5","019cfa3a-388e-72ab-ad58-bdeb258f96cd","","null","
                <div class=""stimulus-container"">
                    <img src=""images/semantic_sequence/physical_activity_semantic/physical_activity_semantic_6.png"" class=""exp-image"">
                    <div class=""question-area""></div> 
                </div>","null","","","","","","","","","","","",""
"","","","","","html-button-response","112","215232","0.0-112.0","72F4920CFD57458689AF44F25973D167","019cfa84-2b53-79ae-8cd3-3b0a3f19e5a5","019cfa3a-388e-72ab-ad58-bdeb258f96cd","","442","
                <div class=""stimulus-container"">
                    <img src=""images/semantic_sequence/physical_activity_semantic/physical_activity_semantic_6.png"" class=""exp-image"">
                    <div class=""question-area"">
                        <p style=""font-size: 20px; font-weight: bold; margin: 0;"">Is there a person in this image?</p>
                    </div>
                </div>","0","main_experiment_trial","6","physical_activity_semantic","semantic_sequence","chronological","","","","","","",""
"","","","","","html-keyboard-response","113","216237","0.0-113.0","72F4920CFD57458689AF44F25973D167","019cfa84-2b53-79ae-8cd3-3b0a3f19e5a5","019cfa3a-388e-72ab-ad58-bdeb258f96cd","","null","
                <div class=""stimulus-container"">
                    <img src=""images/semantic_sequence/physical_activity_semantic/physical_activity_semantic_7.png"" class=""exp-image"">
                    <div class=""question-area""></div> 
                </div>","null","","","","","","","","","","","",""
"","","","","","html-button-response","114","217988","0.0-114.0","72F4920CFD57458689AF44F25973D167","019cfa84-2b53-79ae-8cd3-3b0a3f19e5a5","019cfa3a-388e-72ab-ad58-bdeb258f96cd","","1751","
                <div class=""stimulus-container"">
                    <img src=""images/semantic_sequence/physical_activity_semantic/physical_activity_semantic_7.png"" class=""exp-image"">
                    <div class=""question-area"">
                        <p style=""font-size: 20px; font-weight: bold; margin: 0;"">Is there a person in this image?</p>
                    </div>
                </div>","0","main_experiment_trial","7","physical_activity_semantic","semantic_sequence","chronological","","","","","","",""
"","","","","","html-keyboard-response","115","219059","0.0-115.0","72F4920CFD57458689AF44F25973D167","019cfa84-2b53-79ae-8cd3-3b0a3f19e5a5","019cfa3a-388e-72ab-ad58-bdeb258f96cd","","null","
                <div class=""stimulus-container"">
                    <img src=""images/semantic_sequence/physical_activity_semantic/physical_activity_semantic_8.png"" class=""exp-image"">
                    <div class=""question-area""></div> 
                </div>","null","","","","","","","","","","","",""
"","","","","","html-button-response","116","220928","0.0-116.0","72F4920CFD57458689AF44F25973D167","019cfa84-2b53-79ae-8cd3-3b0a3f19e5a5","019cfa3a-388e-72ab-ad58-bdeb258f96cd","","1869","
                <div class=""stimulus-container"">
                    <img src=""images/semantic_sequence/physical_activity_semantic/physical_activity_semantic_8.png"" class=""exp-image"">
                    <div class=""question-area"">
                        <p style=""font-size: 20px; font-weight: bold; margin: 0;"">Is there a person in this image?</p>
                    </div>
                </div>","0","main_experiment_trial","8","physical_activity_semantic","semantic_sequence","chronological","","","","","","",""
"","","","","","html-keyboard-response","117","221934","0.0-117.0","72F4920CFD57458689AF44F25973D167","019cfa84-2b53-79ae-8cd3-3b0a3f19e5a5","019cfa3a-388e-72ab-ad58-bdeb258f96cd","","null","
                <div class=""stimulus-container"">
                    <img src=""images/semantic_sequence/physical_activity_semantic/physical_activity_semantic_9.png"" class=""exp-image"">
                    <div class=""question-area""></div> 
                </div>","null","","","","","","","","","","","",""
"","","","","","html-button-response","118","222400","0.0-118.0","72F4920CFD57458689AF44F25973D167","019cfa84-2b53-79ae-8cd3-3b0a3f19e5a5","019cfa3a-388e-72ab-ad58-bdeb258f96cd","","465","
                <div class=""stimulus-container"">
                    <img src=""images/semantic_sequence/physical_activity_semantic/physical_activity_semantic_9.png"" class=""exp-image"">
                    <div class=""question-area"">
                        <p style=""font-size: 20px; font-weight: bold; margin: 0;"">Is there a person in this image?</p>
                    </div>
                </div>","0","main_experiment_trial","9","physical_activity_semantic","semantic_sequence","chronological","","","","","","",""
"","","","","","html-keyboard-response","119","223406","0.0-119.0","72F4920CFD57458689AF44F25973D167","019cfa84-2b53-79ae-8cd3-3b0a3f19e5a5","019cfa3a-388e-72ab-ad58-bdeb258f96cd","","null","
                <div class=""stimulus-container"">
                    <img src=""images/semantic_sequence/physical_activity_semantic/physical_activity_semantic_ten.png"" class=""exp-image"">
                    <div class=""question-area""></div> 
                </div>","null","","","","","","","","","","","",""
"","","","","","html-button-response","120","223833","0.0-120.0","72F4920CFD57458689AF44F25973D167","019cfa84-2b53-79ae-8cd3-3b0a3f19e5a5","019cfa3a-388e-72ab-ad58-bdeb258f96cd","","426","
                <div class=""stimulus-container"">
                    <img src=""images/semantic_sequence/physical_activity_semantic/physical_activity_semantic_ten.png"" class=""exp-image"">
                    <div class=""question-area"">
                        <p style=""font-size: 20px; font-weight: bold; margin: 0;"">Is there a person in this image?</p>
                    </div>
                </div>","0","main_experiment_trial","ten","physical_activity_semantic","semantic_sequence","chronological","","","","","","",""
"","","","","","html-keyboard-response","121","228834","0.0-121.0","72F4920CFD57458689AF44F25973D167","019cfa84-2b53-79ae-8cd3-3b0a3f19e5a5","019cfa3a-388e-72ab-ad58-bdeb258f96cd","","null","<div style=""background-color: white; width: 100vw; height: 100vh;""></div>","null","","","","","","","","","","","",""
"","","","","","html-keyboard-response","122","229841","0.0-122.0","72F4920CFD57458689AF44F25973D167","019cfa84-2b53-79ae-8cd3-3b0a3f19e5a5","019cfa3a-388e-72ab-ad58-bdeb258f96cd","","null","
                <div class=""stimulus-container"">
                    <img src=""images/semantic_sequence/kitchen_operations_semantic/kitchen_operations_semantic_1.png"" class=""exp-image"">
                    <div class=""question-area""></div> 
                </div>","null","","","","","","","","","","","",""
"","","","","","html-button-response","123","231816","0.0-123.0","72F4920CFD57458689AF44F25973D167","019cfa84-2b53-79ae-8cd3-3b0a3f19e5a5","019cfa3a-388e-72ab-ad58-bdeb258f96cd","","1974","
                <div class=""stimulus-container"">
                    <img src=""images/semantic_sequence/kitchen_operations_semantic/kitchen_operations_semantic_1.png"" class=""exp-image"">
                    <div class=""question-area"">
                        <p style=""font-size: 20px; font-weight: bold; margin: 0;"">Is there a person in this image?</p>
                    </div>
                </div>","0","main_experiment_trial","1","kitchen_operations_semantic","semantic_sequence","chronological","","","","","","",""
"","","","","","html-keyboard-response","124","232848","0.0-124.0","72F4920CFD57458689AF44F25973D167","019cfa84-2b53-79ae-8cd3-3b0a3f19e5a5","019cfa3a-388e-72ab-ad58-bdeb258f96cd","","null","
                <div class=""stimulus-container"">
                    <img src=""images/semantic_sequence/kitchen_operations_semantic/kitchen_operations_semantic_2.png"" class=""exp-image"">
                    <div class=""question-area""></div> 
                </div>","null","","","","","","","","","","","",""
"","","","","","html-button-response","125","233277","0.0-125.0","72F4920CFD57458689AF44F25973D167","019cfa84-2b53-79ae-8cd3-3b0a3f19e5a5","019cfa3a-388e-72ab-ad58-bdeb258f96cd","","429","
                <div class=""stimulus-container"">
                    <img src=""images/semantic_sequence/kitchen_operations_semantic/kitchen_operations_semantic_2.png"" class=""exp-image"">
                    <div class=""question-area"">
                        <p style=""font-size: 20px; font-weight: bold; margin: 0;"">Is there a person in this image?</p>
                    </div>
                </div>","0","main_experiment_trial","2","kitchen_operations_semantic","semantic_sequence","chronological","","","","","","",""
"","","","","","html-keyboard-response","126","234278","0.0-126.0","72F4920CFD57458689AF44F25973D167","019cfa84-2b53-79ae-8cd3-3b0a3f19e5a5","019cfa3a-388e-72ab-ad58-bdeb258f96cd","","null","
                <div class=""stimulus-container"">
                    <img src=""images/semantic_sequence/kitchen_operations_semantic/kitchen_operations_semantic_3.png"" class=""exp-image"">
                    <div class=""question-area""></div> 
                </div>","null","","","","","","","","","","","",""
"","","","","","html-button-response","127","234712","0.0-127.0","72F4920CFD57458689AF44F25973D167","019cfa84-2b53-79ae-8cd3-3b0a3f19e5a5","019cfa3a-388e-72ab-ad58-bdeb258f96cd","","435","
                <div class=""stimulus-container"">
                    <img src=""images/semantic_sequence/kitchen_operations_semantic/kitchen_operations_semantic_3.png"" class=""exp-image"">
                    <div class=""question-area"">
                        <p style=""font-size: 20px; font-weight: bold; margin: 0;"">Is there a person in this image?</p>
                    </div>
                </div>","0","main_experiment_trial","3","kitchen_operations_semantic","semantic_sequence","chronological","","","","","","",""
"","","","","","html-keyboard-response","128","235727","0.0-128.0","72F4920CFD57458689AF44F25973D167","019cfa84-2b53-79ae-8cd3-3b0a3f19e5a5","019cfa3a-388e-72ab-ad58-bdeb258f96cd","","null","
                <div class=""stimulus-container"">
                    <img src=""images/semantic_sequence/kitchen_operations_semantic/kitchen_operations_semantic_4.png"" class=""exp-image"">
                    <div class=""question-area""></div> 
                </div>","null","","","","","","","","","","","",""
"","","","","","html-button-response","129","236145","0.0-129.0","72F4920CFD57458689AF44F25973D167","019cfa84-2b53-79ae-8cd3-3b0a3f19e5a5","019cfa3a-388e-72ab-ad58-bdeb258f96cd","","418","
                <div class=""stimulus-container"">
                    <img src=""images/semantic_sequence/kitchen_operations_semantic/kitchen_operations_semantic_4.png"" class=""exp-image"">
                    <div class=""question-area"">
                        <p style=""font-size: 20px; font-weight: bold; margin: 0;"">Is there a person in this image?</p>
                    </div>
                </div>","0","main_experiment_trial","4","kitchen_operations_semantic","semantic_sequence","chronological","","","","","","",""
"","","","","","html-keyboard-response","130","237158","0.0-130.0","72F4920CFD57458689AF44F25973D167","019cfa84-2b53-79ae-8cd3-3b0a3f19e5a5","019cfa3a-388e-72ab-ad58-bdeb258f96cd","","null","
                <div class=""stimulus-container"">
                    <img src=""images/semantic_sequence/kitchen_operations_semantic/kitchen_operations_semantic_5.png"" class=""exp-image"">
                    <div class=""question-area""></div> 
                </div>","null","","","","","","","","","","","",""
"","","","","","html-button-response","131","237573","0.0-131.0","72F4920CFD57458689AF44F25973D167","019cfa84-2b53-79ae-8cd3-3b0a3f19e5a5","019cfa3a-388e-72ab-ad58-bdeb258f96cd","","415","
                <div class=""stimulus-container"">
                    <img src=""images/semantic_sequence/kitchen_operations_semantic/kitchen_operations_semantic_5.png"" class=""exp-image"">
                    <div class=""question-area"">
                        <p style=""font-size: 20px; font-weight: bold; margin: 0;"">Is there a person in this image?</p>
                    </div>
                </div>","0","main_experiment_trial","5","kitchen_operations_semantic","semantic_sequence","chronological","","","","","","",""
"","","","","","html-keyboard-response","132","238586","0.0-132.0","72F4920CFD57458689AF44F25973D167","019cfa84-2b53-79ae-8cd3-3b0a3f19e5a5","019cfa3a-388e-72ab-ad58-bdeb258f96cd","","null","
                <div class=""stimulus-container"">
                    <img src=""images/semantic_sequence/kitchen_operations_semantic/kitchen_operations_semantic_6.png"" class=""exp-image"">
                    <div class=""question-area""></div> 
                </div>","null","","","","","","","","","","","",""
"","","","","","html-button-response","133","241237","0.0-133.0","72F4920CFD57458689AF44F25973D167","019cfa84-2b53-79ae-8cd3-3b0a3f19e5a5","019cfa3a-388e-72ab-ad58-bdeb258f96cd","","2650","
                <div class=""stimulus-container"">
                    <img src=""images/semantic_sequence/kitchen_operations_semantic/kitchen_operations_semantic_6.png"" class=""exp-image"">
                    <div class=""question-area"">
                        <p style=""font-size: 20px; font-weight: bold; margin: 0;"">Is there a person in this image?</p>
                    </div>
                </div>","0","main_experiment_trial","6","kitchen_operations_semantic","semantic_sequence","chronological","","","","","","",""
"","","","","","html-keyboard-response","134","242250","0.0-134.0","72F4920CFD57458689AF44F25973D167","019cfa84-2b53-79ae-8cd3-3b0a3f19e5a5","019cfa3a-388e-72ab-ad58-bdeb258f96cd","","null","
                <div class=""stimulus-container"">
                    <img src=""images/semantic_sequence/kitchen_operations_semantic/kitchen_operations_semantic_7.png"" class=""exp-image"">
                    <div class=""question-area""></div> 
                </div>","null","","","","","","","","","","","",""
"","","","","","html-button-response","135","242653","0.0-135.0","72F4920CFD57458689AF44F25973D167","019cfa84-2b53-79ae-8cd3-3b0a3f19e5a5","019cfa3a-388e-72ab-ad58-bdeb258f96cd","","401","
                <div class=""stimulus-container"">
                    <img src=""images/semantic_sequence/kitchen_operations_semantic/kitchen_operations_semantic_7.png"" class=""exp-image"">
                    <div class=""question-area"">
                        <p style=""font-size: 20px; font-weight: bold; margin: 0;"">Is there a person in this image?</p>
                    </div>
                </div>","0","main_experiment_trial","7","kitchen_operations_semantic","semantic_sequence","chronological","","","","","","",""
"","","","","","html-keyboard-response","136","243684","0.0-136.0","72F4920CFD57458689AF44F25973D167","019cfa84-2b53-79ae-8cd3-3b0a3f19e5a5","019cfa3a-388e-72ab-ad58-bdeb258f96cd","","null","
                <div class=""stimulus-container"">
                    <img src=""images/semantic_sequence/kitchen_operations_semantic/kitchen_operations_semantic_8.png"" class=""exp-image"">
                    <div class=""question-area""></div> 
                </div>","null","","","","","","","","","","","",""
"","","","","","html-button-response","137","244257","0.0-137.0","72F4920CFD57458689AF44F25973D167","019cfa84-2b53-79ae-8cd3-3b0a3f19e5a5","019cfa3a-388e-72ab-ad58-bdeb258f96cd","","574","
                <div class=""stimulus-container"">
                    <img src=""images/semantic_sequence/kitchen_operations_semantic/kitchen_operations_semantic_8.png"" class=""exp-image"">
                    <div class=""question-area"">
                        <p style=""font-size: 20px; font-weight: bold; margin: 0;"">Is there a person in this image?</p>
                    </div>
                </div>","0","main_experiment_trial","8","kitchen_operations_semantic","semantic_sequence","chronological","","","","","","",""
"","","","","","html-keyboard-response","138","245293","0.0-138.0","72F4920CFD57458689AF44F25973D167","019cfa84-2b53-79ae-8cd3-3b0a3f19e5a5","019cfa3a-388e-72ab-ad58-bdeb258f96cd","","null","
                <div class=""stimulus-container"">
                    <img src=""images/semantic_sequence/kitchen_operations_semantic/kitchen_operations_semantic_9.png"" class=""exp-image"">
                    <div class=""question-area""></div> 
                </div>","null","","","","","","","","","","","",""
"","","","","","html-button-response","139","246069","0.0-139.0","72F4920CFD57458689AF44F25973D167","019cfa84-2b53-79ae-8cd3-3b0a3f19e5a5","019cfa3a-388e-72ab-ad58-bdeb258f96cd","","775","
                <div class=""stimulus-container"">
                    <img src=""images/semantic_sequence/kitchen_operations_semantic/kitchen_operations_semantic_9.png"" class=""exp-image"">
                    <div class=""question-area"">
                        <p style=""font-size: 20px; font-weight: bold; margin: 0;"">Is there a person in this image?</p>
                    </div>
                </div>","0","main_experiment_trial","9","kitchen_operations_semantic","semantic_sequence","chronological","","","","","","",""
"","","","","","html-keyboard-response","140","247108","0.0-140.0","72F4920CFD57458689AF44F25973D167","019cfa84-2b53-79ae-8cd3-3b0a3f19e5a5","019cfa3a-388e-72ab-ad58-bdeb258f96cd","","null","
                <div class=""stimulus-container"">
                    <img src=""images/semantic_sequence/kitchen_operations_semantic/kitchen_operations_semantic_ten.png"" class=""exp-image"">
                    <div class=""question-area""></div> 
                </div>","null","","","","","","","","","","","",""
"","","","","","html-button-response","141","247496","0.0-141.0","72F4920CFD57458689AF44F25973D167","019cfa84-2b53-79ae-8cd3-3b0a3f19e5a5","019cfa3a-388e-72ab-ad58-bdeb258f96cd","","388","
                <div class=""stimulus-container"">
                    <img src=""images/semantic_sequence/kitchen_operations_semantic/kitchen_operations_semantic_ten.png"" class=""exp-image"">
                    <div class=""question-area"">
                        <p style=""font-size: 20px; font-weight: bold; margin: 0;"">Is there a person in this image?</p>
                    </div>
                </div>","0","main_experiment_trial","ten","kitchen_operations_semantic","semantic_sequence","chronological","","","","","","",""
"","","","","","html-keyboard-response","142","252504","0.0-142.0","72F4920CFD57458689AF44F25973D167","019cfa84-2b53-79ae-8cd3-3b0a3f19e5a5","019cfa3a-388e-72ab-ad58-bdeb258f96cd","","null","<div style=""background-color: white; width: 100vw; height: 100vh;""></div>","null","","","","","","","","","","","",""
"","","","","","html-keyboard-response","143","253519","0.0-143.0","72F4920CFD57458689AF44F25973D167","019cfa84-2b53-79ae-8cd3-3b0a3f19e5a5","019cfa3a-388e-72ab-ad58-bdeb258f96cd","","null","
                <div class=""stimulus-container"">
                    <img src=""images/causal_sequence/museum_causal/museum_causal_1.png"" class=""exp-image"">
                    <div class=""question-area""></div> 
                </div>","null","","","","","","","","","","","",""
"","","","","","html-button-response","144","255101","0.0-144.0","72F4920CFD57458689AF44F25973D167","019cfa84-2b53-79ae-8cd3-3b0a3f19e5a5","019cfa3a-388e-72ab-ad58-bdeb258f96cd","","1582","
                <div class=""stimulus-container"">
                    <img src=""images/causal_sequence/museum_causal/museum_causal_1.png"" class=""exp-image"">
                    <div class=""question-area"">
                        <p style=""font-size: 20px; font-weight: bold; margin: 0;"">Is there a person in this image?</p>
                    </div>
                </div>","0","main_experiment_trial","1","museum_causal","causal_sequence","chronological","","","","","","",""
"","","","","","html-keyboard-response","145","256108","0.0-145.0","72F4920CFD57458689AF44F25973D167","019cfa84-2b53-79ae-8cd3-3b0a3f19e5a5","019cfa3a-388e-72ab-ad58-bdeb258f96cd","","null","
                <div class=""stimulus-container"">
                    <img src=""images/causal_sequence/museum_causal/museum_causal_2.png"" class=""exp-image"">
                    <div class=""question-area""></div> 
                </div>","null","","","","","","","","","","","",""
"","","","","","html-button-response","146","257272","0.0-146.0","72F4920CFD57458689AF44F25973D167","019cfa84-2b53-79ae-8cd3-3b0a3f19e5a5","019cfa3a-388e-72ab-ad58-bdeb258f96cd","","1164","
                <div class=""stimulus-container"">
                    <img src=""images/causal_sequence/museum_causal/museum_causal_2.png"" class=""exp-image"">
                    <div class=""question-area"">
                        <p style=""font-size: 20px; font-weight: bold; margin: 0;"">Is there a person in this image?</p>
                    </div>
                </div>","1","main_experiment_trial","2","museum_causal","causal_sequence","chronological","","","","","","",""
"","","","","","html-keyboard-response","147","258287","0.0-147.0","72F4920CFD57458689AF44F25973D167","019cfa84-2b53-79ae-8cd3-3b0a3f19e5a5","019cfa3a-388e-72ab-ad58-bdeb258f96cd","","null","
                <div class=""stimulus-container"">
                    <img src=""images/causal_sequence/museum_causal/museum_causal_3.png"" class=""exp-image"">
                    <div class=""question-area""></div> 
                </div>","null","","","","","","","","","","","",""
"","","","","","html-button-response","148","261297","0.0-148.0","72F4920CFD57458689AF44F25973D167","019cfa84-2b53-79ae-8cd3-3b0a3f19e5a5","019cfa3a-388e-72ab-ad58-bdeb258f96cd","","null","
                <div class=""stimulus-container"">
                    <img src=""images/causal_sequence/museum_causal/museum_causal_3.png"" class=""exp-image"">
                    <div class=""question-area"">
                        <p style=""font-size: 20px; font-weight: bold; margin: 0;"">Is there a person in this image?</p>
                    </div>
                </div>","null","main_experiment_trial","3","museum_causal","causal_sequence","chronological","","","","","","",""
"","","","","","html-keyboard-response","149","262304","0.0-149.0","72F4920CFD57458689AF44F25973D167","019cfa84-2b53-79ae-8cd3-3b0a3f19e5a5","019cfa3a-388e-72ab-ad58-bdeb258f96cd","","null","
                <div class=""stimulus-container"">
                    <img src=""images/causal_sequence/museum_causal/museum_causal_4.png"" class=""exp-image"">
                    <div class=""question-area""></div> 
                </div>","null","","","","","","","","","","","",""
"","","","","","html-button-response","150","263209","0.0-150.0","72F4920CFD57458689AF44F25973D167","019cfa84-2b53-79ae-8cd3-3b0a3f19e5a5","019cfa3a-388e-72ab-ad58-bdeb258f96cd","","905","
                <div class=""stimulus-container"">
                    <img src=""images/causal_sequence/museum_causal/museum_causal_4.png"" class=""exp-image"">
                    <div class=""question-area"">
                        <p style=""font-size: 20px; font-weight: bold; margin: 0;"">Is there a person in this image?</p>
                    </div>
                </div>","1","main_experiment_trial","4","museum_causal","causal_sequence","chronological","","","","","","",""
"","","","","","html-keyboard-response","151","264217","0.0-151.0","72F4920CFD57458689AF44F25973D167","019cfa84-2b53-79ae-8cd3-3b0a3f19e5a5","019cfa3a-388e-72ab-ad58-bdeb258f96cd","","null","
                <div class=""stimulus-container"">
                    <img src=""images/causal_sequence/museum_causal/museum_causal_5.png"" class=""exp-image"">
                    <div class=""question-area""></div> 
                </div>","null","","","","","","","","","","","",""
"","","","","","html-button-response","152","265965","0.0-152.0","72F4920CFD57458689AF44F25973D167","019cfa84-2b53-79ae-8cd3-3b0a3f19e5a5","019cfa3a-388e-72ab-ad58-bdeb258f96cd","","1746","
                <div class=""stimulus-container"">
                    <img src=""images/causal_sequence/museum_causal/museum_causal_5.png"" class=""exp-image"">
                    <div class=""question-area"">
                        <p style=""font-size: 20px; font-weight: bold; margin: 0;"">Is there a person in this image?</p>
                    </div>
                </div>","0","main_experiment_trial","5","museum_causal","causal_sequence","chronological","","","","","","",""
"","","","","","html-keyboard-response","153","266974","0.0-153.0","72F4920CFD57458689AF44F25973D167","019cfa84-2b53-79ae-8cd3-3b0a3f19e5a5","019cfa3a-388e-72ab-ad58-bdeb258f96cd","","null","
                <div class=""stimulus-container"">
                    <img src=""images/causal_sequence/museum_causal/museum_causal_6.png"" class=""exp-image"">
                    <div class=""question-area""></div> 
                </div>","null","","","","","","","","","","","",""
"","","","","","html-button-response","154","267525","0.0-154.0","72F4920CFD57458689AF44F25973D167","019cfa84-2b53-79ae-8cd3-3b0a3f19e5a5","019cfa3a-388e-72ab-ad58-bdeb258f96cd","","551","
                <div class=""stimulus-container"">
                    <img src=""images/causal_sequence/museum_causal/museum_causal_6.png"" class=""exp-image"">
                    <div class=""question-area"">
                        <p style=""font-size: 20px; font-weight: bold; margin: 0;"">Is there a person in this image?</p>
                    </div>
                </div>","0","main_experiment_trial","6","museum_causal","causal_sequence","chronological","","","","","","",""
"","","","","","html-keyboard-response","155","268540","0.0-155.0","72F4920CFD57458689AF44F25973D167","019cfa84-2b53-79ae-8cd3-3b0a3f19e5a5","019cfa3a-388e-72ab-ad58-bdeb258f96cd","","null","
                <div class=""stimulus-container"">
                    <img src=""images/causal_sequence/museum_causal/museum_causal_7.png"" class=""exp-image"">
                    <div class=""question-area""></div> 
                </div>","null","","","","","","","","","","","",""
"","","","","","html-button-response","156","269025","0.0-156.0","72F4920CFD57458689AF44F25973D167","019cfa84-2b53-79ae-8cd3-3b0a3f19e5a5","019cfa3a-388e-72ab-ad58-bdeb258f96cd","","486","
                <div class=""stimulus-container"">
                    <img src=""images/causal_sequence/museum_causal/museum_causal_7.png"" class=""exp-image"">
                    <div class=""question-area"">
                        <p style=""font-size: 20px; font-weight: bold; margin: 0;"">Is there a person in this image?</p>
                    </div>
                </div>","1","main_experiment_trial","7","museum_causal","causal_sequence","chronological","","","","","","",""
"","","","","","html-keyboard-response","157","270029","0.0-157.0","72F4920CFD57458689AF44F25973D167","019cfa84-2b53-79ae-8cd3-3b0a3f19e5a5","019cfa3a-388e-72ab-ad58-bdeb258f96cd","","null","
                <div class=""stimulus-container"">
                    <img src=""images/causal_sequence/museum_causal/museum_causal_8.png"" class=""exp-image"">
                    <div class=""question-area""></div> 
                </div>","null","","","","","","","","","","","",""
"","","","","","html-button-response","158","270717","0.0-158.0","72F4920CFD57458689AF44F25973D167","019cfa84-2b53-79ae-8cd3-3b0a3f19e5a5","019cfa3a-388e-72ab-ad58-bdeb258f96cd","","690","
                <div class=""stimulus-container"">
                    <img src=""images/causal_sequence/museum_causal/museum_causal_8.png"" class=""exp-image"">
                    <div class=""question-area"">
                        <p style=""font-size: 20px; font-weight: bold; margin: 0;"">Is there a person in this image?</p>
                    </div>
                </div>","0","main_experiment_trial","8","museum_causal","causal_sequence","chronological","","","","","","",""
"","","","","","html-keyboard-response","159","271726","0.0-159.0","72F4920CFD57458689AF44F25973D167","019cfa84-2b53-79ae-8cd3-3b0a3f19e5a5","019cfa3a-388e-72ab-ad58-bdeb258f96cd","","null","
                <div class=""stimulus-container"">
                    <img src=""images/causal_sequence/museum_causal/museum_causal_9.png"" class=""exp-image"">
                    <div class=""question-area""></div> 
                </div>","null","","","","","","","","","","","",""
"","","","","","html-button-response","160","272201","0.0-160.0","72F4920CFD57458689AF44F25973D167","019cfa84-2b53-79ae-8cd3-3b0a3f19e5a5","019cfa3a-388e-72ab-ad58-bdeb258f96cd","","475","
                <div class=""stimulus-container"">
                    <img src=""images/causal_sequence/museum_causal/museum_causal_9.png"" class=""exp-image"">
                    <div class=""question-area"">
                        <p style=""font-size: 20px; font-weight: bold; margin: 0;"">Is there a person in this image?</p>
                    </div>
                </div>","1","main_experiment_trial","9","museum_causal","causal_sequence","chronological","","","","","","",""
"","","","","","html-keyboard-response","161","273209","0.0-161.0","72F4920CFD57458689AF44F25973D167","019cfa84-2b53-79ae-8cd3-3b0a3f19e5a5","019cfa3a-388e-72ab-ad58-bdeb258f96cd","","null","
                <div class=""stimulus-container"">
                    <img src=""images/causal_sequence/museum_causal/museum_causal_ten.png"" class=""exp-image"">
                    <div class=""question-area""></div> 
                </div>","null","","","","","","","","","","","",""
"","","","","","html-button-response","162","273642","0.0-162.0","72F4920CFD57458689AF44F25973D167","019cfa84-2b53-79ae-8cd3-3b0a3f19e5a5","019cfa3a-388e-72ab-ad58-bdeb258f96cd","","432","
                <div class=""stimulus-container"">
                    <img src=""images/causal_sequence/museum_causal/museum_causal_ten.png"" class=""exp-image"">
                    <div class=""question-area"">
                        <p style=""font-size: 20px; font-weight: bold; margin: 0;"">Is there a person in this image?</p>
                    </div>
                </div>","0","main_experiment_trial","ten","museum_causal","causal_sequence","chronological","","","","","","",""
"","","","","","html-keyboard-response","163","278647","0.0-163.0","72F4920CFD57458689AF44F25973D167","019cfa84-2b53-79ae-8cd3-3b0a3f19e5a5","019cfa3a-388e-72ab-ad58-bdeb258f96cd","","null","<div style=""background-color: white; width: 100vw; height: 100vh;""></div>","null","","","","","","","","","","","",""
"","","","","","html-keyboard-response","164","279648","0.0-164.0","72F4920CFD57458689AF44F25973D167","019cfa84-2b53-79ae-8cd3-3b0a3f19e5a5","019cfa3a-388e-72ab-ad58-bdeb258f96cd","","null","
                <div class=""stimulus-container"">
                    <img src=""images/causal_sequence/coin_causal/coin_causal_1.png"" class=""exp-image"">
                    <div class=""question-area""></div> 
                </div>","null","","","","","","","","","","","",""
"","","","","","html-button-response","165","280305","0.0-165.0","72F4920CFD57458689AF44F25973D167","019cfa84-2b53-79ae-8cd3-3b0a3f19e5a5","019cfa3a-388e-72ab-ad58-bdeb258f96cd","","656","
                <div class=""stimulus-container"">
                    <img src=""images/causal_sequence/coin_causal/coin_causal_1.png"" class=""exp-image"">
                    <div class=""question-area"">
                        <p style=""font-size: 20px; font-weight: bold; margin: 0;"">Is there a person in this image?</p>
                    </div>
                </div>","0","main_experiment_trial","1","coin_causal","causal_sequence","chronological","","","","","","",""
"","","","","","html-keyboard-response","166","281320","0.0-166.0","72F4920CFD57458689AF44F25973D167","019cfa84-2b53-79ae-8cd3-3b0a3f19e5a5","019cfa3a-388e-72ab-ad58-bdeb258f96cd","","null","
                <div class=""stimulus-container"">
                    <img src=""images/causal_sequence/coin_causal/coin_causal_2.png"" class=""exp-image"">
                    <div class=""question-area""></div> 
                </div>","null","","","","","","","","","","","",""
"","","","","","html-button-response","167","282414","0.0-167.0","72F4920CFD57458689AF44F25973D167","019cfa84-2b53-79ae-8cd3-3b0a3f19e5a5","019cfa3a-388e-72ab-ad58-bdeb258f96cd","","1094","
                <div class=""stimulus-container"">
                    <img src=""images/causal_sequence/coin_causal/coin_causal_2.png"" class=""exp-image"">
                    <div class=""question-area"">
                        <p style=""font-size: 20px; font-weight: bold; margin: 0;"">Is there a person in this image?</p>
                    </div>
                </div>","0","main_experiment_trial","2","coin_causal","causal_sequence","chronological","","","","","","",""
"","","","","","html-keyboard-response","168","283430","0.0-168.0","72F4920CFD57458689AF44F25973D167","019cfa84-2b53-79ae-8cd3-3b0a3f19e5a5","019cfa3a-388e-72ab-ad58-bdeb258f96cd","","null","
                <div class=""stimulus-container"">
                    <img src=""images/causal_sequence/coin_causal/coin_causal_3.png"" class=""exp-image"">
                    <div class=""question-area""></div> 
                </div>","null","","","","","","","","","","","",""
"","","","","","html-button-response","169","284229","0.0-169.0","72F4920CFD57458689AF44F25973D167","019cfa84-2b53-79ae-8cd3-3b0a3f19e5a5","019cfa3a-388e-72ab-ad58-bdeb258f96cd","","800","
                <div class=""stimulus-container"">
                    <img src=""images/causal_sequence/coin_causal/coin_causal_3.png"" class=""exp-image"">
                    <div class=""question-area"">
                        <p style=""font-size: 20px; font-weight: bold; margin: 0;"">Is there a person in this image?</p>
                    </div>
                </div>","0","main_experiment_trial","3","coin_causal","causal_sequence","chronological","","","","","","",""
"","","","","","html-keyboard-response","170","285233","0.0-170.0","72F4920CFD57458689AF44F25973D167","019cfa84-2b53-79ae-8cd3-3b0a3f19e5a5","019cfa3a-388e-72ab-ad58-bdeb258f96cd","","null","
                <div class=""stimulus-container"">
                    <img src=""images/causal_sequence/coin_causal/coin_causal_4.png"" class=""exp-image"">
                    <div class=""question-area""></div> 
                </div>","null","","","","","","","","","","","",""
"","","","","","html-button-response","171","285709","0.0-171.0","72F4920CFD57458689AF44F25973D167","019cfa84-2b53-79ae-8cd3-3b0a3f19e5a5","019cfa3a-388e-72ab-ad58-bdeb258f96cd","","475","
                <div class=""stimulus-container"">
                    <img src=""images/causal_sequence/coin_causal/coin_causal_4.png"" class=""exp-image"">
                    <div class=""question-area"">
                        <p style=""font-size: 20px; font-weight: bold; margin: 0;"">Is there a person in this image?</p>
                    </div>
                </div>","0","main_experiment_trial","4","coin_causal","causal_sequence","chronological","","","","","","",""
"","","","","","html-keyboard-response","172","286721","0.0-172.0","72F4920CFD57458689AF44F25973D167","019cfa84-2b53-79ae-8cd3-3b0a3f19e5a5","019cfa3a-388e-72ab-ad58-bdeb258f96cd","","null","
                <div class=""stimulus-container"">
                    <img src=""images/causal_sequence/coin_causal/coin_causal_5.png"" class=""exp-image"">
                    <div class=""question-area""></div> 
                </div>","null","","","","","","","","","","","",""
"","","","","","html-button-response","173","287161","0.0-173.0","72F4920CFD57458689AF44F25973D167","019cfa84-2b53-79ae-8cd3-3b0a3f19e5a5","019cfa3a-388e-72ab-ad58-bdeb258f96cd","","440","
                <div class=""stimulus-container"">
                    <img src=""images/causal_sequence/coin_causal/coin_causal_5.png"" class=""exp-image"">
                    <div class=""question-area"">
                        <p style=""font-size: 20px; font-weight: bold; margin: 0;"">Is there a person in this image?</p>
                    </div>
                </div>","0","main_experiment_trial","5","coin_causal","causal_sequence","chronological","","","","","","",""
"","","","","","html-keyboard-response","174","288174","0.0-174.0","72F4920CFD57458689AF44F25973D167","019cfa84-2b53-79ae-8cd3-3b0a3f19e5a5","019cfa3a-388e-72ab-ad58-bdeb258f96cd","","null","
                <div class=""stimulus-container"">
                    <img src=""images/causal_sequence/coin_causal/coin_causal_6.png"" class=""exp-image"">
                    <div class=""question-area""></div> 
                </div>","null","","","","","","","","","","","",""
"","","","","","html-button-response","175","288561","0.0-175.0","72F4920CFD57458689AF44F25973D167","019cfa84-2b53-79ae-8cd3-3b0a3f19e5a5","019cfa3a-388e-72ab-ad58-bdeb258f96cd","","386","
                <div class=""stimulus-container"">
                    <img src=""images/causal_sequence/coin_causal/coin_causal_6.png"" class=""exp-image"">
                    <div class=""question-area"">
                        <p style=""font-size: 20px; font-weight: bold; margin: 0;"">Is there a person in this image?</p>
                    </div>
                </div>","0","main_experiment_trial","6","coin_causal","causal_sequence","chronological","","","","","","",""
"","","","","","html-keyboard-response","176","289570","0.0-176.0","72F4920CFD57458689AF44F25973D167","019cfa84-2b53-79ae-8cd3-3b0a3f19e5a5","019cfa3a-388e-72ab-ad58-bdeb258f96cd","","null","
                <div class=""stimulus-container"">
                    <img src=""images/causal_sequence/coin_causal/coin_causal_7.png"" class=""exp-image"">
                    <div class=""question-area""></div> 
