"success","timeout","failed_images","failed_audio","failed_video","trial_type","trial_index","time_elapsed","internal_node_id","subject_id","study_id","session_id","view_history","rt","stimulus","response","task","image_index","folder","valuable_image_index","reward_type","valuable_X","chosen_image_index","distance_from_X"
"false","false","[]","[]","[]","preload","0","47988","0.0-0.0","2810E4BC25BC4C19901BB68B978E2228","019ce87b-29b4-7f2e-8cc5-1681c5ab2b0e","019ce875-66c2-7f0b-b5e8-086c75889f84","","","","","","","","","","","",""
"","","","","","instructions","1","71282","0.0-1.0","2810E4BC25BC4C19901BB68B978E2228","019ce87b-29b4-7f2e-8cc5-1681c5ab2b0e","019ce875-66c2-7f0b-b5e8-086c75889f84","[{""page_index"":0,""viewing_time"":23293}]","23293","","","","","","","","","",""
"","","","","","instructions","2","98422","0.0-2.0","2810E4BC25BC4C19901BB68B978E2228","019ce87b-29b4-7f2e-8cc5-1681c5ab2b0e","019ce875-66c2-7f0b-b5e8-086c75889f84","[{""page_index"":0,""viewing_time"":27139}]","27140","","","","","","","","","",""
"true","","","","","fullscreen","3","104521","0.0-3.0","2810E4BC25BC4C19901BB68B978E2228","019ce87b-29b4-7f2e-8cc5-1681c5ab2b0e","019ce875-66c2-7f0b-b5e8-086c75889f84","","5095","","","","","","","","","",""
"","","","","","instructions","4","226233","0.0-4.0","2810E4BC25BC4C19901BB68B978E2228","019ce87b-29b4-7f2e-8cc5-1681c5ab2b0e","019ce875-66c2-7f0b-b5e8-086c75889f84","[{""page_index"":0,""viewing_time"":121710}]","121711","","","","","","","","","",""
"","","","","","instructions","5","241744","0.0-5.0","2810E4BC25BC4C19901BB68B978E2228","019ce87b-29b4-7f2e-8cc5-1681c5ab2b0e","019ce875-66c2-7f0b-b5e8-086c75889f84","[{""page_index"":0,""viewing_time"":15510}]","15510","","","","","","","","","",""
"","","","","","html-keyboard-response","6","245758","0.0-6.0","2810E4BC25BC4C19901BB68B978E2228","019ce87b-29b4-7f2e-8cc5-1681c5ab2b0e","019ce875-66c2-7f0b-b5e8-086c75889f84","","null","
                <div class=""stimulus-container"">
                    <img src=""images/instructions/movie_1.png"" class=""exp-image"">
                    <div class=""question-area""></div> 
                </div>","null","","","","","","","",""
"","","","","","html-button-response","7","248761","0.0-7.0","2810E4BC25BC4C19901BB68B978E2228","019ce87b-29b4-7f2e-8cc5-1681c5ab2b0e","019ce875-66c2-7f0b-b5e8-086c75889f84","","null","
                <div class=""stimulus-container"">
                    <img src=""images/instructions/movie_1.png"" class=""exp-image"">
                    <div class=""question-area"">
                        <p style=""font-size: 20px; font-weight: bold; margin: 0;"">Was there a person in this image?</p>
                    </div>
                </div>","null","example_question","1","","","","","",""
"","","","","","html-keyboard-response","8","252771","0.0-8.0","2810E4BC25BC4C19901BB68B978E2228","019ce87b-29b4-7f2e-8cc5-1681c5ab2b0e","019ce875-66c2-7f0b-b5e8-086c75889f84","","null","
                <div class=""stimulus-container"">
                    <img src=""images/instructions/movie_2.png"" class=""exp-image"">
                    <div class=""question-area""></div> 
                </div>","null","","","","","","","",""
"","","","","","html-button-response","9","255778","0.0-9.0","2810E4BC25BC4C19901BB68B978E2228","019ce87b-29b4-7f2e-8cc5-1681c5ab2b0e","019ce875-66c2-7f0b-b5e8-086c75889f84","","null","
                <div class=""stimulus-container"">
                    <img src=""images/instructions/movie_2.png"" class=""exp-image"">
                    <div class=""question-area"">
                        <p style=""font-size: 20px; font-weight: bold; margin: 0;"">Was there a person in this image?</p>
                    </div>
                </div>","null","example_question","2","","","","","",""
"","","","","","html-keyboard-response","10","259780","0.0-10.0","2810E4BC25BC4C19901BB68B978E2228","019ce87b-29b4-7f2e-8cc5-1681c5ab2b0e","019ce875-66c2-7f0b-b5e8-086c75889f84","","null","
                <div class=""stimulus-container"">
                    <img src=""images/instructions/movie_3.png"" class=""exp-image"">
                    <div class=""question-area""></div> 
                </div>","null","","","","","","","",""
"","","","","","html-button-response","11","260536","0.0-11.0","2810E4BC25BC4C19901BB68B978E2228","019ce87b-29b4-7f2e-8cc5-1681c5ab2b0e","019ce875-66c2-7f0b-b5e8-086c75889f84","","755","
                <div class=""stimulus-container"">
                    <img src=""images/instructions/movie_3.png"" class=""exp-image"">
                    <div class=""question-area"">
                        <p style=""font-size: 20px; font-weight: bold; margin: 0;"">Was there a person in this image?</p>
                    </div>
                </div>","0","example_question","3","","","","","",""
"","","","","","html-keyboard-response","12","264547","0.0-12.0","2810E4BC25BC4C19901BB68B978E2228","019ce87b-29b4-7f2e-8cc5-1681c5ab2b0e","019ce875-66c2-7f0b-b5e8-086c75889f84","","null","
                <div class=""stimulus-container"">
                    <img src=""images/instructions/movie_4.png"" class=""exp-image"">
                    <div class=""question-area""></div> 
                </div>","null","","","","","","","",""
"","","","","","html-button-response","13","265158","0.0-13.0","2810E4BC25BC4C19901BB68B978E2228","019ce87b-29b4-7f2e-8cc5-1681c5ab2b0e","019ce875-66c2-7f0b-b5e8-086c75889f84","","610","
                <div class=""stimulus-container"">
                    <img src=""images/instructions/movie_4.png"" class=""exp-image"">
                    <div class=""question-area"">
                        <p style=""font-size: 20px; font-weight: bold; margin: 0;"">Was there a person in this image?</p>
                    </div>
                </div>","0","example_question","4","","","","","",""
"","","","","","instructions","14","270085","0.0-14.0","2810E4BC25BC4C19901BB68B978E2228","019ce87b-29b4-7f2e-8cc5-1681c5ab2b0e","019ce875-66c2-7f0b-b5e8-086c75889f84","[{""page_index"":0,""viewing_time"":4926}]","4926","","","","","","","","","",""
"","","","","","html-keyboard-response","15","271088","0.0-15.0","2810E4BC25BC4C19901BB68B978E2228","019ce87b-29b4-7f2e-8cc5-1681c5ab2b0e","019ce875-66c2-7f0b-b5e8-086c75889f84","","null","<div style=""background-color: gray; width: 100vw; height: 100vh;""></div>","null","","","","","","","",""
"","","","","","html-keyboard-response","16","276102","0.0-16.0","2810E4BC25BC4C19901BB68B978E2228","019ce87b-29b4-7f2e-8cc5-1681c5ab2b0e","019ce875-66c2-7f0b-b5e8-086c75889f84","","null","
                    <div class=""stimulus-container"">
                        <img src=""images/causal_sequence/coin_causal/coin_causal_1.png"" class=""exp-image"">
                        <div class=""question-area""></div> 
                    </div>","null","","","","","","","",""
"","","","","","html-button-response","17","279039","0.0-17.0","2810E4BC25BC4C19901BB68B978E2228","019ce87b-29b4-7f2e-8cc5-1681c5ab2b0e","019ce875-66c2-7f0b-b5e8-086c75889f84","","2935","
                    <div class=""stimulus-container"">
                        <img src=""images/causal_sequence/coin_causal/coin_causal_1.png"" class=""exp-image"">
                        <div class=""question-area"">
                            <p style=""font-size: 20px; font-weight: bold; margin: 0;"">Is there a person in this image?</p>
                        </div>
                    </div>","0","main_causal_task","1","coin_causal","","","","",""
"","","","","","html-keyboard-response","18","284056","0.0-18.0","2810E4BC25BC4C19901BB68B978E2228","019ce87b-29b4-7f2e-8cc5-1681c5ab2b0e","019ce875-66c2-7f0b-b5e8-086c75889f84","","null","
                    <div class=""stimulus-container"">
                        <img src=""images/causal_sequence/coin_causal/coin_causal_2.png"" class=""exp-image"">
                        <div class=""question-area""></div> 
                    </div>","null","","","","","","","",""
"","","","","","html-button-response","19","287007","0.0-19.0","2810E4BC25BC4C19901BB68B978E2228","019ce87b-29b4-7f2e-8cc5-1681c5ab2b0e","019ce875-66c2-7f0b-b5e8-086c75889f84","","2950","
                    <div class=""stimulus-container"">
                        <img src=""images/causal_sequence/coin_causal/coin_causal_2.png"" class=""exp-image"">
                        <div class=""question-area"">
                            <p style=""font-size: 20px; font-weight: bold; margin: 0;"">Is there a person in this image?</p>
                        </div>
                    </div>","1","main_causal_task","2","coin_causal","","","","",""
"","","","","","html-keyboard-response","20","292019","0.0-20.0","2810E4BC25BC4C19901BB68B978E2228","019ce87b-29b4-7f2e-8cc5-1681c5ab2b0e","019ce875-66c2-7f0b-b5e8-086c75889f84","","null","
                    <div class=""stimulus-container"">
                        <img src=""images/causal_sequence/coin_causal/coin_causal_3.png"" class=""exp-image"">
                        <div class=""question-area""></div> 
                    </div>","null","","","","","","","",""
"","","","","","html-button-response","21","293723","0.0-21.0","2810E4BC25BC4C19901BB68B978E2228","019ce87b-29b4-7f2e-8cc5-1681c5ab2b0e","019ce875-66c2-7f0b-b5e8-086c75889f84","","1704","
                    <div class=""stimulus-container"">
                        <img src=""images/causal_sequence/coin_causal/coin_causal_3.png"" class=""exp-image"">
                        <div class=""question-area"">
                            <p style=""font-size: 20px; font-weight: bold; margin: 0;"">Is there a person in this image?</p>
                        </div>
                    </div>","0","main_causal_task","3","coin_causal","","","","",""
"","","","","","html-keyboard-response","22","298739","0.0-22.0","2810E4BC25BC4C19901BB68B978E2228","019ce87b-29b4-7f2e-8cc5-1681c5ab2b0e","019ce875-66c2-7f0b-b5e8-086c75889f84","","null","
                    <div class=""stimulus-container"">
                        <img src=""images/causal_sequence/coin_causal/coin_causal_4.png"" class=""exp-image"">
                        <div class=""question-area""></div> 
                    </div>","null","","","","","","","",""
"","","","","","html-button-response","23","299708","0.0-23.0","2810E4BC25BC4C19901BB68B978E2228","019ce87b-29b4-7f2e-8cc5-1681c5ab2b0e","019ce875-66c2-7f0b-b5e8-086c75889f84","","968","
                    <div class=""stimulus-container"">
                        <img src=""images/causal_sequence/coin_causal/coin_causal_4.png"" class=""exp-image"">
                        <div class=""question-area"">
                            <p style=""font-size: 20px; font-weight: bold; margin: 0;"">Is there a person in this image?</p>
                        </div>
                    </div>","0","main_causal_task","4","coin_causal","","","","",""
"","","","","","html-keyboard-response","24","304724","0.0-24.0","2810E4BC25BC4C19901BB68B978E2228","019ce87b-29b4-7f2e-8cc5-1681c5ab2b0e","019ce875-66c2-7f0b-b5e8-086c75889f84","","null","
                    <div class=""stimulus-container"">
                        <img src=""images/causal_sequence/coin_causal/coin_causal_5.png"" class=""exp-image"">
                        <div class=""question-area""></div> 
                    </div>","null","","","","","","","",""
"","","","","","html-button-response","25","305498","0.0-25.0","2810E4BC25BC4C19901BB68B978E2228","019ce87b-29b4-7f2e-8cc5-1681c5ab2b0e","019ce875-66c2-7f0b-b5e8-086c75889f84","","772","
                    <div class=""stimulus-container"">
                        <img src=""images/causal_sequence/coin_causal/coin_causal_5.png"" class=""exp-image"">
                        <div class=""question-area"">
                            <p style=""font-size: 20px; font-weight: bold; margin: 0;"">Is there a person in this image?</p>
                        </div>
                    </div>","0","main_causal_task","5","coin_causal","","","","",""
"","","","","","html-keyboard-response","26","310503","0.0-26.0","2810E4BC25BC4C19901BB68B978E2228","019ce87b-29b4-7f2e-8cc5-1681c5ab2b0e","019ce875-66c2-7f0b-b5e8-086c75889f84","","null","
                    <div class=""stimulus-container"">
                        <img src=""images/causal_sequence/coin_causal/coin_causal_6.png"" class=""exp-image"">
                        <div class=""question-area""></div> 
                    </div>","null","","","","","","","",""
"","","","","","html-button-response","27","311497","0.0-27.0","2810E4BC25BC4C19901BB68B978E2228","019ce87b-29b4-7f2e-8cc5-1681c5ab2b0e","019ce875-66c2-7f0b-b5e8-086c75889f84","","992","
                    <div class=""stimulus-container"">
                        <img src=""images/causal_sequence/coin_causal/coin_causal_6.png"" class=""exp-image"">
                        <div class=""question-area"">
                            <p style=""font-size: 20px; font-weight: bold; margin: 0;"">Is there a person in this image?</p>
                        </div>
                    </div>","0","main_causal_task","6","coin_causal","","","","",""
"","","","","","html-keyboard-response","28","316507","0.0-28.0","2810E4BC25BC4C19901BB68B978E2228","019ce87b-29b4-7f2e-8cc5-1681c5ab2b0e","019ce875-66c2-7f0b-b5e8-086c75889f84","","null","
                    <div class=""stimulus-container"">
                        <img src=""images/causal_sequence/coin_causal/coin_causal_7.png"" class=""exp-image"">
                        <div class=""question-area""></div> 
                    </div>","null","","","","","","","",""
"","","","","","html-button-response","29","318090","0.0-29.0","2810E4BC25BC4C19901BB68B978E2228","019ce87b-29b4-7f2e-8cc5-1681c5ab2b0e","019ce875-66c2-7f0b-b5e8-086c75889f84","","1582","
                    <div class=""stimulus-container"">
                        <img src=""images/causal_sequence/coin_causal/coin_causal_7.png"" class=""exp-image"">
                        <div class=""question-area"">
                            <p style=""font-size: 20px; font-weight: bold; margin: 0;"">Is there a person in this image?</p>
                        </div>
                    </div>","1","main_causal_task","7","coin_causal","","","","",""
"","","","","","html-keyboard-response","30","323107","0.0-30.0","2810E4BC25BC4C19901BB68B978E2228","019ce87b-29b4-7f2e-8cc5-1681c5ab2b0e","019ce875-66c2-7f0b-b5e8-086c75889f84","","null","
                    <div class=""stimulus-container"">
                        <img src=""images/causal_sequence/coin_causal/coin_causal_8.png"" class=""exp-image"">
                        <div class=""question-area""></div> 
                    </div>","null","","","","","","","",""
"","","","","","html-button-response","31","324408","0.0-31.0","2810E4BC25BC4C19901BB68B978E2228","019ce87b-29b4-7f2e-8cc5-1681c5ab2b0e","019ce875-66c2-7f0b-b5e8-086c75889f84","","1300","
                    <div class=""stimulus-container"">
                        <img src=""images/causal_sequence/coin_causal/coin_causal_8.png"" class=""exp-image"">
                        <div class=""question-area"">
                            <p style=""font-size: 20px; font-weight: bold; margin: 0;"">Is there a person in this image?</p>
                        </div>
                    </div>","0","main_causal_task","8","coin_causal","","","","",""
"","","","","","html-keyboard-response","32","329426","0.0-32.0","2810E4BC25BC4C19901BB68B978E2228","019ce87b-29b4-7f2e-8cc5-1681c5ab2b0e","019ce875-66c2-7f0b-b5e8-086c75889f84","","null","
                    <div class=""stimulus-container"">
                        <img src=""images/causal_sequence/coin_causal/coin_causal_9.png"" class=""exp-image"">
                        <div class=""question-area""></div> 
                    </div>","null","","","","","","","",""
"","","","","","html-button-response","33","330353","0.0-33.0","2810E4BC25BC4C19901BB68B978E2228","019ce87b-29b4-7f2e-8cc5-1681c5ab2b0e","019ce875-66c2-7f0b-b5e8-086c75889f84","","926","
                    <div class=""stimulus-container"">
                        <img src=""images/causal_sequence/coin_causal/coin_causal_9.png"" class=""exp-image"">
                        <div class=""question-area"">
                            <p style=""font-size: 20px; font-weight: bold; margin: 0;"">Is there a person in this image?</p>
                        </div>
                    </div>","0","main_causal_task","9","coin_causal","","","","",""
"","","","","","html-keyboard-response","34","331369","0.0-34.0","2810E4BC25BC4C19901BB68B978E2228","019ce87b-29b4-7f2e-8cc5-1681c5ab2b0e","019ce875-66c2-7f0b-b5e8-086c75889f84","","null","<div style=""background-color: gray; width: 100vw; height: 100vh;""></div>","null","","","","","","","",""
"","","","","","html-keyboard-response","35","336378","0.0-35.0","2810E4BC25BC4C19901BB68B978E2228","019ce87b-29b4-7f2e-8cc5-1681c5ab2b0e","019ce875-66c2-7f0b-b5e8-086c75889f84","","null","
                    <div class=""stimulus-container"">
                        <img src=""images/causal_sequence/saving_a_cat_causal/saving_a_cat_causal_1.png"" class=""exp-image"">
                        <div class=""question-area""></div> 
                    </div>","null","","","","","","","",""
"","","","","","html-button-response","36","337052","0.0-36.0","2810E4BC25BC4C19901BB68B978E2228","019ce87b-29b4-7f2e-8cc5-1681c5ab2b0e","019ce875-66c2-7f0b-b5e8-086c75889f84","","672","
                    <div class=""stimulus-container"">
                        <img src=""images/causal_sequence/saving_a_cat_causal/saving_a_cat_causal_1.png"" class=""exp-image"">
                        <div class=""question-area"">
                            <p style=""font-size: 20px; font-weight: bold; margin: 0;"">Is there a person in this image?</p>
                        </div>
                    </div>","0","main_causal_task","1","saving_a_cat_causal","","","","",""
"","","","","","html-keyboard-response","37","342062","0.0-37.0","2810E4BC25BC4C19901BB68B978E2228","019ce87b-29b4-7f2e-8cc5-1681c5ab2b0e","019ce875-66c2-7f0b-b5e8-086c75889f84","","null","
                    <div class=""stimulus-container"">
                        <img src=""images/causal_sequence/saving_a_cat_causal/saving_a_cat_causal_2.png"" class=""exp-image"">
                        <div class=""question-area""></div> 
                    </div>","null","","","","","","","",""
"","","","","","html-button-response","38","343523","0.0-38.0","2810E4BC25BC4C19901BB68B978E2228","019ce87b-29b4-7f2e-8cc5-1681c5ab2b0e","019ce875-66c2-7f0b-b5e8-086c75889f84","","1460","
                    <div class=""stimulus-container"">
                        <img src=""images/causal_sequence/saving_a_cat_causal/saving_a_cat_causal_2.png"" class=""exp-image"">
                        <div class=""question-area"">
                            <p style=""font-size: 20px; font-weight: bold; margin: 0;"">Is there a person in this image?</p>
                        </div>
                    </div>","1","main_causal_task","2","saving_a_cat_causal","","","","",""
"","","","","","html-keyboard-response","39","348526","0.0-39.0","2810E4BC25BC4C19901BB68B978E2228","019ce87b-29b4-7f2e-8cc5-1681c5ab2b0e","019ce875-66c2-7f0b-b5e8-086c75889f84","","null","
                    <div class=""stimulus-container"">
                        <img src=""images/causal_sequence/saving_a_cat_causal/saving_a_cat_causal_3.png"" class=""exp-image"">
                        <div class=""question-area""></div> 
                    </div>","null","","","","","","","",""
"","","","","","html-button-response","40","349480","0.0-40.0","2810E4BC25BC4C19901BB68B978E2228","019ce87b-29b4-7f2e-8cc5-1681c5ab2b0e","019ce875-66c2-7f0b-b5e8-086c75889f84","","953","
                    <div class=""stimulus-container"">
                        <img src=""images/causal_sequence/saving_a_cat_causal/saving_a_cat_causal_3.png"" class=""exp-image"">
                        <div class=""question-area"">
                            <p style=""font-size: 20px; font-weight: bold; margin: 0;"">Is there a person in this image?</p>
                        </div>
                    </div>","1","main_causal_task","3","saving_a_cat_causal","","","","",""
"","","","","","html-keyboard-response","41","354482","0.0-41.0","2810E4BC25BC4C19901BB68B978E2228","019ce87b-29b4-7f2e-8cc5-1681c5ab2b0e","019ce875-66c2-7f0b-b5e8-086c75889f84","","null","
                    <div class=""stimulus-container"">
                        <img src=""images/causal_sequence/saving_a_cat_causal/saving_a_cat_causal_4.png"" class=""exp-image"">
                        <div class=""question-area""></div> 
                    </div>","null","","","","","","","",""
"","","","","","html-button-response","42","355431","0.0-42.0","2810E4BC25BC4C19901BB68B978E2228","019ce87b-29b4-7f2e-8cc5-1681c5ab2b0e","019ce875-66c2-7f0b-b5e8-086c75889f84","","948","
                    <div class=""stimulus-container"">
                        <img src=""images/causal_sequence/saving_a_cat_causal/saving_a_cat_causal_4.png"" class=""exp-image"">
                        <div class=""question-area"">
                            <p style=""font-size: 20px; font-weight: bold; margin: 0;"">Is there a person in this image?</p>
                        </div>
                    </div>","0","main_causal_task","4","saving_a_cat_causal","","","","",""
"","","","","","html-keyboard-response","43","360434","0.0-43.0","2810E4BC25BC4C19901BB68B978E2228","019ce87b-29b4-7f2e-8cc5-1681c5ab2b0e","019ce875-66c2-7f0b-b5e8-086c75889f84","","null","
                    <div class=""stimulus-container"">
                        <img src=""images/causal_sequence/saving_a_cat_causal/saving_a_cat_causal_5.png"" class=""exp-image"">
                        <div class=""question-area""></div> 
                    </div>","null","","","","","","","",""
"","","","","","html-button-response","44","361352","0.0-44.0","2810E4BC25BC4C19901BB68B978E2228","019ce87b-29b4-7f2e-8cc5-1681c5ab2b0e","019ce875-66c2-7f0b-b5e8-086c75889f84","","917","
                    <div class=""stimulus-container"">
                        <img src=""images/causal_sequence/saving_a_cat_causal/saving_a_cat_causal_5.png"" class=""exp-image"">
                        <div class=""question-area"">
                            <p style=""font-size: 20px; font-weight: bold; margin: 0;"">Is there a person in this image?</p>
                        </div>
                    </div>","0","main_causal_task","5","saving_a_cat_causal","","","","",""
"","","","","","html-keyboard-response","45","366364","0.0-45.0","2810E4BC25BC4C19901BB68B978E2228","019ce87b-29b4-7f2e-8cc5-1681c5ab2b0e","019ce875-66c2-7f0b-b5e8-086c75889f84","","null","
                    <div class=""stimulus-container"">
                        <img src=""images/causal_sequence/saving_a_cat_causal/saving_a_cat_causal_6.png"" class=""exp-image"">
                        <div class=""question-area""></div> 
                    </div>","null","","","","","","","",""
"","","","","","html-button-response","46","367217","0.0-46.0","2810E4BC25BC4C19901BB68B978E2228","019ce87b-29b4-7f2e-8cc5-1681c5ab2b0e","019ce875-66c2-7f0b-b5e8-086c75889f84","","853","
                    <div class=""stimulus-container"">
                        <img src=""images/causal_sequence/saving_a_cat_causal/saving_a_cat_causal_6.png"" class=""exp-image"">
                        <div class=""question-area"">
                            <p style=""font-size: 20px; font-weight: bold; margin: 0;"">Is there a person in this image?</p>
                        </div>
                    </div>","0","main_causal_task","6","saving_a_cat_causal","","","","",""
"","","","","","html-keyboard-response","47","372229","0.0-47.0","2810E4BC25BC4C19901BB68B978E2228","019ce87b-29b4-7f2e-8cc5-1681c5ab2b0e","019ce875-66c2-7f0b-b5e8-086c75889f84","","null","
                    <div class=""stimulus-container"">
                        <img src=""images/causal_sequence/saving_a_cat_causal/saving_a_cat_causal_7.png"" class=""exp-image"">
                        <div class=""question-area""></div> 
                    </div>","null","","","","","","","",""
"","","","","","html-button-response","48","373739","0.0-48.0","2810E4BC25BC4C19901BB68B978E2228","019ce87b-29b4-7f2e-8cc5-1681c5ab2b0e","019ce875-66c2-7f0b-b5e8-086c75889f84","","1508","
                    <div class=""stimulus-container"">
                        <img src=""images/causal_sequence/saving_a_cat_causal/saving_a_cat_causal_7.png"" class=""exp-image"">
                        <div class=""question-area"">
                            <p style=""font-size: 20px; font-weight: bold; margin: 0;"">Is there a person in this image?</p>
                        </div>
                    </div>","0","main_causal_task","7","saving_a_cat_causal","","","","",""
"","","","","","html-keyboard-response","49","378743","0.0-49.0","2810E4BC25BC4C19901BB68B978E2228","019ce87b-29b4-7f2e-8cc5-1681c5ab2b0e","019ce875-66c2-7f0b-b5e8-086c75889f84","","null","
                    <div class=""stimulus-container"">
                        <img src=""images/causal_sequence/saving_a_cat_causal/saving_a_cat_causal_8.png"" class=""exp-image"">
                        <div class=""question-area""></div> 
                    </div>","null","","","","","","","",""
"","","","","","html-button-response","50","380415","0.0-50.0","2810E4BC25BC4C19901BB68B978E2228","019ce87b-29b4-7f2e-8cc5-1681c5ab2b0e","019ce875-66c2-7f0b-b5e8-086c75889f84","","1671","
                    <div class=""stimulus-container"">
                        <img src=""images/causal_sequence/saving_a_cat_causal/saving_a_cat_causal_8.png"" class=""exp-image"">
                        <div class=""question-area"">
                            <p style=""font-size: 20px; font-weight: bold; margin: 0;"">Is there a person in this image?</p>
                        </div>
                    </div>","0","main_causal_task","8","saving_a_cat_causal","","","","",""
"","","","","","html-keyboard-response","51","385425","0.0-51.0","2810E4BC25BC4C19901BB68B978E2228","019ce87b-29b4-7f2e-8cc5-1681c5ab2b0e","019ce875-66c2-7f0b-b5e8-086c75889f84","","null","
                    <div class=""stimulus-container"">
                        <img src=""images/causal_sequence/saving_a_cat_causal/saving_a_cat_causal_9.png"" class=""exp-image"">
                        <div class=""question-area""></div> 
                    </div>","null","","","","","","","",""
"","","","","","html-button-response","52","386251","0.0-52.0","2810E4BC25BC4C19901BB68B978E2228","019ce87b-29b4-7f2e-8cc5-1681c5ab2b0e","019ce875-66c2-7f0b-b5e8-086c75889f84","","825","
                    <div class=""stimulus-container"">
                        <img src=""images/causal_sequence/saving_a_cat_causal/saving_a_cat_causal_9.png"" class=""exp-image"">
                        <div class=""question-area"">
                            <p style=""font-size: 20px; font-weight: bold; margin: 0;"">Is there a person in this image?</p>
                        </div>
                    </div>","0","main_causal_task","9","saving_a_cat_causal","","","","",""
"","","","","","html-keyboard-response","53","387257","0.0-53.0","2810E4BC25BC4C19901BB68B978E2228","019ce87b-29b4-7f2e-8cc5-1681c5ab2b0e","019ce875-66c2-7f0b-b5e8-086c75889f84","","null","<div style=""background-color: gray; width: 100vw; height: 100vh;""></div>","null","","","","","","","",""
"","","","","","html-keyboard-response","54","392267","0.0-54.0","2810E4BC25BC4C19901BB68B978E2228","019ce87b-29b4-7f2e-8cc5-1681c5ab2b0e","019ce875-66c2-7f0b-b5e8-086c75889f84","","null","
                    <div class=""stimulus-container"">
                        <img src=""images/causal_sequence/dog_causal/dog_causal_1.png"" class=""exp-image"">
                        <div class=""question-area""></div> 
                    </div>","null","","","","","","","",""
"","","","","","html-button-response","55","393068","0.0-55.0","2810E4BC25BC4C19901BB68B978E2228","019ce87b-29b4-7f2e-8cc5-1681c5ab2b0e","019ce875-66c2-7f0b-b5e8-086c75889f84","","800","
                    <div class=""stimulus-container"">
                        <img src=""images/causal_sequence/dog_causal/dog_causal_1.png"" class=""exp-image"">
                        <div class=""question-area"">
                            <p style=""font-size: 20px; font-weight: bold; margin: 0;"">Is there a person in this image?</p>
                        </div>
                    </div>","0","main_causal_task","1","dog_causal","","","","",""
"","","","","","html-keyboard-response","56","398073","0.0-56.0","2810E4BC25BC4C19901BB68B978E2228","019ce87b-29b4-7f2e-8cc5-1681c5ab2b0e","019ce875-66c2-7f0b-b5e8-086c75889f84","","null","
                    <div class=""stimulus-container"">
                        <img src=""images/causal_sequence/dog_causal/dog_causal_2.png"" class=""exp-image"">
                        <div class=""question-area""></div> 
                    </div>","null","","","","","","","",""
"","","","","","html-button-response","57","399532","0.0-57.0","2810E4BC25BC4C19901BB68B978E2228","019ce87b-29b4-7f2e-8cc5-1681c5ab2b0e","019ce875-66c2-7f0b-b5e8-086c75889f84","","1457","
                    <div class=""stimulus-container"">
                        <img src=""images/causal_sequence/dog_causal/dog_causal_2.png"" class=""exp-image"">
                        <div class=""question-area"">
                            <p style=""font-size: 20px; font-weight: bold; margin: 0;"">Is there a person in this image?</p>
                        </div>
                    </div>","0","main_causal_task","2","dog_causal","","","","",""
"","","","","","html-keyboard-response","58","404542","0.0-58.0","2810E4BC25BC4C19901BB68B978E2228","019ce87b-29b4-7f2e-8cc5-1681c5ab2b0e","019ce875-66c2-7f0b-b5e8-086c75889f84","","null","
                    <div class=""stimulus-container"">
                        <img src=""images/causal_sequence/dog_causal/dog_causal_3.png"" class=""exp-image"">
                        <div class=""question-area""></div> 
                    </div>","null","","","","","","","",""
"","","","","","html-button-response","59","405532","0.0-59.0","2810E4BC25BC4C19901BB68B978E2228","019ce87b-29b4-7f2e-8cc5-1681c5ab2b0e","019ce875-66c2-7f0b-b5e8-086c75889f84","","989","
                    <div class=""stimulus-container"">
                        <img src=""images/causal_sequence/dog_causal/dog_causal_3.png"" class=""exp-image"">
                        <div class=""question-area"">
                            <p style=""font-size: 20px; font-weight: bold; margin: 0;"">Is there a person in this image?</p>
                        </div>
                    </div>","0","main_causal_task","3","dog_causal","","","","",""
"","","","","","html-keyboard-response","60","410545","0.0-60.0","2810E4BC25BC4C19901BB68B978E2228","019ce87b-29b4-7f2e-8cc5-1681c5ab2b0e","019ce875-66c2-7f0b-b5e8-086c75889f84","","null","
                    <div class=""stimulus-container"">
                        <img src=""images/causal_sequence/dog_causal/dog_causal_4.png"" class=""exp-image"">
                        <div class=""question-area""></div> 
                    </div>","null","","","","","","","",""
"","","","","","html-button-response","61","412569","0.0-61.0","2810E4BC25BC4C19901BB68B978E2228","019ce87b-29b4-7f2e-8cc5-1681c5ab2b0e","019ce875-66c2-7f0b-b5e8-086c75889f84","","2023","
                    <div class=""stimulus-container"">
                        <img src=""images/causal_sequence/dog_causal/dog_causal_4.png"" class=""exp-image"">
                        <div class=""question-area"">
                            <p style=""font-size: 20px; font-weight: bold; margin: 0;"">Is there a person in this image?</p>
                        </div>
                    </div>","0","main_causal_task","4","dog_causal","","","","",""
"","","","","","html-keyboard-response","62","417571","0.0-62.0","2810E4BC25BC4C19901BB68B978E2228","019ce87b-29b4-7f2e-8cc5-1681c5ab2b0e","019ce875-66c2-7f0b-b5e8-086c75889f84","","null","
                    <div class=""stimulus-container"">
                        <img src=""images/causal_sequence/dog_causal/dog_causal_5.png"" class=""exp-image"">
                        <div class=""question-area""></div> 
                    </div>","null","","","","","","","",""
"","","","","","html-button-response","63","419120","0.0-63.0","2810E4BC25BC4C19901BB68B978E2228","019ce87b-29b4-7f2e-8cc5-1681c5ab2b0e","019ce875-66c2-7f0b-b5e8-086c75889f84","","1547","
                    <div class=""stimulus-container"">
                        <img src=""images/causal_sequence/dog_causal/dog_causal_5.png"" class=""exp-image"">
                        <div class=""question-area"">
                            <p style=""font-size: 20px; font-weight: bold; margin: 0;"">Is there a person in this image?</p>
                        </div>
                    </div>","0","main_causal_task","5","dog_causal","","","","",""
"","","","","","html-keyboard-response","64","424121","0.0-64.0","2810E4BC25BC4C19901BB68B978E2228","019ce87b-29b4-7f2e-8cc5-1681c5ab2b0e","019ce875-66c2-7f0b-b5e8-086c75889f84","","null","
                    <div class=""stimulus-container"">
                        <img src=""images/causal_sequence/dog_causal/dog_causal_6.png"" class=""exp-image"">
                        <div class=""question-area""></div> 
                    </div>","null","","","","","","","",""
"","","","","","html-button-response","65","425218","0.0-65.0","2810E4BC25BC4C19901BB68B978E2228","019ce87b-29b4-7f2e-8cc5-1681c5ab2b0e","019ce875-66c2-7f0b-b5e8-086c75889f84","","1096","
                    <div class=""stimulus-container"">
                        <img src=""images/causal_sequence/dog_causal/dog_causal_6.png"" class=""exp-image"">
                        <div class=""question-area"">
                            <p style=""font-size: 20px; font-weight: bold; margin: 0;"">Is there a person in this image?</p>
                        </div>
                    </div>","0","main_causal_task","6","dog_causal","","","","",""
"","","","","","html-keyboard-response","66","430233","0.0-66.0","2810E4BC25BC4C19901BB68B978E2228","019ce87b-29b4-7f2e-8cc5-1681c5ab2b0e","019ce875-66c2-7f0b-b5e8-086c75889f84","","null","
                    <div class=""stimulus-container"">
                        <img src=""images/causal_sequence/dog_causal/dog_causal_7.png"" class=""exp-image"">
                        <div class=""question-area""></div> 
                    </div>","null","","","","","","","",""
"","","","","","html-button-response","67","431634","0.0-67.0","2810E4BC25BC4C19901BB68B978E2228","019ce87b-29b4-7f2e-8cc5-1681c5ab2b0e","019ce875-66c2-7f0b-b5e8-086c75889f84","","1400","
                    <div class=""stimulus-container"">
                        <img src=""images/causal_sequence/dog_causal/dog_causal_7.png"" class=""exp-image"">
                        <div class=""question-area"">
                            <p style=""font-size: 20px; font-weight: bold; margin: 0;"">Is there a person in this image?</p>
                        </div>
                    </div>","0","main_causal_task","7","dog_causal","","","","",""
"","","","","","html-keyboard-response","68","436646","0.0-68.0","2810E4BC25BC4C19901BB68B978E2228","019ce87b-29b4-7f2e-8cc5-1681c5ab2b0e","019ce875-66c2-7f0b-b5e8-086c75889f84","","null","
                    <div class=""stimulus-container"">
                        <img src=""images/causal_sequence/dog_causal/dog_causal_8.png"" class=""exp-image"">
                        <div class=""question-area""></div> 
                    </div>","null","","","","","","","",""
"","","","","","html-button-response","69","437993","0.0-69.0","2810E4BC25BC4C19901BB68B978E2228","019ce87b-29b4-7f2e-8cc5-1681c5ab2b0e","019ce875-66c2-7f0b-b5e8-086c75889f84","","1346","
                    <div class=""stimulus-container"">
                        <img src=""images/causal_sequence/dog_causal/dog_causal_8.png"" class=""exp-image"">
                        <div class=""question-area"">
                            <p style=""font-size: 20px; font-weight: bold; margin: 0;"">Is there a person in this image?</p>
                        </div>
                    </div>","0","main_causal_task","8","dog_causal","","","","",""
"","","","","","html-keyboard-response","70","442998","0.0-70.0","2810E4BC25BC4C19901BB68B978E2228","019ce87b-29b4-7f2e-8cc5-1681c5ab2b0e","019ce875-66c2-7f0b-b5e8-086c75889f84","","null","
                    <div class=""stimulus-container"">
                        <img src=""images/causal_sequence/dog_causal/dog_causal_9.png"" class=""exp-image"">
                        <div class=""question-area""></div> 
                    </div>","null","","","","","","","",""
"","","","","","html-button-response","71","444084","0.0-71.0","2810E4BC25BC4C19901BB68B978E2228","019ce87b-29b4-7f2e-8cc5-1681c5ab2b0e","019ce875-66c2-7f0b-b5e8-086c75889f84","","1085","
                    <div class=""stimulus-container"">
                        <img src=""images/causal_sequence/dog_causal/dog_causal_9.png"" class=""exp-image"">
                        <div class=""question-area"">
                            <p style=""font-size: 20px; font-weight: bold; margin: 0;"">Is there a person in this image?</p>
                        </div>
                    </div>","0","main_causal_task","9","dog_causal","","","","",""
"","","","","","html-keyboard-response","72","445086","0.0-72.0","2810E4BC25BC4C19901BB68B978E2228","019ce87b-29b4-7f2e-8cc5-1681c5ab2b0e","019ce875-66c2-7f0b-b5e8-086c75889f84","","null","<div style=""background-color: gray; width: 100vw; height: 100vh;""></div>","null","","","","","","","",""
"","","","","","html-keyboard-response","73","450098","0.0-73.0","2810E4BC25BC4C19901BB68B978E2228","019ce87b-29b4-7f2e-8cc5-1681c5ab2b0e","019ce875-66c2-7f0b-b5e8-086c75889f84","","null","
                    <div class=""stimulus-container"">
                        <img src=""images/causal_sequence/the_performance_causal/the_performance_causal_1.png"" class=""exp-image"">
                        <div class=""question-area""></div> 
                    </div>","null","","","","","","","",""
"","","","","","html-button-response","74","451090","0.0-74.0","2810E4BC25BC4C19901BB68B978E2228","019ce87b-29b4-7f2e-8cc5-1681c5ab2b0e","019ce875-66c2-7f0b-b5e8-086c75889f84","","991","
                    <div class=""stimulus-container"">
                        <img src=""images/causal_sequence/the_performance_causal/the_performance_causal_1.png"" class=""exp-image"">
                        <div class=""question-area"">
                            <p style=""font-size: 20px; font-weight: bold; margin: 0;"">Is there a person in this image?</p>
                        </div>
                    </div>","0","main_causal_task","1","the_performance_causal","","","","",""
"","","","","","html-keyboard-response","75","456091","0.0-75.0","2810E4BC25BC4C19901BB68B978E2228","019ce87b-29b4-7f2e-8cc5-1681c5ab2b0e","019ce875-66c2-7f0b-b5e8-086c75889f84","","null","
                    <div class=""stimulus-container"">
                        <img src=""images/causal_sequence/the_performance_causal/the_performance_causal_2.png"" class=""exp-image"">
                        <div class=""question-area""></div> 
                    </div>","null","","","","","","","",""
"","","","","","html-button-response","76","459097","0.0-76.0","2810E4BC25BC4C19901BB68B978E2228","019ce87b-29b4-7f2e-8cc5-1681c5ab2b0e","019ce875-66c2-7f0b-b5e8-086c75889f84","","null","
                    <div class=""stimulus-container"">
                        <img src=""images/causal_sequence/the_performance_causal/the_performance_causal_2.png"" class=""exp-image"">
                        <div class=""question-area"">
                            <p style=""font-size: 20px; font-weight: bold; margin: 0;"">Is there a person in this image?</p>
                        </div>
                    </div>","null","main_causal_task","2","the_performance_causal","","","","",""
"","","","","","html-keyboard-response","77","464098","0.0-77.0","2810E4BC25BC4C19901BB68B978E2228","019ce87b-29b4-7f2e-8cc5-1681c5ab2b0e","019ce875-66c2-7f0b-b5e8-086c75889f84","","null","
                    <div class=""stimulus-container"">
                        <img src=""images/causal_sequence/the_performance_causal/the_performance_causal_3.png"" class=""exp-image"">
                        <div class=""question-area""></div> 
                    </div>","null","","","","","","","",""
"","","","","","html-button-response","78","466220","0.0-78.0","2810E4BC25BC4C19901BB68B978E2228","019ce87b-29b4-7f2e-8cc5-1681c5ab2b0e","019ce875-66c2-7f0b-b5e8-086c75889f84","","2121","
                    <div class=""stimulus-container"">
                        <img src=""images/causal_sequence/the_performance_causal/the_performance_causal_3.png"" class=""exp-image"">
                        <div class=""question-area"">
                            <p style=""font-size: 20px; font-weight: bold; margin: 0;"">Is there a person in this image?</p>
                        </div>
                    </div>","0","main_causal_task","3","the_performance_causal","","","","",""
"","","","","","html-keyboard-response","79","471224","0.0-79.0","2810E4BC25BC4C19901BB68B978E2228","019ce87b-29b4-7f2e-8cc5-1681c5ab2b0e","019ce875-66c2-7f0b-b5e8-086c75889f84","","null","
                    <div class=""stimulus-container"">
                        <img src=""images/causal_sequence/the_performance_causal/the_performance_causal_4.png"" class=""exp-image"">
                        <div class=""question-area""></div> 
                    </div>","null","","","","","","","",""
"","","","","","html-button-response","80","472818","0.0-80.0","2810E4BC25BC4C19901BB68B978E2228","019ce87b-29b4-7f2e-8cc5-1681c5ab2b0e","019ce875-66c2-7f0b-b5e8-086c75889f84","","1593","
                    <div class=""stimulus-container"">
                        <img src=""images/causal_sequence/the_performance_causal/the_performance_causal_4.png"" class=""exp-image"">
                        <div class=""question-area"">
                            <p style=""font-size: 20px; font-weight: bold; margin: 0;"">Is there a person in this image?</p>
                        </div>
                    </div>","0","main_causal_task","4","the_performance_causal","","","","",""
"","","","","","html-keyboard-response","81","477819","0.0-81.0","2810E4BC25BC4C19901BB68B978E2228","019ce87b-29b4-7f2e-8cc5-1681c5ab2b0e","019ce875-66c2-7f0b-b5e8-086c75889f84","","null","
                    <div class=""stimulus-container"">
                        <img src=""images/causal_sequence/the_performance_causal/the_performance_causal_5.png"" class=""exp-image"">
                        <div class=""question-area""></div> 
                    </div>","null","","","","","","","",""
"","","","","","html-button-response","82","478780","0.0-82.0","2810E4BC25BC4C19901BB68B978E2228","019ce87b-29b4-7f2e-8cc5-1681c5ab2b0e","019ce875-66c2-7f0b-b5e8-086c75889f84","","960","
                    <div class=""stimulus-container"">
                        <img src=""images/causal_sequence/the_performance_causal/the_performance_causal_5.png"" class=""exp-image"">
                        <div class=""question-area"">
                            <p style=""font-size: 20px; font-weight: bold; margin: 0;"">Is there a person in this image?</p>
                        </div>
                    </div>","0","main_causal_task","5","the_performance_causal","","","","",""
"","","","","","html-keyboard-response","83","483784","0.0-83.0","2810E4BC25BC4C19901BB68B978E2228","019ce87b-29b4-7f2e-8cc5-1681c5ab2b0e","019ce875-66c2-7f0b-b5e8-086c75889f84","","null","
                    <div class=""stimulus-container"">
                        <img src=""images/causal_sequence/the_performance_causal/the_performance_causal_6.png"" class=""exp-image"">
                        <div class=""question-area""></div> 
                    </div>","null","","","","","","","",""
"","","","","","html-button-response","84","486794","0.0-84.0","2810E4BC25BC4C19901BB68B978E2228","019ce87b-29b4-7f2e-8cc5-1681c5ab2b0e","019ce875-66c2-7f0b-b5e8-086c75889f84","","null","
                    <div class=""stimulus-container"">
                        <img src=""images/causal_sequence/the_performance_causal/the_performance_causal_6.png"" class=""exp-image"">
                        <div class=""question-area"">
                            <p style=""font-size: 20px; font-weight: bold; margin: 0;"">Is there a person in this image?</p>
                        </div>
                    </div>","null","main_causal_task","6","the_performance_causal","","","","",""
"","","","","","html-keyboard-response","85","491802","0.0-85.0","2810E4BC25BC4C19901BB68B978E2228","019ce87b-29b4-7f2e-8cc5-1681c5ab2b0e","019ce875-66c2-7f0b-b5e8-086c75889f84","","null","
                    <div class=""stimulus-container"">
                        <img src=""images/causal_sequence/the_performance_causal/the_performance_causal_7.png"" class=""exp-image"">
                        <div class=""question-area""></div> 
                    </div>","null","","","","","","","",""
"","","","","","html-button-response","86","492724","0.0-86.0","2810E4BC25BC4C19901BB68B978E2228","019ce87b-29b4-7f2e-8cc5-1681c5ab2b0e","019ce875-66c2-7f0b-b5e8-086c75889f84","","921","
                    <div class=""stimulus-container"">
                        <img src=""images/causal_sequence/the_performance_causal/the_performance_causal_7.png"" class=""exp-image"">
                        <div class=""question-area"">
                            <p style=""font-size: 20px; font-weight: bold; margin: 0;"">Is there a person in this image?</p>
                        </div>
                    </div>","0","main_causal_task","7","the_performance_causal","","","","",""
"","","","","","html-keyboard-response","87","497728","0.0-87.0","2810E4BC25BC4C19901BB68B978E2228","019ce87b-29b4-7f2e-8cc5-1681c5ab2b0e","019ce875-66c2-7f0b-b5e8-086c75889f84","","null","
                    <div class=""stimulus-container"">
                        <img src=""images/causal_sequence/the_performance_causal/the_performance_causal_8.png"" class=""exp-image"">
                        <div class=""question-area""></div> 
                    </div>","null","","","","","","","",""
"","","","","","html-button-response","88","498532","0.0-88.0","2810E4BC25BC4C19901BB68B978E2228","019ce87b-29b4-7f2e-8cc5-1681c5ab2b0e","019ce875-66c2-7f0b-b5e8-086c75889f84","","804","
                    <div class=""stimulus-container"">
                        <img src=""images/causal_sequence/the_performance_causal/the_performance_causal_8.png"" class=""exp-image"">
                        <div class=""question-area"">
                            <p style=""font-size: 20px; font-weight: bold; margin: 0;"">Is there a person in this image?</p>
                        </div>
                    </div>","0","main_causal_task","8","the_performance_causal","","","","",""
"","","","","","html-keyboard-response","89","503537","0.0-89.0","2810E4BC25BC4C19901BB68B978E2228","019ce87b-29b4-7f2e-8cc5-1681c5ab2b0e","019ce875-66c2-7f0b-b5e8-086c75889f84","","null","
                    <div class=""stimulus-container"">
                        <img src=""images/causal_sequence/the_performance_causal/the_performance_causal_9.png"" class=""exp-image"">
                        <div class=""question-area""></div> 
                    </div>","null","","","","","","","",""
"","","","","","html-button-response","90","504358","0.0-90.0","2810E4BC25BC4C19901BB68B978E2228","019ce87b-29b4-7f2e-8cc5-1681c5ab2b0e","019ce875-66c2-7f0b-b5e8-086c75889f84","","819","
                    <div class=""stimulus-container"">
                        <img src=""images/causal_sequence/the_performance_causal/the_performance_causal_9.png"" class=""exp-image"">
                        <div class=""question-area"">
                            <p style=""font-size: 20px; font-weight: bold; margin: 0;"">Is there a person in this image?</p>
                        </div>
                    </div>","0","main_causal_task","9","the_performance_causal","","","","",""
"","","","","","html-keyboard-response","91","505360","0.0-91.0","2810E4BC25BC4C19901BB68B978E2228","019ce87b-29b4-7f2e-8cc5-1681c5ab2b0e","019ce875-66c2-7f0b-b5e8-086c75889f84","","null","<div style=""background-color: gray; width: 100vw; height: 100vh;""></div>","null","","","","","","","",""
"","","","","","html-keyboard-response","92","510375","0.0-92.0","2810E4BC25BC4C19901BB68B978E2228","019ce87b-29b4-7f2e-8cc5-1681c5ab2b0e","019ce875-66c2-7f0b-b5e8-086c75889f84","","null","
                    <div class=""stimulus-container"">
                        <img src=""images/causal_sequence/package_causal/package_causal_1.png"" class=""exp-image"">
                        <div class=""question-area""></div> 
                    </div>","null","","","","","","","",""
"","","","","","html-button-response","93","511798","0.0-93.0","2810E4BC25BC4C19901BB68B978E2228","019ce87b-29b4-7f2e-8cc5-1681c5ab2b0e","019ce875-66c2-7f0b-b5e8-086c75889f84","","1420","
                    <div class=""stimulus-container"">
                        <img src=""images/causal_sequence/package_causal/package_causal_1.png"" class=""exp-image"">
                        <div class=""question-area"">
                            <p style=""font-size: 20px; font-weight: bold; margin: 0;"">Is there a person in this image?</p>
                        </div>
                    </div>","0","main_causal_task","1","package_causal","","","","",""
"","","","","","html-keyboard-response","94","516809","0.0-94.0","2810E4BC25BC4C19901BB68B978E2228","019ce87b-29b4-7f2e-8cc5-1681c5ab2b0e","019ce875-66c2-7f0b-b5e8-086c75889f84","","null","
                    <div class=""stimulus-container"">
                        <img src=""images/causal_sequence/package_causal/package_causal_2.png"" class=""exp-image"">
                        <div class=""question-area""></div> 
                    </div>","null","","","","","","","",""
"","","","","","html-button-response","95","518649","0.0-95.0","2810E4BC25BC4C19901BB68B978E2228","019ce87b-29b4-7f2e-8cc5-1681c5ab2b0e","019ce875-66c2-7f0b-b5e8-086c75889f84","","1839","
                    <div class=""stimulus-container"">
                        <img src=""images/causal_sequence/package_causal/package_causal_2.png"" class=""exp-image"">
                        <div class=""question-area"">
                            <p style=""font-size: 20px; font-weight: bold; margin: 0;"">Is there a person in this image?</p>
                        </div>
                    </div>","0","main_causal_task","2","package_causal","","","","",""
"","","","","","html-keyboard-response","96","523651","0.0-96.0","2810E4BC25BC4C19901BB68B978E2228","019ce87b-29b4-7f2e-8cc5-1681c5ab2b0e","019ce875-66c2-7f0b-b5e8-086c75889f84","","null","
                    <div class=""stimulus-container"">
                        <img src=""images/causal_sequence/package_causal/package_causal_3.png"" class=""exp-image"">
                        <div class=""question-area""></div> 
                    </div>","null","","","","","","","",""
"","","","","","html-button-response","97","524625","0.0-97.0","2810E4BC25BC4C19901BB68B978E2228","019ce87b-29b4-7f2e-8cc5-1681c5ab2b0e","019ce875-66c2-7f0b-b5e8-086c75889f84","","973","
                    <div class=""stimulus-container"">
                        <img src=""images/causal_sequence/package_causal/package_causal_3.png"" class=""exp-image"">
                        <div class=""question-area"">
                            <p style=""font-size: 20px; font-weight: bold; margin: 0;"">Is there a person in this image?</p>
                        </div>
                    </div>","0","main_causal_task","3","package_causal","","","","",""
"","","","","","html-keyboard-response","98","529630","0.0-98.0","2810E4BC25BC4C19901BB68B978E2228","019ce87b-29b4-7f2e-8cc5-1681c5ab2b0e","019ce875-66c2-7f0b-b5e8-086c75889f84","","null","
                    <div class=""stimulus-container"">
                        <img src=""images/causal_sequence/package_causal/package_causal_4.png"" class=""exp-image"">
                        <div class=""question-area""></div> 
                    </div>","null","","","","","","","",""
"","","","","","html-button-response","99","532641","0.0-99.0","2810E4BC25BC4C19901BB68B978E2228","019ce87b-29b4-7f2e-8cc5-1681c5ab2b0e","019ce875-66c2-7f0b-b5e8-086c75889f84","","null","
                    <div class=""stimulus-container"">
                        <img src=""images/causal_sequence/package_causal/package_causal_4.png"" class=""exp-image"">
                        <div class=""question-area"">
                            <p style=""font-size: 20px; font-weight: bold; margin: 0;"">Is there a person in this image?</p>
                        </div>
                    </div>","null","main_causal_task","4","package_causal","","","","",""
"","","","","","html-keyboard-response","100","537659","0.0-100.0","2810E4BC25BC4C19901BB68B978E2228","019ce87b-29b4-7f2e-8cc5-1681c5ab2b0e","019ce875-66c2-7f0b-b5e8-086c75889f84","","null","
                    <div class=""stimulus-container"">
                        <img src=""images/causal_sequence/package_causal/package_causal_5.png"" class=""exp-image"">
                        <div class=""question-area""></div> 
                    </div>","null","","","","","","","",""
"","","","","","html-button-response","101","539334","0.0-101.0","2810E4BC25BC4C19901BB68B978E2228","019ce87b-29b4-7f2e-8cc5-1681c5ab2b0e","019ce875-66c2-7f0b-b5e8-086c75889f84","","1674","
                    <div class=""stimulus-container"">
                        <img src=""images/causal_sequence/package_causal/package_causal_5.png"" class=""exp-image"">
                        <div class=""question-area"">
                            <p style=""font-size: 20px; font-weight: bold; margin: 0;"">Is there a person in this image?</p>
                        </div>
                    </div>","0","main_causal_task","5","package_causal","","","","",""
"","","","","","html-keyboard-response","102","544341","0.0-102.0","2810E4BC25BC4C19901BB68B978E2228","019ce87b-29b4-7f2e-8cc5-1681c5ab2b0e","019ce875-66c2-7f0b-b5e8-086c75889f84","","null","
                    <div class=""stimulus-container"">
                        <img src=""images/causal_sequence/package_causal/package_causal_6.png"" class=""exp-image"">
                        <div class=""question-area""></div> 
                    </div>","null","","","","","","","",""
"","","","","","html-button-response","103","547250","0.0-103.0","2810E4BC25BC4C19901BB68B978E2228","019ce87b-29b4-7f2e-8cc5-1681c5ab2b0e","019ce875-66c2-7f0b-b5e8-086c75889f84","","2907","
                    <div class=""stimulus-container"">
                        <img src=""images/causal_sequence/package_causal/package_causal_6.png"" class=""exp-image"">
                        <div class=""question-area"">
                            <p style=""font-size: 20px; font-weight: bold; margin: 0;"">Is there a person in this image?</p>
                        </div>
                    </div>","0","main_causal_task","6","package_causal","","","","",""
"","","","","","html-keyboard-response","104","552255","0.0-104.0","2810E4BC25BC4C19901BB68B978E2228","019ce87b-29b4-7f2e-8cc5-1681c5ab2b0e","019ce875-66c2-7f0b-b5e8-086c75889f84","","null","
                    <div class=""stimulus-container"">
                        <img src=""images/causal_sequence/package_causal/package_causal_7.png"" class=""exp-image"">
                        <div class=""question-area""></div> 
                    </div>","null","","","","","","","",""
"","","","","","html-button-response","105","553402","0.0-105.0","2810E4BC25BC4C19901BB68B978E2228","019ce87b-29b4-7f2e-8cc5-1681c5ab2b0e","019ce875-66c2-7f0b-b5e8-086c75889f84","","1146","
                    <div class=""stimulus-container"">
                        <img src=""images/causal_sequence/package_causal/package_causal_7.png"" class=""exp-image"">
                        <div class=""question-area"">
                            <p style=""font-size: 20px; font-weight: bold; margin: 0;"">Is there a person in this image?</p>
                        </div>
                    </div>","0","main_causal_task","7","package_causal","","","","",""
"","","","","","html-keyboard-response","106","558412","0.0-106.0","2810E4BC25BC4C19901BB68B978E2228","019ce87b-29b4-7f2e-8cc5-1681c5ab2b0e","019ce875-66c2-7f0b-b5e8-086c75889f84","","null","
                    <div class=""stimulus-container"">
                        <img src=""images/causal_sequence/package_causal/package_causal_8.png"" class=""exp-image"">
                        <div class=""question-area""></div> 
                    </div>","null","","","","","","","",""
"","","","","","html-button-response","107","559669","0.0-107.0","2810E4BC25BC4C19901BB68B978E2228","019ce87b-29b4-7f2e-8cc5-1681c5ab2b0e","019ce875-66c2-7f0b-b5e8-086c75889f84","","1257","
                    <div class=""stimulus-container"">
                        <img src=""images/causal_sequence/package_causal/package_causal_8.png"" class=""exp-image"">
                        <div class=""question-area"">
                            <p style=""font-size: 20px; font-weight: bold; margin: 0;"">Is there a person in this image?</p>
                        </div>
                    </div>","0","main_causal_task","8","package_causal","","","","",""
"","","","","","html-keyboard-response","108","564686","0.0-108.0","2810E4BC25BC4C19901BB68B978E2228","019ce87b-29b4-7f2e-8cc5-1681c5ab2b0e","019ce875-66c2-7f0b-b5e8-086c75889f84","","null","
                    <div class=""stimulus-container"">
                        <img src=""images/causal_sequence/package_causal/package_causal_9.png"" class=""exp-image"">
                        <div class=""question-area""></div> 
                    </div>","null","","","","","","","",""
"","","","","","html-button-response","109","565491","0.0-109.0","2810E4BC25BC4C19901BB68B978E2228","019ce87b-29b4-7f2e-8cc5-1681c5ab2b0e","019ce875-66c2-7f0b-b5e8-086c75889f84","","804","
                    <div class=""stimulus-container"">
                        <img src=""images/causal_sequence/package_causal/package_causal_9.png"" class=""exp-image"">
                        <div class=""question-area"">
                            <p style=""font-size: 20px; font-weight: bold; margin: 0;"">Is there a person in this image?</p>
                        </div>
                    </div>","0","main_causal_task","9","package_causal","","","","",""
"","","","","","html-keyboard-response","110","566507","0.0-110.0","2810E4BC25BC4C19901BB68B978E2228","019ce87b-29b4-7f2e-8cc5-1681c5ab2b0e","019ce875-66c2-7f0b-b5e8-086c75889f84","","null","<div style=""background-color: gray; width: 100vw; height: 100vh;""></div>","null","","","","","","","",""
"","","","","","html-keyboard-response","111","571516","0.0-111.0","2810E4BC25BC4C19901BB68B978E2228","019ce87b-29b4-7f2e-8cc5-1681c5ab2b0e","019ce875-66c2-7f0b-b5e8-086c75889f84","","null","
                    <div class=""stimulus-container"">
                        <img src=""images/causal_sequence/museum_causal/museum_causal_1.png"" class=""exp-image"">
                        <div class=""question-area""></div> 
                    </div>","null","","","","","","","",""
"","","","","","html-button-response","112","572217","0.0-112.0","2810E4BC25BC4C19901BB68B978E2228","019ce87b-29b4-7f2e-8cc5-1681c5ab2b0e","019ce875-66c2-7f0b-b5e8-086c75889f84","","700","
                    <div class=""stimulus-container"">
                        <img src=""images/causal_sequence/museum_causal/museum_causal_1.png"" class=""exp-image"">
                        <div class=""question-area"">
                            <p style=""font-size: 20px; font-weight: bold; margin: 0;"">Is there a person in this image?</p>
                        </div>
                    </div>","0","main_causal_task","1","museum_causal","","","","",""
"","","","","","html-keyboard-response","113","577222","0.0-113.0","2810E4BC25BC4C19901BB68B978E2228","019ce87b-29b4-7f2e-8cc5-1681c5ab2b0e","019ce875-66c2-7f0b-b5e8-086c75889f84","","null","
                    <div class=""stimulus-container"">
                        <img src=""images/causal_sequence/museum_causal/museum_causal_2.png"" class=""exp-image"">
                        <div class=""question-area""></div> 
                    </div>","null","","","","","","","",""
"","","","","","html-button-response","114","579096","0.0-114.0","2810E4BC25BC4C19901BB68B978E2228","019ce87b-29b4-7f2e-8cc5-1681c5ab2b0e","019ce875-66c2-7f0b-b5e8-086c75889f84","","1873","
                    <div class=""stimulus-container"">
                        <img src=""images/causal_sequence/museum_causal/museum_causal_2.png"" class=""exp-image"">
                        <div class=""question-area"">
                            <p style=""font-size: 20px; font-weight: bold; margin: 0;"">Is there a person in this image?</p>
                        </div>
                    </div>","1","main_causal_task","2","museum_causal","","","","",""
"","","","","","html-keyboard-response","115","584098","0.0-115.0","2810E4BC25BC4C19901BB68B978E2228","019ce87b-29b4-7f2e-8cc5-1681c5ab2b0e","019ce875-66c2-7f0b-b5e8-086c75889f84","","null","
                    <div class=""stimulus-container"">
                        <img src=""images/causal_sequence/museum_causal/museum_causal_3.png"" class=""exp-image"">
                        <div class=""question-area""></div> 
                    </div>","null","","","","","","","",""
"","","","","","html-button-response","116","586015","0.0-116.0","2810E4BC25BC4C19901BB68B978E2228","019ce87b-29b4-7f2e-8cc5-1681c5ab2b0e","019ce875-66c2-7f0b-b5e8-086c75889f84","","1916","
                    <div class=""stimulus-container"">
                        <img src=""images/causal_sequence/museum_causal/museum_causal_3.png"" class=""exp-image"">
                        <div class=""question-area"">
                            <p style=""font-size: 20px; font-weight: bold; margin: 0;"">Is there a person in this image?</p>
                        </div>
                    </div>","0","main_causal_task","3","museum_causal","","","","",""
"","","","","","html-keyboard-response","117","591030","0.0-117.0","2810E4BC25BC4C19901BB68B978E2228","019ce87b-29b4-7f2e-8cc5-1681c5ab2b0e","019ce875-66c2-7f0b-b5e8-086c75889f84","","null","
                    <div class=""stimulus-container"">
                        <img src=""images/causal_sequence/museum_causal/museum_causal_4.png"" class=""exp-image"">
                        <div class=""question-area""></div> 
                    </div>","null","","","","","","","",""
"","","","","","html-button-response","118","592738","0.0-118.0","2810E4BC25BC4C19901BB68B978E2228","019ce87b-29b4-7f2e-8cc5-1681c5ab2b0e","019ce875-66c2-7f0b-b5e8-086c75889f84","","1707","
                    <div class=""stimulus-container"">
                        <img src=""images/causal_sequence/museum_causal/museum_causal_4.png"" class=""exp-image"">
                        <div class=""question-area"">
                            <p style=""font-size: 20px; font-weight: bold; margin: 0;"">Is there a person in this image?</p>
                        </div>
                    </div>","1","main_causal_task","4","museum_causal","","","","",""
"","","","","","html-keyboard-response","119","597750","0.0-119.0","2810E4BC25BC4C19901BB68B978E2228","019ce87b-29b4-7f2e-8cc5-1681c5ab2b0e","019ce875-66c2-7f0b-b5e8-086c75889f84","","null","
                    <div class=""stimulus-container"">
                        <img src=""images/causal_sequence/museum_causal/museum_causal_5.png"" class=""exp-image"">
                        <div class=""question-area""></div> 
                    </div>","null","","","","","","","",""
"","","","","","html-button-response","120","599379","0.0-120.0","2810E4BC25BC4C19901BB68B978E2228","019ce87b-29b4-7f2e-8cc5-1681c5ab2b0e","019ce875-66c2-7f0b-b5e8-086c75889f84","","1629","
                    <div class=""stimulus-container"">
                        <img src=""images/causal_sequence/museum_causal/museum_causal_5.png"" class=""exp-image"">
                        <div class=""question-area"">
                            <p style=""font-size: 20px; font-weight: bold; margin: 0;"">Is there a person in this image?</p>
                        </div>
                    </div>","0","main_causal_task","5","museum_causal","","","","",""
"","","","","","html-keyboard-response","121","604381","0.0-121.0","2810E4BC25BC4C19901BB68B978E2228","019ce87b-29b4-7f2e-8cc5-1681c5ab2b0e","019ce875-66c2-7f0b-b5e8-086c75889f84","","null","
                    <div class=""stimulus-container"">
                        <img src=""images/causal_sequence/museum_causal/museum_causal_6.png"" class=""exp-image"">
                        <div class=""question-area""></div> 
                    </div>","null","","","","","","","",""
"","","","","","html-button-response","122","604906","0.0-122.0","2810E4BC25BC4C19901BB68B978E2228","019ce87b-29b4-7f2e-8cc5-1681c5ab2b0e","019ce875-66c2-7f0b-b5e8-086c75889f84","","524","
                    <div class=""stimulus-container"">
                        <img src=""images/causal_sequence/museum_causal/museum_causal_6.png"" class=""exp-image"">
                        <div class=""question-area"">
                            <p style=""font-size: 20px; font-weight: bold; margin: 0;"">Is there a person in this image?</p>
                        </div>
                    </div>","0","main_causal_task","6","museum_causal","","","","",""
"","","","","","html-keyboard-response","123","609914","0.0-123.0","2810E4BC25BC4C19901BB68B978E2228","019ce87b-29b4-7f2e-8cc5-1681c5ab2b0e","019ce875-66c2-7f0b-b5e8-086c75889f84","","null","
                    <div class=""stimulus-container"">
                        <img src=""images/causal_sequence/museum_causal/museum_causal_7.png"" class=""exp-image"">
                        <div class=""question-area""></div> 
                    </div>","null","","","","","","","",""
"","","","","","html-button-response","124","612603","0.0-124.0","2810E4BC25BC4C19901BB68B978E2228","019ce87b-29b4-7f2e-8cc5-1681c5ab2b0e","019ce875-66c2-7f0b-b5e8-086c75889f84","","2688","
                    <div class=""stimulus-container"">
                        <img src=""images/causal_sequence/museum_causal/museum_causal_7.png"" class=""exp-image"">
                        <div class=""question-area"">
                            <p style=""font-size: 20px; font-weight: bold; margin: 0;"">Is there a person in this image?</p>
                        </div>
                    </div>","1","main_causal_task","7","museum_causal","","","","",""
"","","","","","html-keyboard-response","125","617608","0.0-125.0","2810E4BC25BC4C19901BB68B978E2228","019ce87b-29b4-7f2e-8cc5-1681c5ab2b0e","019ce875-66c2-7f0b-b5e8-086c75889f84","","null","
                    <div class=""stimulus-container"">
                        <img src=""images/causal_sequence/museum_causal/museum_causal_8.png"" class=""exp-image"">
                        <div class=""question-area""></div> 
                    </div>","null","","","","","","","",""
"","","","","","html-button-response","126","620048","0.0-126.0","2810E4BC25BC4C19901BB68B978E2228","019ce87b-29b4-7f2e-8cc5-1681c5ab2b0e","019ce875-66c2-7f0b-b5e8-086c75889f84","","2439","
                    <div class=""stimulus-container"">
                        <img src=""images/causal_sequence/museum_causal/museum_causal_8.png"" class=""exp-image"">
                        <div class=""question-area"">
                            <p style=""font-size: 20px; font-weight: bold; margin: 0;"">Is there a person in this image?</p>
                        </div>
                    </div>","0","main_causal_task","8","museum_causal","","","","",""
"","","","","","html-keyboard-response","127","625052","0.0-127.0","2810E4BC25BC4C19901BB68B978E2228","019ce87b-29b4-7f2e-8cc5-1681c5ab2b0e","019ce875-66c2-7f0b-b5e8-086c75889f84","","null","
                    <div class=""stimulus-container"">
                        <img src=""images/causal_sequence/museum_causal/museum_causal_9.png"" class=""exp-image"">
                        <div class=""question-area""></div> 
                    </div>","null","","","","","","","",""
"","","","","","html-button-response","128","627351","0.0-128.0","2810E4BC25BC4C19901BB68B978E2228","019ce87b-29b4-7f2e-8cc5-1681c5ab2b0e","019ce875-66c2-7f0b-b5e8-086c75889f84","","2297","
                    <div class=""stimulus-container"">
                        <img src=""images/causal_sequence/museum_causal/museum_causal_9.png"" class=""exp-image"">
                        <div class=""question-area"">
                            <p style=""font-size: 20px; font-weight: bold; margin: 0;"">Is there a person in this image?</p>
                        </div>
                    </div>","1","main_causal_task","9","museum_causal","","","","",""
"","","","","","instructions","129","648768","0.0-129.0","2810E4BC25BC4C19901BB68B978E2228","019ce87b-29b4-7f2e-8cc5-1681c5ab2b0e","019ce875-66c2-7f0b-b5e8-086c75889f84","[{""page_index"":0,""viewing_time"":21416}]","21417","","","","","","","","","",""
"","","","","","instructions","130","668404","0.0-130.0","2810E4BC25BC4C19901BB68B978E2228","019ce87b-29b4-7f2e-8cc5-1681c5ab2b0e","019ce875-66c2-7f0b-b5e8-086c75889f84","[{""page_index"":0,""viewing_time"":19636}]","19636","","","","","","","","","",""
"","","","","","html-button-response","131","672683","0.0-131.0-0.0","2810E4BC25BC4C19901BB68B978E2228","019ce87b-29b4-7f2e-8cc5-1681c5ab2b0e","019ce875-66c2-7f0b-b5e8-086c75889f84","","4277","
                <div style=""margin-bottom:20px;""><h3>Example: Valuable Image</h3></div>
                <div class=""stimulus-container"" style=""display: flex; align-items: center; justify-content: center; gap: 30px;"">
                    <img src=""images/instructions/movie_1.png"" class=""exp-image"">
                    <div style=""font-size: 35px; font-weight: bold; color: green; border: 5px solid green; padding: 20px; border-radius: 15px; background-color: #f0fff0;"">
                        WORTH<br>$1
                    </div>
                </div>
                <div class=""question-area""><p>Was there a person in this image?</p></div>","0","","","","","","","",""
"","","","","","html-button-response","132","678303","0.0-131.0-1.0","2810E4BC25BC4C19901BB68B978E2228","019ce87b-29b4-7f2e-8cc5-1681c5ab2b0e","019ce875-66c2-7f0b-b5e8-086c75889f84","","5619","
                <div style=""margin-bottom:20px;""><h3>Example: Neutral Image</h3></div>
                <div class=""stimulus-container"" style=""display: flex; align-items: center; justify-content: center; gap: 30px;"">
                    <img src=""images/instructions/movie_2.png"" class=""exp-image"">
                    <div style=""font-size: 35px; font-weight: bold; color: grey; border: 5px solid grey; padding: 20px; border-radius: 15px; background-color: #f0f0f0;"">
                        NEUTRAL<br>VALUE
                    </div>
                </div>
                <div class=""question-area""><p>Was there a person in this image?</p></div>","0","","","","","","","",""
"","","","","","html-keyboard-response","133","686304","0.0-132.0","2810E4BC25BC4C19901BB68B978E2228","019ce87b-29b4-7f2e-8cc5-1681c5ab2b0e","019ce875-66c2-7f0b-b5e8-086c75889f84","","null","
            <div class=""stimulus-container"" style=""display: flex; align-items: center; justify-content: center; gap: 30px;"">
                <img src=""images/causal_sequence/package_causal/package_causal_7.png"" class=""exp-image"">
                <div style=""font-size: 40px; font-weight: bold; color: green; border: 5px solid green; padding: 25px; border-radius: 15px; background-color: #f0fff0;"">
                    WORTH<br>$1
                </div>
            </div>
            <div class=""question-area""></div>","null","","","","","","","",""
"","","","","","html-button-response","134","688953","0.0-133.0","2810E4BC25BC4C19901BB68B978E2228","019ce87b-29b4-7f2e-8cc5-1681c5ab2b0e","019ce875-66c2-7f0b-b5e8-086c75889f84","","2647","
            <div class=""stimulus-container"" style=""display: flex; align-items: center; justify-content: center; gap: 30px;"">
                <img src=""images/causal_sequence/package_causal/package_causal_7.png"" class=""exp-image"">
                <div style=""font-size: 40px; font-weight: bold; color: green; border: 5px solid green; padding: 25px; border-radius: 15px; background-color: #f0fff0;"">
                    WORTH<br>$1
                </div>
            </div>
            <div class=""question-area"">
                <p style=""font-size: 20px; font-weight: bold; margin: 0;"">Was there a person in this image?</p>
            </div>","0","part2_value_learning","","package_causal","7","valuable","","",""
"","","","","","html-keyboard-response","135","696955","0.0-134.0","2810E4BC25BC4C19901BB68B978E2228","019ce87b-29b4-7f2e-8cc5-1681c5ab2b0e","019ce875-66c2-7f0b-b5e8-086c75889f84","","null","
            <div class=""stimulus-container"" style=""display: flex; align-items: center; justify-content: center; gap: 30px;"">
                <img src=""images/causal_sequence/saving_a_cat_causal/saving_a_cat_causal_7.png"" class=""exp-image"">
                <div style=""font-size: 40px; font-weight: bold; color: green; border: 5px solid green; padding: 25px; border-radius: 15px; background-color: #f0fff0;"">
                    WORTH<br>$1
                </div>
            </div>
            <div class=""question-area""></div>","null","","","","","","","",""
"","","","","","html-button-response","136","698476","0.0-135.0","2810E4BC25BC4C19901BB68B978E2228","019ce87b-29b4-7f2e-8cc5-1681c5ab2b0e","019ce875-66c2-7f0b-b5e8-086c75889f84","","1520","
            <div class=""stimulus-container"" style=""display: flex; align-items: center; justify-content: center; gap: 30px;"">
                <img src=""images/causal_sequence/saving_a_cat_causal/saving_a_cat_causal_7.png"" class=""exp-image"">
                <div style=""font-size: 40px; font-weight: bold; color: green; border: 5px solid green; padding: 25px; border-radius: 15px; background-color: #f0fff0;"">
                    WORTH<br>$1
                </div>
            </div>
            <div class=""question-area"">
                <p style=""font-size: 20px; font-weight: bold; margin: 0;"">Was there a person in this image?</p>
            </div>","0","part2_value_learning","","saving_a_cat_causal","7","valuable","","",""
"","","","","","html-keyboard-response","137","706491","0.0-136.0","2810E4BC25BC4C19901BB68B978E2228","019ce87b-29b4-7f2e-8cc5-1681c5ab2b0e","019ce875-66c2-7f0b-b5e8-086c75889f84","","null","
            <div class=""stimulus-container"" style=""display: flex; align-items: center; justify-content: center; gap: 30px;"">
                <img src=""images/causal_sequence/museum_causal/museum_causal_3.png"" class=""exp-image"">
                <div style=""font-size: 40px; font-weight: bold; color: green; border: 5px solid green; padding: 25px; border-radius: 15px; background-color: #f0fff0;"">
                    WORTH<br>$1
                </div>
            </div>
            <div class=""question-area""></div>","null","","","","","","","",""
"","","","","","html-button-response","138","707998","0.0-137.0","2810E4BC25BC4C19901BB68B978E2228","019ce87b-29b4-7f2e-8cc5-1681c5ab2b0e","019ce875-66c2-7f0b-b5e8-086c75889f84","","1506","
            <div class=""stimulus-container"" style=""display: flex; align-items: center; justify-content: center; gap: 30px;"">
                <img src=""images/causal_sequence/museum_causal/museum_causal_3.png"" class=""exp-image"">
                <div style=""font-size: 40px; font-weight: bold; color: green; border: 5px solid green; padding: 25px; border-radius: 15px; background-color: #f0fff0;"">
                    WORTH<br>$1
                </div>
            </div>
            <div class=""question-area"">
                <p style=""font-size: 20px; font-weight: bold; margin: 0;"">Was there a person in this image?</p>
            </div>","0","part2_value_learning","","museum_causal","3","valuable","","",""
"","","","","","html-keyboard-response","139","716005","0.0-138.0","2810E4BC25BC4C19901BB68B978E2228","019ce87b-29b4-7f2e-8cc5-1681c5ab2b0e","019ce875-66c2-7f0b-b5e8-086c75889f84","","null","
            <div class=""stimulus-container"" style=""display: flex; align-items: center; justify-content: center; gap: 30px;"">
                <img src=""images/causal_sequence/the_performance_causal/the_performance_causal_7.png"" class=""exp-image"">
                <div style=""font-size: 40px; font-weight: bold; color: grey; border: 5px solid grey; padding: 25px; border-radius: 15px; background-color: #f0f0f0;"">
                    NEUTRAL<br>VALUE
                </div>
            </div>
            <div class=""question-area""></div>","null","","","","","","","",""
"","","","","","html-button-response","140","717702","0.0-139.0","2810E4BC25BC4C19901BB68B978E2228","019ce87b-29b4-7f2e-8cc5-1681c5ab2b0e","019ce875-66c2-7f0b-b5e8-086c75889f84","","1697","
            <div class=""stimulus-container"" style=""display: flex; align-items: center; justify-content: center; gap: 30px;"">
                <img src=""images/causal_sequence/the_performance_causal/the_performance_causal_7.png"" class=""exp-image"">
                <div style=""font-size: 40px; font-weight: bold; color: grey; border: 5px solid grey; padding: 25px; border-radius: 15px; background-color: #f0f0f0;"">
                    NEUTRAL<br>VALUE
                </div>
            </div>
            <div class=""question-area"">
                <p style=""font-size: 20px; font-weight: bold; margin: 0;"">Was there a person in this image?</p>
            </div>","0","part2_value_learning","","the_performance_causal","7","neutral","","",""
"","","","","","html-keyboard-response","141","725711","0.0-140.0","2810E4BC25BC4C19901BB68B978E2228","019ce87b-29b4-7f2e-8cc5-1681c5ab2b0e","019ce875-66c2-7f0b-b5e8-086c75889f84","","null","
            <div class=""stimulus-container"" style=""display: flex; align-items: center; justify-content: center; gap: 30px;"">
                <img src=""images/causal_sequence/coin_causal/coin_causal_6.png"" class=""exp-image"">
                <div style=""font-size: 40px; font-weight: bold; color: grey; border: 5px solid grey; padding: 25px; border-radius: 15px; background-color: #f0f0f0;"">
                    NEUTRAL<br>VALUE
                </div>
            </div>
            <div class=""question-area""></div>","null","","","","","","","",""
"","","","","","html-button-response","142","727139","0.0-141.0","2810E4BC25BC4C19901BB68B978E2228","019ce87b-29b4-7f2e-8cc5-1681c5ab2b0e","019ce875-66c2-7f0b-b5e8-086c75889f84","","1426","
            <div class=""stimulus-container"" style=""display: flex; align-items: center; justify-content: center; gap: 30px;"">
                <img src=""images/causal_sequence/coin_causal/coin_causal_6.png"" class=""exp-image"">
                <div style=""font-size: 40px; font-weight: bold; color: grey; border: 5px solid grey; padding: 25px; border-radius: 15px; background-color: #f0f0f0;"">
                    NEUTRAL<br>VALUE
                </div>
            </div>
            <div class=""question-area"">
                <p style=""font-size: 20px; font-weight: bold; margin: 0;"">Was there a person in this image?</p>
            </div>","0","part2_value_learning","","coin_causal","6","neutral","","",""
"","","","","","html-keyboard-response","143","735146","0.0-142.0","2810E4BC25BC4C19901BB68B978E2228","019ce87b-29b4-7f2e-8cc5-1681c5ab2b0e","019ce875-66c2-7f0b-b5e8-086c75889f84","","null","
            <div class=""stimulus-container"" style=""display: flex; align-items: center; justify-content: center; gap: 30px;"">
                <img src=""images/causal_sequence/dog_causal/dog_causal_3.png"" class=""exp-image"">
                <div style=""font-size: 40px; font-weight: bold; color: grey; border: 5px solid grey; padding: 25px; border-radius: 15px; background-color: #f0f0f0;"">
                    NEUTRAL<br>VALUE
                </div>
            </div>
            <div class=""question-area""></div>","null","","","","","","","",""
"","","","","","html-button-response","144","738156","0.0-143.0","2810E4BC25BC4C19901BB68B978E2228","019ce87b-29b4-7f2e-8cc5-1681c5ab2b0e","019ce875-66c2-7f0b-b5e8-086c75889f84","","null","
            <div class=""stimulus-container"" style=""display: flex; align-items: center; justify-content: center; gap: 30px;"">
                <img src=""images/causal_sequence/dog_causal/dog_causal_3.png"" class=""exp-image"">
                <div style=""font-size: 40px; font-weight: bold; color: grey; border: 5px solid grey; padding: 25px; border-radius: 15px; background-color: #f0f0f0;"">
                    NEUTRAL<br>VALUE
                </div>
            </div>
            <div class=""question-area"">
                <p style=""font-size: 20px; font-weight: bold; margin: 0;"">Was there a person in this image?</p>
            </div>","null","part2_value_learning","","dog_causal","3","neutral","","",""
"","","","","","instructions","145","744704","0.0-144.0","2810E4BC25BC4C19901BB68B978E2228","019ce87b-29b4-7f2e-8cc5-1681c5ab2b0e","019ce875-66c2-7f0b-b5e8-086c75889f84","[{""page_index"":0,""viewing_time"":6547}]","6547","","","","","","","","","",""
"","","","","","html-keyboard-response","146","754717","0.0-145.0-0.0","2810E4BC25BC4C19901BB68B978E2228","019ce87b-29b4-7f2e-8cc5-1681c5ab2b0e","019ce875-66c2-7f0b-b5e8-086c75889f84","","null","
                        <div style=""font-family: Arial; margin-bottom: 20px;""><h3>Which image is more valuable?</h3></div>
                        <div class=""stimulus-container"" style=""display: flex; width: 1100px; justify-content: center; gap: 50px;"">
                            <img src=""images/causal_sequence/coin_causal/coin_causal_7.png"" class=""exp-image"">
                            <img src=""images/causal_sequence/coin_causal/coin_causal_5.png"" class=""exp-image"">
                        </div>","null","","","","","","","",""
"","","","","","html-button-response","147","756255","0.0-145.0-1.0","2810E4BC25BC4C19901BB68B978E2228","019ce87b-29b4-7f2e-8cc5-1681c5ab2b0e","019ce875-66c2-7f0b-b5e8-086c75889f84","","1536","
                        <div style=""font-family: Arial; margin-bottom: 20px;""><h3>Which image is more valuable?</h3></div>
                        <div class=""stimulus-container"" style=""display: flex; width: 1100px; justify-content: center; gap: 50px;"">
                            <img src=""images/causal_sequence/coin_causal/coin_causal_7.png"" class=""exp-image"">
                            <img src=""images/causal_sequence/coin_causal/coin_causal_5.png"" class=""exp-image"">
                        </div>","1","part3_final_choice","","coin_causal","","neutral","6","5","-1"
"","","","","","html-keyboard-response","148","766271","0.0-146.0-0.0","2810E4BC25BC4C19901BB68B978E2228","019ce87b-29b4-7f2e-8cc5-1681c5ab2b0e","019ce875-66c2-7f0b-b5e8-086c75889f84","","null","
                        <div style=""font-family: Arial; margin-bottom: 20px;""><h3>Which image is more valuable?</h3></div>
                        <div class=""stimulus-container"" style=""display: flex; width: 1100px; justify-content: center; gap: 50px;"">
                            <img src=""images/causal_sequence/the_performance_causal/the_performance_causal_6.png"" class=""exp-image"">
                            <img src=""images/causal_sequence/the_performance_causal/the_performance_causal_8.png"" class=""exp-image"">
                        </div>","null","","","","","","","",""
"","","","","","html-button-response","149","785056","0.0-146.0-1.0","2810E4BC25BC4C19901BB68B978E2228","019ce87b-29b4-7f2e-8cc5-1681c5ab2b0e","019ce875-66c2-7f0b-b5e8-086c75889f84","","18784","
                        <div style=""font-family: Arial; margin-bottom: 20px;""><h3>Which image is more valuable?</h3></div>
                        <div class=""stimulus-container"" style=""display: flex; width: 1100px; justify-content: center; gap: 50px;"">
                            <img src=""images/causal_sequence/the_performance_causal/the_performance_causal_6.png"" class=""exp-image"">
                            <img src=""images/causal_sequence/the_performance_causal/the_performance_causal_8.png"" class=""exp-image"">
                        </div>","1","part3_final_choice","","the_performance_causal","","neutral","7","8","1"
"","","","","","html-keyboard-response","150","795059","0.0-147.0-0.0","2810E4BC25BC4C19901BB68B978E2228","019ce87b-29b4-7f2e-8cc5-1681c5ab2b0e","019ce875-66c2-7f0b-b5e8-086c75889f84","","null","
                        <div style=""font-family: Arial; margin-bottom: 20px;""><h3>Which image is more valuable?</h3></div>
                        <div class=""stimulus-container"" style=""display: flex; width: 1100px; justify-content: center; gap: 50px;"">
                            <img src=""images/causal_sequence/package_causal/package_causal_6.png"" class=""exp-image"">
                            <img src=""images/causal_sequence/package_causal/package_causal_8.png"" class=""exp-image"">
                        </div>","null","","","","","","","",""
"","","","","","html-button-response","151","804657","0.0-147.0-1.0","2810E4BC25BC4C19901BB68B978E2228","019ce87b-29b4-7f2e-8cc5-1681c5ab2b0e","019ce875-66c2-7f0b-b5e8-086c75889f84","","9597","
                        <div style=""font-family: Arial; margin-bottom: 20px;""><h3>Which image is more valuable?</h3></div>
                        <div class=""stimulus-container"" style=""display: flex; width: 1100px; justify-content: center; gap: 50px;"">
                            <img src=""images/causal_sequence/package_causal/package_causal_6.png"" class=""exp-image"">
                            <img src=""images/causal_sequence/package_causal/package_causal_8.png"" class=""exp-image"">
                        </div>","0","part3_final_choice","","package_causal","","valuable","7","6","-1"
"","","","","","html-keyboard-response","152","814673","0.0-148.0-0.0","2810E4BC25BC4C19901BB68B978E2228","019ce87b-29b4-7f2e-8cc5-1681c5ab2b0e","019ce875-66c2-7f0b-b5e8-086c75889f84","","null","
                        <div style=""font-family: Arial; margin-bottom: 20px;""><h3>Which image is more valuable?</h3></div>
                        <div class=""stimulus-container"" style=""display: flex; width: 1100px; justify-content: center; gap: 50px;"">
                            <img src=""images/causal_sequence/dog_causal/dog_causal_2.png"" class=""exp-image"">
                            <img src=""images/causal_sequence/dog_causal/dog_causal_4.png"" class=""exp-image"">
                        </div>","null","","","","","","","",""
"","","","","","html-button-response","153","821157","0.0-148.0-1.0","2810E4BC25BC4C19901BB68B978E2228","019ce87b-29b4-7f2e-8cc5-1681c5ab2b0e","019ce875-66c2-7f0b-b5e8-086c75889f84","","6483","
                        <div style=""font-family: Arial; margin-bottom: 20px;""><h3>Which image is more valuable?</h3></div>
                        <div class=""stimulus-container"" style=""display: flex; width: 1100px; justify-content: center; gap: 50px;"">
                            <img src=""images/causal_sequence/dog_causal/dog_causal_2.png"" class=""exp-image"">
                            <img src=""images/causal_sequence/dog_causal/dog_causal_4.png"" class=""exp-image"">
                        </div>","1","part3_final_choice","","dog_causal","","neutral","3","4","1"
"","","","","","html-keyboard-response","154","831159","0.0-149.0-0.0","2810E4BC25BC4C19901BB68B978E2228","019ce87b-29b4-7f2e-8cc5-1681c5ab2b0e","019ce875-66c2-7f0b-b5e8-086c75889f84","","null","
                        <div style=""font-family: Arial; margin-bottom: 20px;""><h3>Which image is more valuable?</h3></div>
                        <div class=""stimulus-container"" style=""display: flex; width: 1100px; justify-content: center; gap: 50px;"">
                            <img src=""images/causal_sequence/museum_causal/museum_causal_4.png"" class=""exp-image"">
                            <img src=""images/causal_sequence/museum_causal/museum_causal_2.png"" class=""exp-image"">
                        </div>","null","","","","","","","",""
"","","","","","html-button-response","155","833605","0.0-149.0-1.0","2810E4BC25BC4C19901BB68B978E2228","019ce87b-29b4-7f2e-8cc5-1681c5ab2b0e","019ce875-66c2-7f0b-b5e8-086c75889f84","","2445","
                        <div style=""font-family: Arial; margin-bottom: 20px;""><h3>Which image is more valuable?</h3></div>
                        <div class=""stimulus-container"" style=""display: flex; width: 1100px; justify-content: center; gap: 50px;"">
                            <img src=""images/causal_sequence/museum_causal/museum_causal_4.png"" class=""exp-image"">
                            <img src=""images/causal_sequence/museum_causal/museum_causal_2.png"" class=""exp-image"">
                        </div>","1","part3_final_choice","","museum_causal","","valuable","3","2","-1"
"","","","","","html-keyboard-response","156","843609","0.0-150.0-0.0","2810E4BC25BC4C19901BB68B978E2228","019ce87b-29b4-7f2e-8cc5-1681c5ab2b0e","019ce875-66c2-7f0b-b5e8-086c75889f84","","null","
                        <div style=""font-family: Arial; margin-bottom: 20px;""><h3>Which image is more valuable?</h3></div>
                        <div class=""stimulus-container"" style=""display: flex; width: 1100px; justify-content: center; gap: 50px;"">
                            <img src=""images/causal_sequence/saving_a_cat_causal/saving_a_cat_causal_8.png"" class=""exp-image"">
                            <img src=""images/causal_sequence/saving_a_cat_causal/saving_a_cat_causal_6.png"" class=""exp-image"">
                        </div>","null","","","","","","","",""
"","","","","","html-button-response","157","848313","0.0-150.0-1.0","2810E4BC25BC4C19901BB68B978E2228","019ce87b-29b4-7f2e-8cc5-1681c5ab2b0e","019ce875-66c2-7f0b-b5e8-086c75889f84","","4703","
                        <div style=""font-family: Arial; margin-bottom: 20px;""><h3>Which image is more valuable?</h3></div>
                        <div class=""stimulus-container"" style=""display: flex; width: 1100px; justify-content: center; gap: 50px;"">
                            <img src=""images/causal_sequence/saving_a_cat_causal/saving_a_cat_causal_8.png"" class=""exp-image"">
                            <img src=""images/causal_sequence/saving_a_cat_causal/saving_a_cat_causal_6.png"" class=""exp-image"">
                        </div>","0","part3_final_choice","","saving_a_cat_causal","","valuable","7","8","1"
"","","","","","survey-text","158","894247","0.0-151.0","2810E4BC25BC4C19901BB68B978E2228","019ce87b-29b4-7f2e-8cc5-1681c5ab2b0e","019ce875-66c2-7f0b-b5e8-086c75889f84","","45927","","{""gender"":""Male"",""age"":""32"",""decision_strategy"":""Guessing"",""consistency_check"":""Same Logic""}","demographics_and_strategy","","","","","","",""
"","","","","","instructions","159","908993","0.0-152.0","2810E4BC25BC4C19901BB68B978E2228","019ce87b-29b4-7f2e-8cc5-1681c5ab2b0e","019ce875-66c2-7f0b-b5e8-086c75889f84","[{""page_index"":0,""viewing_time"":14745}]","14745","","","","","","","","","",""
