"success","timeout","failed_images","failed_audio","failed_video","trial_type","trial_index","time_elapsed","internal_node_id","subject_id","study_id","session_id","view_history","rt","stimulus","response","task","image_index","folder","sequence_type","valuable_image_index","reward_type","lucky_X","chosen_image_index","valuable_folder","neutral_folder","correct_choice"
"false","false","[]","[]","[]","preload","0","233730","0.0-0.0","76B7C9ED783E4A2EB3064083D23A5E14","019cedcd-80ef-7f8a-ae1e-210c7ba2925b","019cedc9-bfe1-7bb5-8857-de065a1e03dd","","","","","","","","","","","","","","",""
"","","","","","instructions","1","263395","0.0-1.0","76B7C9ED783E4A2EB3064083D23A5E14","019cedcd-80ef-7f8a-ae1e-210c7ba2925b","019cedc9-bfe1-7bb5-8857-de065a1e03dd","[{""page_index"":0,""viewing_time"":29663}]","29664","","","","","","","","","","","","",""
"","","","","","instructions","2","275027","0.0-2.0","76B7C9ED783E4A2EB3064083D23A5E14","019cedcd-80ef-7f8a-ae1e-210c7ba2925b","019cedc9-bfe1-7bb5-8857-de065a1e03dd","[{""page_index"":0,""viewing_time"":11625}]","11631","","","","","","","","","","","","",""
"true","","","","","fullscreen","3","283197","0.0-3.0","76B7C9ED783E4A2EB3064083D23A5E14","019cedcd-80ef-7f8a-ae1e-210c7ba2925b","019cedc9-bfe1-7bb5-8857-de065a1e03dd","","7150","","","","","","","","","","","","",""
"","","","","","instructions","4","299571","0.0-4.0","76B7C9ED783E4A2EB3064083D23A5E14","019cedcd-80ef-7f8a-ae1e-210c7ba2925b","019cedc9-bfe1-7bb5-8857-de065a1e03dd","[{""page_index"":0,""viewing_time"":16374}]","16374","","","","","","","","","","","","",""
"","","","","","instructions","5","318646","0.0-5.0","76B7C9ED783E4A2EB3064083D23A5E14","019cedcd-80ef-7f8a-ae1e-210c7ba2925b","019cedc9-bfe1-7bb5-8857-de065a1e03dd","[{""page_index"":0,""viewing_time"":19074}]","19074","","","","","","","","","","","","",""
"","","","","","html-keyboard-response","6","322650","0.0-6.0","76B7C9ED783E4A2EB3064083D23A5E14","019cedcd-80ef-7f8a-ae1e-210c7ba2925b","019cedc9-bfe1-7bb5-8857-de065a1e03dd","","null","
                <div class=""stimulus-container"">
                    <img src=""images/instructions/movie_1.png"" class=""exp-image"">
                    <div class=""question-area""></div> 
                </div>","null","","","","","","","","","","",""
"","","","","","html-button-response","7","325359","0.0-7.0","76B7C9ED783E4A2EB3064083D23A5E14","019cedcd-80ef-7f8a-ae1e-210c7ba2925b","019cedc9-bfe1-7bb5-8857-de065a1e03dd","","2707","
                <div class=""stimulus-container"">
                    <img src=""images/instructions/movie_1.png"" class=""exp-image"">
                    <div class=""question-area"">
                        <p style=""font-size: 20px; font-weight: bold; margin: 0;"">Was there a person in this image?</p>
                    </div>
                </div>","0","example_question","1","","","","","","","","",""
"","","","","","html-keyboard-response","8","329365","0.0-8.0","76B7C9ED783E4A2EB3064083D23A5E14","019cedcd-80ef-7f8a-ae1e-210c7ba2925b","019cedc9-bfe1-7bb5-8857-de065a1e03dd","","null","
                <div class=""stimulus-container"">
                    <img src=""images/instructions/movie_2.png"" class=""exp-image"">
                    <div class=""question-area""></div> 
                </div>","null","","","","","","","","","","",""
"","","","","","html-button-response","9","332366","0.0-9.0","76B7C9ED783E4A2EB3064083D23A5E14","019cedcd-80ef-7f8a-ae1e-210c7ba2925b","019cedc9-bfe1-7bb5-8857-de065a1e03dd","","null","
                <div class=""stimulus-container"">
                    <img src=""images/instructions/movie_2.png"" class=""exp-image"">
                    <div class=""question-area"">
                        <p style=""font-size: 20px; font-weight: bold; margin: 0;"">Was there a person in this image?</p>
                    </div>
                </div>","null","example_question","2","","","","","","","","",""
"","","","","","html-keyboard-response","10","336378","0.0-10.0","76B7C9ED783E4A2EB3064083D23A5E14","019cedcd-80ef-7f8a-ae1e-210c7ba2925b","019cedc9-bfe1-7bb5-8857-de065a1e03dd","","null","
                <div class=""stimulus-container"">
                    <img src=""images/instructions/movie_3.png"" class=""exp-image"">
                    <div class=""question-area""></div> 
                </div>","null","","","","","","","","","","",""
"","","","","","html-button-response","11","337854","0.0-11.0","76B7C9ED783E4A2EB3064083D23A5E14","019cedcd-80ef-7f8a-ae1e-210c7ba2925b","019cedc9-bfe1-7bb5-8857-de065a1e03dd","","1476","
                <div class=""stimulus-container"">
                    <img src=""images/instructions/movie_3.png"" class=""exp-image"">
                    <div class=""question-area"">
                        <p style=""font-size: 20px; font-weight: bold; margin: 0;"">Was there a person in this image?</p>
                    </div>
                </div>","0","example_question","3","","","","","","","","",""
"","","","","","html-keyboard-response","12","341869","0.0-12.0","76B7C9ED783E4A2EB3064083D23A5E14","019cedcd-80ef-7f8a-ae1e-210c7ba2925b","019cedc9-bfe1-7bb5-8857-de065a1e03dd","","null","
                <div class=""stimulus-container"">
                    <img src=""images/instructions/movie_4.png"" class=""exp-image"">
                    <div class=""question-area""></div> 
                </div>","null","","","","","","","","","","",""
"","","","","","html-button-response","13","343428","0.0-13.0","76B7C9ED783E4A2EB3064083D23A5E14","019cedcd-80ef-7f8a-ae1e-210c7ba2925b","019cedc9-bfe1-7bb5-8857-de065a1e03dd","","1558","
                <div class=""stimulus-container"">
                    <img src=""images/instructions/movie_4.png"" class=""exp-image"">
                    <div class=""question-area"">
                        <p style=""font-size: 20px; font-weight: bold; margin: 0;"">Was there a person in this image?</p>
                    </div>
                </div>","0","example_question","4","","","","","","","","",""
"","","","","","instructions","14","348332","0.0-14.0","76B7C9ED783E4A2EB3064083D23A5E14","019cedcd-80ef-7f8a-ae1e-210c7ba2925b","019cedc9-bfe1-7bb5-8857-de065a1e03dd","[{""page_index"":0,""viewing_time"":4904}]","4904","","","","","","","","","","","","",""
"","","","","","instructions","15","370615","0.0-15.0","76B7C9ED783E4A2EB3064083D23A5E14","019cedcd-80ef-7f8a-ae1e-210c7ba2925b","019cedc9-bfe1-7bb5-8857-de065a1e03dd","[{""page_index"":0,""viewing_time"":22282}]","22282","","","","","","","","","","","","",""
"","","","","","html-keyboard-response","16","371619","0.0-16.0","76B7C9ED783E4A2EB3064083D23A5E14","019cedcd-80ef-7f8a-ae1e-210c7ba2925b","019cedc9-bfe1-7bb5-8857-de065a1e03dd","","null","<div style=""background-color: white; width: 100vw; height: 100vh;""></div>","null","","","","","","","","","","",""
"","","","","","html-keyboard-response","17","376627","0.0-17.0","76B7C9ED783E4A2EB3064083D23A5E14","019cedcd-80ef-7f8a-ae1e-210c7ba2925b","019cedc9-bfe1-7bb5-8857-de065a1e03dd","","null","
                <div class=""stimulus-container"">
                    <img src=""images/causal_sequence/the_performance_causal/the_performance_causal_1.png"" class=""exp-image"">
                    <div class=""question-area""></div> 
                </div>","null","","","","","","","","","","",""
"","","","","","html-button-response","18","377866","0.0-18.0","76B7C9ED783E4A2EB3064083D23A5E14","019cedcd-80ef-7f8a-ae1e-210c7ba2925b","019cedc9-bfe1-7bb5-8857-de065a1e03dd","","1238","
                <div class=""stimulus-container"">
                    <img src=""images/causal_sequence/the_performance_causal/the_performance_causal_1.png"" class=""exp-image"">
                    <div class=""question-area"">
                        <p style=""font-size: 20px; font-weight: bold; margin: 0;"">Is there a person in this image?</p>
                    </div>
                </div>","0","main_experiment_trial","1","the_performance_causal","causal_sequence","","","","","","",""
"","","","","","html-keyboard-response","19","382871","0.0-19.0","76B7C9ED783E4A2EB3064083D23A5E14","019cedcd-80ef-7f8a-ae1e-210c7ba2925b","019cedc9-bfe1-7bb5-8857-de065a1e03dd","","null","
                <div class=""stimulus-container"">
                    <img src=""images/causal_sequence/the_performance_causal/the_performance_causal_2.png"" class=""exp-image"">
                    <div class=""question-area""></div> 
                </div>","null","","","","","","","","","","",""
"","","","","","html-button-response","20","383864","0.0-20.0","76B7C9ED783E4A2EB3064083D23A5E14","019cedcd-80ef-7f8a-ae1e-210c7ba2925b","019cedc9-bfe1-7bb5-8857-de065a1e03dd","","993","
                <div class=""stimulus-container"">
                    <img src=""images/causal_sequence/the_performance_causal/the_performance_causal_2.png"" class=""exp-image"">
                    <div class=""question-area"">
                        <p style=""font-size: 20px; font-weight: bold; margin: 0;"">Is there a person in this image?</p>
                    </div>
                </div>","0","main_experiment_trial","2","the_performance_causal","causal_sequence","","","","","","",""
"","","","","","html-keyboard-response","21","388875","0.0-21.0","76B7C9ED783E4A2EB3064083D23A5E14","019cedcd-80ef-7f8a-ae1e-210c7ba2925b","019cedc9-bfe1-7bb5-8857-de065a1e03dd","","null","
                <div class=""stimulus-container"">
                    <img src=""images/causal_sequence/the_performance_causal/the_performance_causal_3.png"" class=""exp-image"">
                    <div class=""question-area""></div> 
                </div>","null","","","","","","","","","","",""
"","","","","","html-button-response","22","390429","0.0-22.0","76B7C9ED783E4A2EB3064083D23A5E14","019cedcd-80ef-7f8a-ae1e-210c7ba2925b","019cedc9-bfe1-7bb5-8857-de065a1e03dd","","1553","
                <div class=""stimulus-container"">
                    <img src=""images/causal_sequence/the_performance_causal/the_performance_causal_3.png"" class=""exp-image"">
                    <div class=""question-area"">
                        <p style=""font-size: 20px; font-weight: bold; margin: 0;"">Is there a person in this image?</p>
                    </div>
                </div>","0","main_experiment_trial","3","the_performance_causal","causal_sequence","","","","","","",""
"","","","","","html-keyboard-response","23","395435","0.0-23.0","76B7C9ED783E4A2EB3064083D23A5E14","019cedcd-80ef-7f8a-ae1e-210c7ba2925b","019cedc9-bfe1-7bb5-8857-de065a1e03dd","","null","
                <div class=""stimulus-container"">
                    <img src=""images/causal_sequence/the_performance_causal/the_performance_causal_4.png"" class=""exp-image"">
                    <div class=""question-area""></div> 
                </div>","null","","","","","","","","","","",""
"","","","","","html-button-response","24","396550","0.0-24.0","76B7C9ED783E4A2EB3064083D23A5E14","019cedcd-80ef-7f8a-ae1e-210c7ba2925b","019cedc9-bfe1-7bb5-8857-de065a1e03dd","","1115","
                <div class=""stimulus-container"">
                    <img src=""images/causal_sequence/the_performance_causal/the_performance_causal_4.png"" class=""exp-image"">
                    <div class=""question-area"">
                        <p style=""font-size: 20px; font-weight: bold; margin: 0;"">Is there a person in this image?</p>
                    </div>
                </div>","0","main_experiment_trial","4","the_performance_causal","causal_sequence","","","","","","",""
"","","","","","html-keyboard-response","25","401552","0.0-25.0","76B7C9ED783E4A2EB3064083D23A5E14","019cedcd-80ef-7f8a-ae1e-210c7ba2925b","019cedc9-bfe1-7bb5-8857-de065a1e03dd","","null","
                <div class=""stimulus-container"">
                    <img src=""images/causal_sequence/the_performance_causal/the_performance_causal_5.png"" class=""exp-image"">
                    <div class=""question-area""></div> 
                </div>","null","","","","","","","","","","",""
"","","","","","html-button-response","26","403121","0.0-26.0","76B7C9ED783E4A2EB3064083D23A5E14","019cedcd-80ef-7f8a-ae1e-210c7ba2925b","019cedc9-bfe1-7bb5-8857-de065a1e03dd","","1568","
                <div class=""stimulus-container"">
                    <img src=""images/causal_sequence/the_performance_causal/the_performance_causal_5.png"" class=""exp-image"">
                    <div class=""question-area"">
                        <p style=""font-size: 20px; font-weight: bold; margin: 0;"">Is there a person in this image?</p>
                    </div>
                </div>","0","main_experiment_trial","5","the_performance_causal","causal_sequence","","","","","","",""
"","","","","","html-keyboard-response","27","408132","0.0-27.0","76B7C9ED783E4A2EB3064083D23A5E14","019cedcd-80ef-7f8a-ae1e-210c7ba2925b","019cedc9-bfe1-7bb5-8857-de065a1e03dd","","null","
                <div class=""stimulus-container"">
                    <img src=""images/causal_sequence/the_performance_causal/the_performance_causal_6.png"" class=""exp-image"">
                    <div class=""question-area""></div> 
                </div>","null","","","","","","","","","","",""
"","","","","","html-button-response","28","409355","0.0-28.0","76B7C9ED783E4A2EB3064083D23A5E14","019cedcd-80ef-7f8a-ae1e-210c7ba2925b","019cedc9-bfe1-7bb5-8857-de065a1e03dd","","1222","
                <div class=""stimulus-container"">
                    <img src=""images/causal_sequence/the_performance_causal/the_performance_causal_6.png"" class=""exp-image"">
                    <div class=""question-area"">
                        <p style=""font-size: 20px; font-weight: bold; margin: 0;"">Is there a person in this image?</p>
                    </div>
                </div>","0","main_experiment_trial","6","the_performance_causal","causal_sequence","","","","","","",""
"","","","","","html-keyboard-response","29","414371","0.0-29.0","76B7C9ED783E4A2EB3064083D23A5E14","019cedcd-80ef-7f8a-ae1e-210c7ba2925b","019cedc9-bfe1-7bb5-8857-de065a1e03dd","","null","
                <div class=""stimulus-container"">
                    <img src=""images/causal_sequence/the_performance_causal/the_performance_causal_7.png"" class=""exp-image"">
                    <div class=""question-area""></div> 
                </div>","null","","","","","","","","","","",""
"","","","","","html-button-response","30","415538","0.0-30.0","76B7C9ED783E4A2EB3064083D23A5E14","019cedcd-80ef-7f8a-ae1e-210c7ba2925b","019cedc9-bfe1-7bb5-8857-de065a1e03dd","","1166","
                <div class=""stimulus-container"">
                    <img src=""images/causal_sequence/the_performance_causal/the_performance_causal_7.png"" class=""exp-image"">
                    <div class=""question-area"">
                        <p style=""font-size: 20px; font-weight: bold; margin: 0;"">Is there a person in this image?</p>
                    </div>
                </div>","0","main_experiment_trial","7","the_performance_causal","causal_sequence","","","","","","",""
"","","","","","html-keyboard-response","31","420547","0.0-31.0","76B7C9ED783E4A2EB3064083D23A5E14","019cedcd-80ef-7f8a-ae1e-210c7ba2925b","019cedc9-bfe1-7bb5-8857-de065a1e03dd","","null","
                <div class=""stimulus-container"">
                    <img src=""images/causal_sequence/the_performance_causal/the_performance_causal_8.png"" class=""exp-image"">
                    <div class=""question-area""></div> 
                </div>","null","","","","","","","","","","",""
"","","","","","html-button-response","32","421599","0.0-32.0","76B7C9ED783E4A2EB3064083D23A5E14","019cedcd-80ef-7f8a-ae1e-210c7ba2925b","019cedc9-bfe1-7bb5-8857-de065a1e03dd","","1051","
                <div class=""stimulus-container"">
                    <img src=""images/causal_sequence/the_performance_causal/the_performance_causal_8.png"" class=""exp-image"">
                    <div class=""question-area"">
                        <p style=""font-size: 20px; font-weight: bold; margin: 0;"">Is there a person in this image?</p>
                    </div>
                </div>","0","main_experiment_trial","8","the_performance_causal","causal_sequence","","","","","","",""
"","","","","","html-keyboard-response","33","426612","0.0-33.0","76B7C9ED783E4A2EB3064083D23A5E14","019cedcd-80ef-7f8a-ae1e-210c7ba2925b","019cedc9-bfe1-7bb5-8857-de065a1e03dd","","null","
                <div class=""stimulus-container"">
                    <img src=""images/causal_sequence/the_performance_causal/the_performance_causal_9.png"" class=""exp-image"">
                    <div class=""question-area""></div> 
                </div>","null","","","","","","","","","","",""
"","","","","","html-button-response","34","428309","0.0-34.0","76B7C9ED783E4A2EB3064083D23A5E14","019cedcd-80ef-7f8a-ae1e-210c7ba2925b","019cedc9-bfe1-7bb5-8857-de065a1e03dd","","1696","
                <div class=""stimulus-container"">
                    <img src=""images/causal_sequence/the_performance_causal/the_performance_causal_9.png"" class=""exp-image"">
                    <div class=""question-area"">
                        <p style=""font-size: 20px; font-weight: bold; margin: 0;"">Is there a person in this image?</p>
                    </div>
                </div>","0","main_experiment_trial","9","the_performance_causal","causal_sequence","","","","","","",""
"","","","","","html-keyboard-response","35","433323","0.0-35.0","76B7C9ED783E4A2EB3064083D23A5E14","019cedcd-80ef-7f8a-ae1e-210c7ba2925b","019cedc9-bfe1-7bb5-8857-de065a1e03dd","","null","
                <div class=""stimulus-container"">
                    <img src=""images/causal_sequence/the_performance_causal/the_performance_causal_ten.png"" class=""exp-image"">
                    <div class=""question-area""></div> 
                </div>","null","","","","","","","","","","",""
"","","","","","html-button-response","36","434328","0.0-36.0","76B7C9ED783E4A2EB3064083D23A5E14","019cedcd-80ef-7f8a-ae1e-210c7ba2925b","019cedc9-bfe1-7bb5-8857-de065a1e03dd","","1003","
                <div class=""stimulus-container"">
                    <img src=""images/causal_sequence/the_performance_causal/the_performance_causal_ten.png"" class=""exp-image"">
                    <div class=""question-area"">
                        <p style=""font-size: 20px; font-weight: bold; margin: 0;"">Is there a person in this image?</p>
                    </div>
                </div>","0","main_experiment_trial","ten","the_performance_causal","causal_sequence","","","","","","",""
"","","","","","html-keyboard-response","37","435335","0.0-37.0","76B7C9ED783E4A2EB3064083D23A5E14","019cedcd-80ef-7f8a-ae1e-210c7ba2925b","019cedc9-bfe1-7bb5-8857-de065a1e03dd","","null","<div style=""background-color: white; width: 100vw; height: 100vh;""></div>","null","","","","","","","","","","",""
"","","","","","html-keyboard-response","38","440344","0.0-38.0","76B7C9ED783E4A2EB3064083D23A5E14","019cedcd-80ef-7f8a-ae1e-210c7ba2925b","019cedc9-bfe1-7bb5-8857-de065a1e03dd","","null","
                <div class=""stimulus-container"">
                    <img src=""images/schematic_sequence/dinner_party_scheme/dinner_party_scheme_1.png"" class=""exp-image"">
                    <div class=""question-area""></div> 
                </div>","null","","","","","","","","","","",""
"","","","","","html-button-response","39","442580","0.0-39.0","76B7C9ED783E4A2EB3064083D23A5E14","019cedcd-80ef-7f8a-ae1e-210c7ba2925b","019cedc9-bfe1-7bb5-8857-de065a1e03dd","","2236","
                <div class=""stimulus-container"">
                    <img src=""images/schematic_sequence/dinner_party_scheme/dinner_party_scheme_1.png"" class=""exp-image"">
                    <div class=""question-area"">
                        <p style=""font-size: 20px; font-weight: bold; margin: 0;"">Is there a person in this image?</p>
                    </div>
                </div>","1","main_experiment_trial","1","dinner_party_scheme","schematic_sequence","","","","","","",""
"","","","","","html-keyboard-response","40","447587","0.0-40.0","76B7C9ED783E4A2EB3064083D23A5E14","019cedcd-80ef-7f8a-ae1e-210c7ba2925b","019cedc9-bfe1-7bb5-8857-de065a1e03dd","","null","
                <div class=""stimulus-container"">
                    <img src=""images/schematic_sequence/dinner_party_scheme/dinner_party_scheme_2.png"" class=""exp-image"">
                    <div class=""question-area""></div> 
                </div>","null","","","","","","","","","","",""
"","","","","","html-button-response","41","449516","0.0-41.0","76B7C9ED783E4A2EB3064083D23A5E14","019cedcd-80ef-7f8a-ae1e-210c7ba2925b","019cedc9-bfe1-7bb5-8857-de065a1e03dd","","1928","
                <div class=""stimulus-container"">
                    <img src=""images/schematic_sequence/dinner_party_scheme/dinner_party_scheme_2.png"" class=""exp-image"">
                    <div class=""question-area"">
                        <p style=""font-size: 20px; font-weight: bold; margin: 0;"">Is there a person in this image?</p>
                    </div>
                </div>","1","main_experiment_trial","2","dinner_party_scheme","schematic_sequence","","","","","","",""
"","","","","","html-keyboard-response","42","454528","0.0-42.0","76B7C9ED783E4A2EB3064083D23A5E14","019cedcd-80ef-7f8a-ae1e-210c7ba2925b","019cedc9-bfe1-7bb5-8857-de065a1e03dd","","null","
                <div class=""stimulus-container"">
                    <img src=""images/schematic_sequence/dinner_party_scheme/dinner_party_scheme_3.png"" class=""exp-image"">
                    <div class=""question-area""></div> 
                </div>","null","","","","","","","","","","",""
"","","","","","html-button-response","43","455751","0.0-43.0","76B7C9ED783E4A2EB3064083D23A5E14","019cedcd-80ef-7f8a-ae1e-210c7ba2925b","019cedc9-bfe1-7bb5-8857-de065a1e03dd","","1223","
                <div class=""stimulus-container"">
                    <img src=""images/schematic_sequence/dinner_party_scheme/dinner_party_scheme_3.png"" class=""exp-image"">
                    <div class=""question-area"">
                        <p style=""font-size: 20px; font-weight: bold; margin: 0;"">Is there a person in this image?</p>
                    </div>
                </div>","0","main_experiment_trial","3","dinner_party_scheme","schematic_sequence","","","","","","",""
"","","","","","html-keyboard-response","44","460754","0.0-44.0","76B7C9ED783E4A2EB3064083D23A5E14","019cedcd-80ef-7f8a-ae1e-210c7ba2925b","019cedc9-bfe1-7bb5-8857-de065a1e03dd","","null","
                <div class=""stimulus-container"">
                    <img src=""images/schematic_sequence/dinner_party_scheme/dinner_party_scheme_4.png"" class=""exp-image"">
                    <div class=""question-area""></div> 
                </div>","null","","","","","","","","","","",""
"","","","","","html-button-response","45","461702","0.0-45.0","76B7C9ED783E4A2EB3064083D23A5E14","019cedcd-80ef-7f8a-ae1e-210c7ba2925b","019cedc9-bfe1-7bb5-8857-de065a1e03dd","","947","
                <div class=""stimulus-container"">
                    <img src=""images/schematic_sequence/dinner_party_scheme/dinner_party_scheme_4.png"" class=""exp-image"">
                    <div class=""question-area"">
                        <p style=""font-size: 20px; font-weight: bold; margin: 0;"">Is there a person in this image?</p>
                    </div>
                </div>","0","main_experiment_trial","4","dinner_party_scheme","schematic_sequence","","","","","","",""
"","","","","","html-keyboard-response","46","466714","0.0-46.0","76B7C9ED783E4A2EB3064083D23A5E14","019cedcd-80ef-7f8a-ae1e-210c7ba2925b","019cedc9-bfe1-7bb5-8857-de065a1e03dd","","null","
                <div class=""stimulus-container"">
                    <img src=""images/schematic_sequence/dinner_party_scheme/dinner_party_scheme_5.png"" class=""exp-image"">
                    <div class=""question-area""></div> 
                </div>","null","","","","","","","","","","",""
"","","","","","html-button-response","47","467974","0.0-47.0","76B7C9ED783E4A2EB3064083D23A5E14","019cedcd-80ef-7f8a-ae1e-210c7ba2925b","019cedc9-bfe1-7bb5-8857-de065a1e03dd","","1259","
                <div class=""stimulus-container"">
                    <img src=""images/schematic_sequence/dinner_party_scheme/dinner_party_scheme_5.png"" class=""exp-image"">
                    <div class=""question-area"">
                        <p style=""font-size: 20px; font-weight: bold; margin: 0;"">Is there a person in this image?</p>
                    </div>
                </div>","1","main_experiment_trial","5","dinner_party_scheme","schematic_sequence","","","","","","",""
"","","","","","html-keyboard-response","48","472988","0.0-48.0","76B7C9ED783E4A2EB3064083D23A5E14","019cedcd-80ef-7f8a-ae1e-210c7ba2925b","019cedc9-bfe1-7bb5-8857-de065a1e03dd","","null","
                <div class=""stimulus-container"">
                    <img src=""images/schematic_sequence/dinner_party_scheme/dinner_party_scheme_6.png"" class=""exp-image"">
                    <div class=""question-area""></div> 
                </div>","null","","","","","","","","","","",""
"","","","","","html-button-response","49","474205","0.0-49.0","76B7C9ED783E4A2EB3064083D23A5E14","019cedcd-80ef-7f8a-ae1e-210c7ba2925b","019cedc9-bfe1-7bb5-8857-de065a1e03dd","","1216","
                <div class=""stimulus-container"">
                    <img src=""images/schematic_sequence/dinner_party_scheme/dinner_party_scheme_6.png"" class=""exp-image"">
                    <div class=""question-area"">
                        <p style=""font-size: 20px; font-weight: bold; margin: 0;"">Is there a person in this image?</p>
                    </div>
                </div>","0","main_experiment_trial","6","dinner_party_scheme","schematic_sequence","","","","","","",""
"","","","","","html-keyboard-response","50","479212","0.0-50.0","76B7C9ED783E4A2EB3064083D23A5E14","019cedcd-80ef-7f8a-ae1e-210c7ba2925b","019cedc9-bfe1-7bb5-8857-de065a1e03dd","","null","
                <div class=""stimulus-container"">
                    <img src=""images/schematic_sequence/dinner_party_scheme/dinner_party_scheme_7.png"" class=""exp-image"">
                    <div class=""question-area""></div> 
                </div>","null","","","","","","","","","","",""
"","","","","","html-button-response","51","480257","0.0-51.0","76B7C9ED783E4A2EB3064083D23A5E14","019cedcd-80ef-7f8a-ae1e-210c7ba2925b","019cedc9-bfe1-7bb5-8857-de065a1e03dd","","1044","
                <div class=""stimulus-container"">
                    <img src=""images/schematic_sequence/dinner_party_scheme/dinner_party_scheme_7.png"" class=""exp-image"">
                    <div class=""question-area"">
                        <p style=""font-size: 20px; font-weight: bold; margin: 0;"">Is there a person in this image?</p>
                    </div>
                </div>","0","main_experiment_trial","7","dinner_party_scheme","schematic_sequence","","","","","","",""
"","","","","","html-keyboard-response","52","485271","0.0-52.0","76B7C9ED783E4A2EB3064083D23A5E14","019cedcd-80ef-7f8a-ae1e-210c7ba2925b","019cedc9-bfe1-7bb5-8857-de065a1e03dd","","null","
                <div class=""stimulus-container"">
                    <img src=""images/schematic_sequence/dinner_party_scheme/dinner_party_scheme_8.png"" class=""exp-image"">
                    <div class=""question-area""></div> 
                </div>","null","","","","","","","","","","",""
"","","","","","html-button-response","53","486221","0.0-53.0","76B7C9ED783E4A2EB3064083D23A5E14","019cedcd-80ef-7f8a-ae1e-210c7ba2925b","019cedc9-bfe1-7bb5-8857-de065a1e03dd","","949","
                <div class=""stimulus-container"">
                    <img src=""images/schematic_sequence/dinner_party_scheme/dinner_party_scheme_8.png"" class=""exp-image"">
                    <div class=""question-area"">
                        <p style=""font-size: 20px; font-weight: bold; margin: 0;"">Is there a person in this image?</p>
                    </div>
                </div>","0","main_experiment_trial","8","dinner_party_scheme","schematic_sequence","","","","","","",""
"","","","","","html-keyboard-response","54","491236","0.0-54.0","76B7C9ED783E4A2EB3064083D23A5E14","019cedcd-80ef-7f8a-ae1e-210c7ba2925b","019cedc9-bfe1-7bb5-8857-de065a1e03dd","","null","
                <div class=""stimulus-container"">
                    <img src=""images/schematic_sequence/dinner_party_scheme/dinner_party_scheme_9.png"" class=""exp-image"">
                    <div class=""question-area""></div> 
                </div>","null","","","","","","","","","","",""
"","","","","","html-button-response","55","492182","0.0-55.0","76B7C9ED783E4A2EB3064083D23A5E14","019cedcd-80ef-7f8a-ae1e-210c7ba2925b","019cedc9-bfe1-7bb5-8857-de065a1e03dd","","945","
                <div class=""stimulus-container"">
                    <img src=""images/schematic_sequence/dinner_party_scheme/dinner_party_scheme_9.png"" class=""exp-image"">
                    <div class=""question-area"">
                        <p style=""font-size: 20px; font-weight: bold; margin: 0;"">Is there a person in this image?</p>
                    </div>
                </div>","0","main_experiment_trial","9","dinner_party_scheme","schematic_sequence","","","","","","",""
"","","","","","html-keyboard-response","56","497184","0.0-56.0","76B7C9ED783E4A2EB3064083D23A5E14","019cedcd-80ef-7f8a-ae1e-210c7ba2925b","019cedc9-bfe1-7bb5-8857-de065a1e03dd","","null","
                <div class=""stimulus-container"">
                    <img src=""images/schematic_sequence/dinner_party_scheme/dinner_party_scheme_ten.png"" class=""exp-image"">
                    <div class=""question-area""></div> 
                </div>","null","","","","","","","","","","",""
"","","","","","html-button-response","57","498299","0.0-57.0","76B7C9ED783E4A2EB3064083D23A5E14","019cedcd-80ef-7f8a-ae1e-210c7ba2925b","019cedc9-bfe1-7bb5-8857-de065a1e03dd","","1114","
                <div class=""stimulus-container"">
                    <img src=""images/schematic_sequence/dinner_party_scheme/dinner_party_scheme_ten.png"" class=""exp-image"">
                    <div class=""question-area"">
                        <p style=""font-size: 20px; font-weight: bold; margin: 0;"">Is there a person in this image?</p>
                    </div>
                </div>","0","main_experiment_trial","ten","dinner_party_scheme","schematic_sequence","","","","","","",""
"","","","","","html-keyboard-response","58","499306","0.0-58.0","76B7C9ED783E4A2EB3064083D23A5E14","019cedcd-80ef-7f8a-ae1e-210c7ba2925b","019cedc9-bfe1-7bb5-8857-de065a1e03dd","","null","<div style=""background-color: white; width: 100vw; height: 100vh;""></div>","null","","","","","","","","","","",""
"","","","","","html-keyboard-response","59","504315","0.0-59.0","76B7C9ED783E4A2EB3064083D23A5E14","019cedcd-80ef-7f8a-ae1e-210c7ba2925b","019cedc9-bfe1-7bb5-8857-de065a1e03dd","","null","
                <div class=""stimulus-container"">
                    <img src=""images/schematic_sequence/restaurant_scheme/restaurant_scheme_1.png"" class=""exp-image"">
                    <div class=""question-area""></div> 
                </div>","null","","","","","","","","","","",""
"","","","","","html-button-response","60","505422","0.0-60.0","76B7C9ED783E4A2EB3064083D23A5E14","019cedcd-80ef-7f8a-ae1e-210c7ba2925b","019cedc9-bfe1-7bb5-8857-de065a1e03dd","","1106","
                <div class=""stimulus-container"">
                    <img src=""images/schematic_sequence/restaurant_scheme/restaurant_scheme_1.png"" class=""exp-image"">
                    <div class=""question-area"">
                        <p style=""font-size: 20px; font-weight: bold; margin: 0;"">Is there a person in this image?</p>
                    </div>
                </div>","0","main_experiment_trial","1","restaurant_scheme","schematic_sequence","","","","","","",""
"","","","","","html-keyboard-response","61","510431","0.0-61.0","76B7C9ED783E4A2EB3064083D23A5E14","019cedcd-80ef-7f8a-ae1e-210c7ba2925b","019cedc9-bfe1-7bb5-8857-de065a1e03dd","","null","
                <div class=""stimulus-container"">
                    <img src=""images/schematic_sequence/restaurant_scheme/restaurant_scheme_2.png"" class=""exp-image"">
                    <div class=""question-area""></div> 
                </div>","null","","","","","","","","","","",""
"","","","","","html-button-response","62","511725","0.0-62.0","76B7C9ED783E4A2EB3064083D23A5E14","019cedcd-80ef-7f8a-ae1e-210c7ba2925b","019cedc9-bfe1-7bb5-8857-de065a1e03dd","","1293","
                <div class=""stimulus-container"">
                    <img src=""images/schematic_sequence/restaurant_scheme/restaurant_scheme_2.png"" class=""exp-image"">
                    <div class=""question-area"">
                        <p style=""font-size: 20px; font-weight: bold; margin: 0;"">Is there a person in this image?</p>
                    </div>
                </div>","1","main_experiment_trial","2","restaurant_scheme","schematic_sequence","","","","","","",""
"","","","","","html-keyboard-response","63","516732","0.0-63.0","76B7C9ED783E4A2EB3064083D23A5E14","019cedcd-80ef-7f8a-ae1e-210c7ba2925b","019cedc9-bfe1-7bb5-8857-de065a1e03dd","","null","
                <div class=""stimulus-container"">
                    <img src=""images/schematic_sequence/restaurant_scheme/restaurant_scheme_3.png"" class=""exp-image"">
                    <div class=""question-area""></div> 
                </div>","null","","","","","","","","","","",""
"","","","","","html-button-response","64","517802","0.0-64.0","76B7C9ED783E4A2EB3064083D23A5E14","019cedcd-80ef-7f8a-ae1e-210c7ba2925b","019cedc9-bfe1-7bb5-8857-de065a1e03dd","","1069","
                <div class=""stimulus-container"">
                    <img src=""images/schematic_sequence/restaurant_scheme/restaurant_scheme_3.png"" class=""exp-image"">
                    <div class=""question-area"">
                        <p style=""font-size: 20px; font-weight: bold; margin: 0;"">Is there a person in this image?</p>
                    </div>
                </div>","1","main_experiment_trial","3","restaurant_scheme","schematic_sequence","","","","","","",""
"","","","","","html-keyboard-response","65","522816","0.0-65.0","76B7C9ED783E4A2EB3064083D23A5E14","019cedcd-80ef-7f8a-ae1e-210c7ba2925b","019cedc9-bfe1-7bb5-8857-de065a1e03dd","","null","
                <div class=""stimulus-container"">
                    <img src=""images/schematic_sequence/restaurant_scheme/restaurant_scheme_4.png"" class=""exp-image"">
                    <div class=""question-area""></div> 
                </div>","null","","","","","","","","","","",""
"","","","","","html-button-response","66","524047","0.0-66.0","76B7C9ED783E4A2EB3064083D23A5E14","019cedcd-80ef-7f8a-ae1e-210c7ba2925b","019cedc9-bfe1-7bb5-8857-de065a1e03dd","","1230","
                <div class=""stimulus-container"">
                    <img src=""images/schematic_sequence/restaurant_scheme/restaurant_scheme_4.png"" class=""exp-image"">
                    <div class=""question-area"">
                        <p style=""font-size: 20px; font-weight: bold; margin: 0;"">Is there a person in this image?</p>
                    </div>
                </div>","0","main_experiment_trial","4","restaurant_scheme","schematic_sequence","","","","","","",""
"","","","","","html-keyboard-response","67","529056","0.0-67.0","76B7C9ED783E4A2EB3064083D23A5E14","019cedcd-80ef-7f8a-ae1e-210c7ba2925b","019cedc9-bfe1-7bb5-8857-de065a1e03dd","","null","
                <div class=""stimulus-container"">
                    <img src=""images/schematic_sequence/restaurant_scheme/restaurant_scheme_5.png"" class=""exp-image"">
                    <div class=""question-area""></div> 
                </div>","null","","","","","","","","","","",""
"","","","","","html-button-response","68","530141","0.0-68.0","76B7C9ED783E4A2EB3064083D23A5E14","019cedcd-80ef-7f8a-ae1e-210c7ba2925b","019cedc9-bfe1-7bb5-8857-de065a1e03dd","","1085","
                <div class=""stimulus-container"">
                    <img src=""images/schematic_sequence/restaurant_scheme/restaurant_scheme_5.png"" class=""exp-image"">
                    <div class=""question-area"">
                        <p style=""font-size: 20px; font-weight: bold; margin: 0;"">Is there a person in this image?</p>
                    </div>
                </div>","0","main_experiment_trial","5","restaurant_scheme","schematic_sequence","","","","","","",""
"","","","","","html-keyboard-response","69","535147","0.0-69.0","76B7C9ED783E4A2EB3064083D23A5E14","019cedcd-80ef-7f8a-ae1e-210c7ba2925b","019cedc9-bfe1-7bb5-8857-de065a1e03dd","","null","
                <div class=""stimulus-container"">
                    <img src=""images/schematic_sequence/restaurant_scheme/restaurant_scheme_6.png"" class=""exp-image"">
                    <div class=""question-area""></div> 
                </div>","null","","","","","","","","","","",""
"","","","","","html-button-response","70","536599","0.0-70.0","76B7C9ED783E4A2EB3064083D23A5E14","019cedcd-80ef-7f8a-ae1e-210c7ba2925b","019cedc9-bfe1-7bb5-8857-de065a1e03dd","","1451","
                <div class=""stimulus-container"">
                    <img src=""images/schematic_sequence/restaurant_scheme/restaurant_scheme_6.png"" class=""exp-image"">
                    <div class=""question-area"">
                        <p style=""font-size: 20px; font-weight: bold; margin: 0;"">Is there a person in this image?</p>
                    </div>
                </div>","1","main_experiment_trial","6","restaurant_scheme","schematic_sequence","","","","","","",""
"","","","","","html-keyboard-response","71","541613","0.0-71.0","76B7C9ED783E4A2EB3064083D23A5E14","019cedcd-80ef-7f8a-ae1e-210c7ba2925b","019cedc9-bfe1-7bb5-8857-de065a1e03dd","","null","
                <div class=""stimulus-container"">
                    <img src=""images/schematic_sequence/restaurant_scheme/restaurant_scheme_7.png"" class=""exp-image"">
                    <div class=""question-area""></div> 
                </div>","null","","","","","","","","","","",""
"","","","","","html-button-response","72","542589","0.0-72.0","76B7C9ED783E4A2EB3064083D23A5E14","019cedcd-80ef-7f8a-ae1e-210c7ba2925b","019cedc9-bfe1-7bb5-8857-de065a1e03dd","","974","
                <div class=""stimulus-container"">
                    <img src=""images/schematic_sequence/restaurant_scheme/restaurant_scheme_7.png"" class=""exp-image"">
                    <div class=""question-area"">
                        <p style=""font-size: 20px; font-weight: bold; margin: 0;"">Is there a person in this image?</p>
                    </div>
                </div>","1","main_experiment_trial","7","restaurant_scheme","schematic_sequence","","","","","","",""
"","","","","","html-keyboard-response","73","547597","0.0-73.0","76B7C9ED783E4A2EB3064083D23A5E14","019cedcd-80ef-7f8a-ae1e-210c7ba2925b","019cedc9-bfe1-7bb5-8857-de065a1e03dd","","null","
                <div class=""stimulus-container"">
                    <img src=""images/schematic_sequence/restaurant_scheme/restaurant_scheme_8.png"" class=""exp-image"">
                    <div class=""question-area""></div> 
                </div>","null","","","","","","","","","","",""
"","","","","","html-button-response","74","548592","0.0-74.0","76B7C9ED783E4A2EB3064083D23A5E14","019cedcd-80ef-7f8a-ae1e-210c7ba2925b","019cedc9-bfe1-7bb5-8857-de065a1e03dd","","994","
                <div class=""stimulus-container"">
                    <img src=""images/schematic_sequence/restaurant_scheme/restaurant_scheme_8.png"" class=""exp-image"">
                    <div class=""question-area"">
                        <p style=""font-size: 20px; font-weight: bold; margin: 0;"">Is there a person in this image?</p>
                    </div>
                </div>","1","main_experiment_trial","8","restaurant_scheme","schematic_sequence","","","","","","",""
"","","","","","html-keyboard-response","75","553601","0.0-75.0","76B7C9ED783E4A2EB3064083D23A5E14","019cedcd-80ef-7f8a-ae1e-210c7ba2925b","019cedc9-bfe1-7bb5-8857-de065a1e03dd","","null","
                <div class=""stimulus-container"">
                    <img src=""images/schematic_sequence/restaurant_scheme/restaurant_scheme_9.png"" class=""exp-image"">
                    <div class=""question-area""></div> 
                </div>","null","","","","","","","","","","",""
"","","","","","html-button-response","76","554881","0.0-76.0","76B7C9ED783E4A2EB3064083D23A5E14","019cedcd-80ef-7f8a-ae1e-210c7ba2925b","019cedc9-bfe1-7bb5-8857-de065a1e03dd","","1279","
                <div class=""stimulus-container"">
                    <img src=""images/schematic_sequence/restaurant_scheme/restaurant_scheme_9.png"" class=""exp-image"">
                    <div class=""question-area"">
                        <p style=""font-size: 20px; font-weight: bold; margin: 0;"">Is there a person in this image?</p>
                    </div>
                </div>","0","main_experiment_trial","9","restaurant_scheme","schematic_sequence","","","","","","",""
"","","","","","html-keyboard-response","77","559896","0.0-77.0","76B7C9ED783E4A2EB3064083D23A5E14","019cedcd-80ef-7f8a-ae1e-210c7ba2925b","019cedc9-bfe1-7bb5-8857-de065a1e03dd","","null","
                <div class=""stimulus-container"">
                    <img src=""images/schematic_sequence/restaurant_scheme/restaurant_scheme_ten.png"" class=""exp-image"">
                    <div class=""question-area""></div> 
                </div>","null","","","","","","","","","","",""
"","","","","","html-button-response","78","561006","0.0-78.0","76B7C9ED783E4A2EB3064083D23A5E14","019cedcd-80ef-7f8a-ae1e-210c7ba2925b","019cedc9-bfe1-7bb5-8857-de065a1e03dd","","1109","
                <div class=""stimulus-container"">
                    <img src=""images/schematic_sequence/restaurant_scheme/restaurant_scheme_ten.png"" class=""exp-image"">
                    <div class=""question-area"">
                        <p style=""font-size: 20px; font-weight: bold; margin: 0;"">Is there a person in this image?</p>
                    </div>
                </div>","0","main_experiment_trial","ten","restaurant_scheme","schematic_sequence","","","","","","",""
"","","","","","html-keyboard-response","79","562017","0.0-79.0","76B7C9ED783E4A2EB3064083D23A5E14","019cedcd-80ef-7f8a-ae1e-210c7ba2925b","019cedc9-bfe1-7bb5-8857-de065a1e03dd","","null","<div style=""background-color: white; width: 100vw; height: 100vh;""></div>","null","","","","","","","","","","",""
"","","","","","html-keyboard-response","80","567020","0.0-80.0","76B7C9ED783E4A2EB3064083D23A5E14","019cedcd-80ef-7f8a-ae1e-210c7ba2925b","019cedc9-bfe1-7bb5-8857-de065a1e03dd","","null","
                <div class=""stimulus-container"">
                    <img src=""images/schematic_sequence/interview_scheme/interview_scheme_1.png"" class=""exp-image"">
                    <div class=""question-area""></div> 
                </div>","null","","","","","","","","","","",""
"","","","","","html-button-response","81","568282","0.0-81.0","76B7C9ED783E4A2EB3064083D23A5E14","019cedcd-80ef-7f8a-ae1e-210c7ba2925b","019cedc9-bfe1-7bb5-8857-de065a1e03dd","","1261","
                <div class=""stimulus-container"">
                    <img src=""images/schematic_sequence/interview_scheme/interview_scheme_1.png"" class=""exp-image"">
                    <div class=""question-area"">
                        <p style=""font-size: 20px; font-weight: bold; margin: 0;"">Is there a person in this image?</p>
                    </div>
                </div>","1","main_experiment_trial","1","interview_scheme","schematic_sequence","","","","","","",""
"","","","","","html-keyboard-response","82","573288","0.0-82.0","76B7C9ED783E4A2EB3064083D23A5E14","019cedcd-80ef-7f8a-ae1e-210c7ba2925b","019cedc9-bfe1-7bb5-8857-de065a1e03dd","","null","
                <div class=""stimulus-container"">
                    <img src=""images/schematic_sequence/interview_scheme/interview_scheme_2.png"" class=""exp-image"">
                    <div class=""question-area""></div> 
                </div>","null","","","","","","","","","","",""
"","","","","","html-button-response","83","574261","0.0-83.0","76B7C9ED783E4A2EB3064083D23A5E14","019cedcd-80ef-7f8a-ae1e-210c7ba2925b","019cedc9-bfe1-7bb5-8857-de065a1e03dd","","971","
                <div class=""stimulus-container"">
                    <img src=""images/schematic_sequence/interview_scheme/interview_scheme_2.png"" class=""exp-image"">
                    <div class=""question-area"">
                        <p style=""font-size: 20px; font-weight: bold; margin: 0;"">Is there a person in this image?</p>
                    </div>
                </div>","1","main_experiment_trial","2","interview_scheme","schematic_sequence","","","","","","",""
"","","","","","html-keyboard-response","84","579267","0.0-84.0","76B7C9ED783E4A2EB3064083D23A5E14","019cedcd-80ef-7f8a-ae1e-210c7ba2925b","019cedc9-bfe1-7bb5-8857-de065a1e03dd","","null","
                <div class=""stimulus-container"">
                    <img src=""images/schematic_sequence/interview_scheme/interview_scheme_3.png"" class=""exp-image"">
                    <div class=""question-area""></div> 
                </div>","null","","","","","","","","","","",""
"","","","","","html-button-response","85","580218","0.0-85.0","76B7C9ED783E4A2EB3064083D23A5E14","019cedcd-80ef-7f8a-ae1e-210c7ba2925b","019cedc9-bfe1-7bb5-8857-de065a1e03dd","","950","
                <div class=""stimulus-container"">
                    <img src=""images/schematic_sequence/interview_scheme/interview_scheme_3.png"" class=""exp-image"">
                    <div class=""question-area"">
                        <p style=""font-size: 20px; font-weight: bold; margin: 0;"">Is there a person in this image?</p>
                    </div>
                </div>","1","main_experiment_trial","3","interview_scheme","schematic_sequence","","","","","","",""
"","","","","","html-keyboard-response","86","585224","0.0-86.0","76B7C9ED783E4A2EB3064083D23A5E14","019cedcd-80ef-7f8a-ae1e-210c7ba2925b","019cedc9-bfe1-7bb5-8857-de065a1e03dd","","null","
                <div class=""stimulus-container"">
                    <img src=""images/schematic_sequence/interview_scheme/interview_scheme_4.png"" class=""exp-image"">
                    <div class=""question-area""></div> 
                </div>","null","","","","","","","","","","",""
"","","","","","html-button-response","87","586270","0.0-87.0","76B7C9ED783E4A2EB3064083D23A5E14","019cedcd-80ef-7f8a-ae1e-210c7ba2925b","019cedc9-bfe1-7bb5-8857-de065a1e03dd","","1045","
                <div class=""stimulus-container"">
                    <img src=""images/schematic_sequence/interview_scheme/interview_scheme_4.png"" class=""exp-image"">
                    <div class=""question-area"">
                        <p style=""font-size: 20px; font-weight: bold; margin: 0;"">Is there a person in this image?</p>
                    </div>
                </div>","1","main_experiment_trial","4","interview_scheme","schematic_sequence","","","","","","",""
"","","","","","html-keyboard-response","88","591272","0.0-88.0","76B7C9ED783E4A2EB3064083D23A5E14","019cedcd-80ef-7f8a-ae1e-210c7ba2925b","019cedc9-bfe1-7bb5-8857-de065a1e03dd","","null","
                <div class=""stimulus-container"">
                    <img src=""images/schematic_sequence/interview_scheme/interview_scheme_5.png"" class=""exp-image"">
                    <div class=""question-area""></div> 
                </div>","null","","","","","","","","","","",""
"","","","","","html-button-response","89","593074","0.0-89.0","76B7C9ED783E4A2EB3064083D23A5E14","019cedcd-80ef-7f8a-ae1e-210c7ba2925b","019cedc9-bfe1-7bb5-8857-de065a1e03dd","","1802","
                <div class=""stimulus-container"">
                    <img src=""images/schematic_sequence/interview_scheme/interview_scheme_5.png"" class=""exp-image"">
                    <div class=""question-area"">
                        <p style=""font-size: 20px; font-weight: bold; margin: 0;"">Is there a person in this image?</p>
                    </div>
                </div>","0","main_experiment_trial","5","interview_scheme","schematic_sequence","","","","","","",""
"","","","","","html-keyboard-response","90","598088","0.0-90.0","76B7C9ED783E4A2EB3064083D23A5E14","019cedcd-80ef-7f8a-ae1e-210c7ba2925b","019cedc9-bfe1-7bb5-8857-de065a1e03dd","","null","
                <div class=""stimulus-container"">
                    <img src=""images/schematic_sequence/interview_scheme/interview_scheme_6.png"" class=""exp-image"">
                    <div class=""question-area""></div> 
                </div>","null","","","","","","","","","","",""
"","","","","","html-button-response","91","600377","0.0-91.0","76B7C9ED783E4A2EB3064083D23A5E14","019cedcd-80ef-7f8a-ae1e-210c7ba2925b","019cedc9-bfe1-7bb5-8857-de065a1e03dd","","2288","
                <div class=""stimulus-container"">
                    <img src=""images/schematic_sequence/interview_scheme/interview_scheme_6.png"" class=""exp-image"">
                    <div class=""question-area"">
                        <p style=""font-size: 20px; font-weight: bold; margin: 0;"">Is there a person in this image?</p>
                    </div>
                </div>","0","main_experiment_trial","6","interview_scheme","schematic_sequence","","","","","","",""
"","","","","","html-keyboard-response","92","605382","0.0-92.0","76B7C9ED783E4A2EB3064083D23A5E14","019cedcd-80ef-7f8a-ae1e-210c7ba2925b","019cedc9-bfe1-7bb5-8857-de065a1e03dd","","null","
                <div class=""stimulus-container"">
                    <img src=""images/schematic_sequence/interview_scheme/interview_scheme_7.png"" class=""exp-image"">
                    <div class=""question-area""></div> 
                </div>","null","","","","","","","","","","",""
"","","","","","html-button-response","93","606456","0.0-93.0","76B7C9ED783E4A2EB3064083D23A5E14","019cedcd-80ef-7f8a-ae1e-210c7ba2925b","019cedc9-bfe1-7bb5-8857-de065a1e03dd","","1072","
                <div class=""stimulus-container"">
                    <img src=""images/schematic_sequence/interview_scheme/interview_scheme_7.png"" class=""exp-image"">
                    <div class=""question-area"">
                        <p style=""font-size: 20px; font-weight: bold; margin: 0;"">Is there a person in this image?</p>
                    </div>
                </div>","0","main_experiment_trial","7","interview_scheme","schematic_sequence","","","","","","",""
"","","","","","html-keyboard-response","94","611459","0.0-94.0","76B7C9ED783E4A2EB3064083D23A5E14","019cedcd-80ef-7f8a-ae1e-210c7ba2925b","019cedc9-bfe1-7bb5-8857-de065a1e03dd","","null","
                <div class=""stimulus-container"">
                    <img src=""images/schematic_sequence/interview_scheme/interview_scheme_8.png"" class=""exp-image"">
                    <div class=""question-area""></div> 
                </div>","null","","","","","","","","","","",""
"","","","","","html-button-response","95","613306","0.0-95.0","76B7C9ED783E4A2EB3064083D23A5E14","019cedcd-80ef-7f8a-ae1e-210c7ba2925b","019cedc9-bfe1-7bb5-8857-de065a1e03dd","","1846","
                <div class=""stimulus-container"">
                    <img src=""images/schematic_sequence/interview_scheme/interview_scheme_8.png"" class=""exp-image"">
                    <div class=""question-area"">
                        <p style=""font-size: 20px; font-weight: bold; margin: 0;"">Is there a person in this image?</p>
                    </div>
                </div>","0","main_experiment_trial","8","interview_scheme","schematic_sequence","","","","","","",""
"","","","","","html-keyboard-response","96","618313","0.0-96.0","76B7C9ED783E4A2EB3064083D23A5E14","019cedcd-80ef-7f8a-ae1e-210c7ba2925b","019cedc9-bfe1-7bb5-8857-de065a1e03dd","","null","
                <div class=""stimulus-container"">
                    <img src=""images/schematic_sequence/interview_scheme/interview_scheme_9.png"" class=""exp-image"">
                    <div class=""question-area""></div> 
                </div>","null","","","","","","","","","","",""
"","","","","","html-button-response","97","619284","0.0-97.0","76B7C9ED783E4A2EB3064083D23A5E14","019cedcd-80ef-7f8a-ae1e-210c7ba2925b","019cedc9-bfe1-7bb5-8857-de065a1e03dd","","970","
                <div class=""stimulus-container"">
                    <img src=""images/schematic_sequence/interview_scheme/interview_scheme_9.png"" class=""exp-image"">
                    <div class=""question-area"">
                        <p style=""font-size: 20px; font-weight: bold; margin: 0;"">Is there a person in this image?</p>
                    </div>
                </div>","0","main_experiment_trial","9","interview_scheme","schematic_sequence","","","","","","",""
"","","","","","html-keyboard-response","98","624291","0.0-98.0","76B7C9ED783E4A2EB3064083D23A5E14","019cedcd-80ef-7f8a-ae1e-210c7ba2925b","019cedc9-bfe1-7bb5-8857-de065a1e03dd","","null","
                <div class=""stimulus-container"">
                    <img src=""images/schematic_sequence/interview_scheme/interview_scheme_ten.png"" class=""exp-image"">
                    <div class=""question-area""></div> 
                </div>","null","","","","","","","","","","",""
"","","","","","html-button-response","99","625936","0.0-99.0","76B7C9ED783E4A2EB3064083D23A5E14","019cedcd-80ef-7f8a-ae1e-210c7ba2925b","019cedc9-bfe1-7bb5-8857-de065a1e03dd","","1644","
                <div class=""stimulus-container"">
                    <img src=""images/schematic_sequence/interview_scheme/interview_scheme_ten.png"" class=""exp-image"">
                    <div class=""question-area"">
                        <p style=""font-size: 20px; font-weight: bold; margin: 0;"">Is there a person in this image?</p>
                    </div>
                </div>","0","main_experiment_trial","ten","interview_scheme","schematic_sequence","","","","","","",""
"","","","","","html-keyboard-response","100","626953","0.0-100.0","76B7C9ED783E4A2EB3064083D23A5E14","019cedcd-80ef-7f8a-ae1e-210c7ba2925b","019cedc9-bfe1-7bb5-8857-de065a1e03dd","","null","<div style=""background-color: white; width: 100vw; height: 100vh;""></div>","null","","","","","","","","","","",""
"","","","","","html-keyboard-response","101","631961","0.0-101.0","76B7C9ED783E4A2EB3064083D23A5E14","019cedcd-80ef-7f8a-ae1e-210c7ba2925b","019cedc9-bfe1-7bb5-8857-de065a1e03dd","","null","
                <div class=""stimulus-container"">
                    <img src=""images/causal_sequence/saving_a_cat_causal/saving_a_cat_causal_1.png"" class=""exp-image"">
                    <div class=""question-area""></div> 
                </div>","null","","","","","","","","","","",""
"","","","","","html-button-response","102","633175","0.0-102.0","76B7C9ED783E4A2EB3064083D23A5E14","019cedcd-80ef-7f8a-ae1e-210c7ba2925b","019cedc9-bfe1-7bb5-8857-de065a1e03dd","","1214","
                <div class=""stimulus-container"">
                    <img src=""images/causal_sequence/saving_a_cat_causal/saving_a_cat_causal_1.png"" class=""exp-image"">
                    <div class=""question-area"">
                        <p style=""font-size: 20px; font-weight: bold; margin: 0;"">Is there a person in this image?</p>
                    </div>
                </div>","0","main_experiment_trial","1","saving_a_cat_causal","causal_sequence","","","","","","",""
"","","","","","html-keyboard-response","103","638190","0.0-103.0","76B7C9ED783E4A2EB3064083D23A5E14","019cedcd-80ef-7f8a-ae1e-210c7ba2925b","019cedc9-bfe1-7bb5-8857-de065a1e03dd","","null","
                <div class=""stimulus-container"">
                    <img src=""images/causal_sequence/saving_a_cat_causal/saving_a_cat_causal_2.png"" class=""exp-image"">
                    <div class=""question-area""></div> 
                </div>","null","","","","","","","","","","",""
"","","","","","html-button-response","104","639560","0.0-104.0","76B7C9ED783E4A2EB3064083D23A5E14","019cedcd-80ef-7f8a-ae1e-210c7ba2925b","019cedc9-bfe1-7bb5-8857-de065a1e03dd","","1369","
                <div class=""stimulus-container"">
                    <img src=""images/causal_sequence/saving_a_cat_causal/saving_a_cat_causal_2.png"" class=""exp-image"">
                    <div class=""question-area"">
                        <p style=""font-size: 20px; font-weight: bold; margin: 0;"">Is there a person in this image?</p>
                    </div>
                </div>","1","main_experiment_trial","2","saving_a_cat_causal","causal_sequence","","","","","","",""
"","","","","","html-keyboard-response","105","644565","0.0-105.0","76B7C9ED783E4A2EB3064083D23A5E14","019cedcd-80ef-7f8a-ae1e-210c7ba2925b","019cedc9-bfe1-7bb5-8857-de065a1e03dd","","null","
                <div class=""stimulus-container"">
                    <img src=""images/causal_sequence/saving_a_cat_causal/saving_a_cat_causal_3.png"" class=""exp-image"">
                    <div class=""question-area""></div> 
                </div>","null","","","","","","","","","","",""
"","","","","","html-button-response","106","646285","0.0-106.0","76B7C9ED783E4A2EB3064083D23A5E14","019cedcd-80ef-7f8a-ae1e-210c7ba2925b","019cedc9-bfe1-7bb5-8857-de065a1e03dd","","1719","
                <div class=""stimulus-container"">
                    <img src=""images/causal_sequence/saving_a_cat_causal/saving_a_cat_causal_3.png"" class=""exp-image"">
                    <div class=""question-area"">
                        <p style=""font-size: 20px; font-weight: bold; margin: 0;"">Is there a person in this image?</p>
                    </div>
                </div>","1","main_experiment_trial","3","saving_a_cat_causal","causal_sequence","","","","","","",""
"","","","","","html-keyboard-response","107","651295","0.0-107.0","76B7C9ED783E4A2EB3064083D23A5E14","019cedcd-80ef-7f8a-ae1e-210c7ba2925b","019cedc9-bfe1-7bb5-8857-de065a1e03dd","","null","
                <div class=""stimulus-container"">
                    <img src=""images/causal_sequence/saving_a_cat_causal/saving_a_cat_causal_4.png"" class=""exp-image"">
                    <div class=""question-area""></div> 
                </div>","null","","","","","","","","","","",""
"","","","","","html-button-response","108","652772","0.0-108.0","76B7C9ED783E4A2EB3064083D23A5E14","019cedcd-80ef-7f8a-ae1e-210c7ba2925b","019cedc9-bfe1-7bb5-8857-de065a1e03dd","","1476","
                <div class=""stimulus-container"">
                    <img src=""images/causal_sequence/saving_a_cat_causal/saving_a_cat_causal_4.png"" class=""exp-image"">
                    <div class=""question-area"">
                        <p style=""font-size: 20px; font-weight: bold; margin: 0;"">Is there a person in this image?</p>
                    </div>
                </div>","0","main_experiment_trial","4","saving_a_cat_causal","causal_sequence","","","","","","",""
"","","","","","html-keyboard-response","109","657783","0.0-109.0","76B7C9ED783E4A2EB3064083D23A5E14","019cedcd-80ef-7f8a-ae1e-210c7ba2925b","019cedc9-bfe1-7bb5-8857-de065a1e03dd","","null","
                <div class=""stimulus-container"">
                    <img src=""images/causal_sequence/saving_a_cat_causal/saving_a_cat_causal_5.png"" class=""exp-image"">
                    <div class=""question-area""></div> 
                </div>","null","","","","","","","","","","",""
"","","","","","html-button-response","110","658944","0.0-110.0","76B7C9ED783E4A2EB3064083D23A5E14","019cedcd-80ef-7f8a-ae1e-210c7ba2925b","019cedc9-bfe1-7bb5-8857-de065a1e03dd","","1160","
                <div class=""stimulus-container"">
                    <img src=""images/causal_sequence/saving_a_cat_causal/saving_a_cat_causal_5.png"" class=""exp-image"">
                    <div class=""question-area"">
                        <p style=""font-size: 20px; font-weight: bold; margin: 0;"">Is there a person in this image?</p>
                    </div>
                </div>","0","main_experiment_trial","5","saving_a_cat_causal","causal_sequence","","","","","","",""
"","","","","","html-keyboard-response","111","663953","0.0-111.0","76B7C9ED783E4A2EB3064083D23A5E14","019cedcd-80ef-7f8a-ae1e-210c7ba2925b","019cedc9-bfe1-7bb5-8857-de065a1e03dd","","null","
                <div class=""stimulus-container"">
                    <img src=""images/causal_sequence/saving_a_cat_causal/saving_a_cat_causal_6.png"" class=""exp-image"">
                    <div class=""question-area""></div> 
                </div>","null","","","","","","","","","","",""
"","","","","","html-button-response","112","664985","0.0-112.0","76B7C9ED783E4A2EB3064083D23A5E14","019cedcd-80ef-7f8a-ae1e-210c7ba2925b","019cedc9-bfe1-7bb5-8857-de065a1e03dd","","1031","
                <div class=""stimulus-container"">
                    <img src=""images/causal_sequence/saving_a_cat_causal/saving_a_cat_causal_6.png"" class=""exp-image"">
                    <div class=""question-area"">
                        <p style=""font-size: 20px; font-weight: bold; margin: 0;"">Is there a person in this image?</p>
                    </div>
                </div>","0","main_experiment_trial","6","saving_a_cat_causal","causal_sequence","","","","","","",""
"","","","","","html-keyboard-response","113","669987","0.0-113.0","76B7C9ED783E4A2EB3064083D23A5E14","019cedcd-80ef-7f8a-ae1e-210c7ba2925b","019cedc9-bfe1-7bb5-8857-de065a1e03dd","","null","
                <div class=""stimulus-container"">
                    <img src=""images/causal_sequence/saving_a_cat_causal/saving_a_cat_causal_7.png"" class=""exp-image"">
                    <div class=""question-area""></div> 
                </div>","null","","","","","","","","","","",""
"","","","","","html-button-response","114","671013","0.0-114.0","76B7C9ED783E4A2EB3064083D23A5E14","019cedcd-80ef-7f8a-ae1e-210c7ba2925b","019cedc9-bfe1-7bb5-8857-de065a1e03dd","","1025","
                <div class=""stimulus-container"">
                    <img src=""images/causal_sequence/saving_a_cat_causal/saving_a_cat_causal_7.png"" class=""exp-image"">
                    <div class=""question-area"">
                        <p style=""font-size: 20px; font-weight: bold; margin: 0;"">Is there a person in this image?</p>
                    </div>
                </div>","0","main_experiment_trial","7","saving_a_cat_causal","causal_sequence","","","","","","",""
"","","","","","html-keyboard-response","115","676028","0.0-115.0","76B7C9ED783E4A2EB3064083D23A5E14","019cedcd-80ef-7f8a-ae1e-210c7ba2925b","019cedc9-bfe1-7bb5-8857-de065a1e03dd","","null","
                <div class=""stimulus-container"">
                    <img src=""images/causal_sequence/saving_a_cat_causal/saving_a_cat_causal_8.png"" class=""exp-image"">
                    <div class=""question-area""></div> 
                </div>","null","","","","","","","","","","",""
"","","","","","html-button-response","116","677291","0.0-116.0","76B7C9ED783E4A2EB3064083D23A5E14","019cedcd-80ef-7f8a-ae1e-210c7ba2925b","019cedc9-bfe1-7bb5-8857-de065a1e03dd","","1262","
                <div class=""stimulus-container"">
                    <img src=""images/causal_sequence/saving_a_cat_causal/saving_a_cat_causal_8.png"" class=""exp-image"">
                    <div class=""question-area"">
                        <p style=""font-size: 20px; font-weight: bold; margin: 0;"">Is there a person in this image?</p>
                    </div>
                </div>","0","main_experiment_trial","8","saving_a_cat_causal","causal_sequence","","","","","","",""
"","","","","","html-keyboard-response","117","682294","0.0-117.0","76B7C9ED783E4A2EB3064083D23A5E14","019cedcd-80ef-7f8a-ae1e-210c7ba2925b","019cedc9-bfe1-7bb5-8857-de065a1e03dd","","null","
                <div class=""stimulus-container"">
                    <img src=""images/causal_sequence/saving_a_cat_causal/saving_a_cat_causal_9.png"" class=""exp-image"">
                    <div class=""question-area""></div> 
                </div>","null","","","","","","","","","","",""
"","","","","","html-button-response","118","683178","0.0-118.0","76B7C9ED783E4A2EB3064083D23A5E14","019cedcd-80ef-7f8a-ae1e-210c7ba2925b","019cedc9-bfe1-7bb5-8857-de065a1e03dd","","883","
                <div class=""stimulus-container"">
                    <img src=""images/causal_sequence/saving_a_cat_causal/saving_a_cat_causal_9.png"" class=""exp-image"">
                    <div class=""question-area"">
                        <p style=""font-size: 20px; font-weight: bold; margin: 0;"">Is there a person in this image?</p>
                    </div>
                </div>","0","main_experiment_trial","9","saving_a_cat_causal","causal_sequence","","","","","","",""
"","","","","","html-keyboard-response","119","688192","0.0-119.0","76B7C9ED783E4A2EB3064083D23A5E14","019cedcd-80ef-7f8a-ae1e-210c7ba2925b","019cedc9-bfe1-7bb5-8857-de065a1e03dd","","null","
                <div class=""stimulus-container"">
                    <img src=""images/causal_sequence/saving_a_cat_causal/saving_a_cat_causal_ten.png"" class=""exp-image"">
                    <div class=""question-area""></div> 
                </div>","null","","","","","","","","","","",""
"","","","","","html-button-response","120","689188","0.0-120.0","76B7C9ED783E4A2EB3064083D23A5E14","019cedcd-80ef-7f8a-ae1e-210c7ba2925b","019cedc9-bfe1-7bb5-8857-de065a1e03dd","","995","
                <div class=""stimulus-container"">
                    <img src=""images/causal_sequence/saving_a_cat_causal/saving_a_cat_causal_ten.png"" class=""exp-image"">
                    <div class=""question-area"">
                        <p style=""font-size: 20px; font-weight: bold; margin: 0;"">Is there a person in this image?</p>
                    </div>
                </div>","0","main_experiment_trial","ten","saving_a_cat_causal","causal_sequence","","","","","","",""
"","","","","","html-keyboard-response","121","690203","0.0-121.0","76B7C9ED783E4A2EB3064083D23A5E14","019cedcd-80ef-7f8a-ae1e-210c7ba2925b","019cedc9-bfe1-7bb5-8857-de065a1e03dd","","null","<div style=""background-color: white; width: 100vw; height: 100vh;""></div>","null","","","","","","","","","","",""
"","","","","","html-keyboard-response","122","695210","0.0-122.0","76B7C9ED783E4A2EB3064083D23A5E14","019cedcd-80ef-7f8a-ae1e-210c7ba2925b","019cedc9-bfe1-7bb5-8857-de065a1e03dd","","null","
                <div class=""stimulus-container"">
                    <img src=""images/causal_sequence/museum_causal/museum_causal_1.png"" class=""exp-image"">
                    <div class=""question-area""></div> 
                </div>","null","","","","","","","","","","",""
"","","","","","html-button-response","123","696147","0.0-123.0","76B7C9ED783E4A2EB3064083D23A5E14","019cedcd-80ef-7f8a-ae1e-210c7ba2925b","019cedc9-bfe1-7bb5-8857-de065a1e03dd","","936","
                <div class=""stimulus-container"">
                    <img src=""images/causal_sequence/museum_causal/museum_causal_1.png"" class=""exp-image"">
                    <div class=""question-area"">
                        <p style=""font-size: 20px; font-weight: bold; margin: 0;"">Is there a person in this image?</p>
                    </div>
                </div>","0","main_experiment_trial","1","museum_causal","causal_sequence","","","","","","",""
"","","","","","html-keyboard-response","124","701157","0.0-124.0","76B7C9ED783E4A2EB3064083D23A5E14","019cedcd-80ef-7f8a-ae1e-210c7ba2925b","019cedc9-bfe1-7bb5-8857-de065a1e03dd","","null","
                <div class=""stimulus-container"">
                    <img src=""images/causal_sequence/museum_causal/museum_causal_2.png"" class=""exp-image"">
                    <div class=""question-area""></div> 
                </div>","null","","","","","","","","","","",""
"","","","","","html-button-response","125","703377","0.0-125.0","76B7C9ED783E4A2EB3064083D23A5E14","019cedcd-80ef-7f8a-ae1e-210c7ba2925b","019cedc9-bfe1-7bb5-8857-de065a1e03dd","","2219","
                <div class=""stimulus-container"">
                    <img src=""images/causal_sequence/museum_causal/museum_causal_2.png"" class=""exp-image"">
                    <div class=""question-area"">
                        <p style=""font-size: 20px; font-weight: bold; margin: 0;"">Is there a person in this image?</p>
                    </div>
                </div>","1","main_experiment_trial","2","museum_causal","causal_sequence","","","","","","",""
"","","","","","html-keyboard-response","126","708389","0.0-126.0","76B7C9ED783E4A2EB3064083D23A5E14","019cedcd-80ef-7f8a-ae1e-210c7ba2925b","019cedc9-bfe1-7bb5-8857-de065a1e03dd","","null","
                <div class=""stimulus-container"">
                    <img src=""images/causal_sequence/museum_causal/museum_causal_3.png"" class=""exp-image"">
                    <div class=""question-area""></div> 
                </div>","null","","","","","","","","","","",""
"","","","","","html-button-response","127","709406","0.0-127.0","76B7C9ED783E4A2EB3064083D23A5E14","019cedcd-80ef-7f8a-ae1e-210c7ba2925b","019cedc9-bfe1-7bb5-8857-de065a1e03dd","","1016","
                <div class=""stimulus-container"">
                    <img src=""images/causal_sequence/museum_causal/museum_causal_3.png"" class=""exp-image"">
                    <div class=""question-area"">
                        <p style=""font-size: 20px; font-weight: bold; margin: 0;"">Is there a person in this image?</p>
                    </div>
                </div>","1","main_experiment_trial","3","museum_causal","causal_sequence","","","","","","",""
"","","","","","html-keyboard-response","128","714415","0.0-128.0","76B7C9ED783E4A2EB3064083D23A5E14","019cedcd-80ef-7f8a-ae1e-210c7ba2925b","019cedc9-bfe1-7bb5-8857-de065a1e03dd","","null","
                <div class=""stimulus-container"">
                    <img src=""images/causal_sequence/museum_causal/museum_causal_4.png"" class=""exp-image"">
                    <div class=""question-area""></div> 
                </div>","null","","","","","","","","","","",""
"","","","","","html-button-response","129","715524","0.0-129.0","76B7C9ED783E4A2EB3064083D23A5E14","019cedcd-80ef-7f8a-ae1e-210c7ba2925b","019cedc9-bfe1-7bb5-8857-de065a1e03dd","","1108","
                <div class=""stimulus-container"">
                    <img src=""images/causal_sequence/museum_causal/museum_causal_4.png"" class=""exp-image"">
                    <div class=""question-area"">
                        <p style=""font-size: 20px; font-weight: bold; margin: 0;"">Is there a person in this image?</p>
                    </div>
                </div>","1","main_experiment_trial","4","museum_causal","causal_sequence","","","","","","",""
"","","","","","html-keyboard-response","130","720536","0.0-130.0","76B7C9ED783E4A2EB3064083D23A5E14","019cedcd-80ef-7f8a-ae1e-210c7ba2925b","019cedc9-bfe1-7bb5-8857-de065a1e03dd","","null","
                <div class=""stimulus-container"">
                    <img src=""images/causal_sequence/museum_causal/museum_causal_5.png"" class=""exp-image"">
                    <div class=""question-area""></div> 
                </div>","null","","","","","","","","","","",""
"","","","","","html-button-response","131","721675","0.0-131.0","76B7C9ED783E4A2EB3064083D23A5E14","019cedcd-80ef-7f8a-ae1e-210c7ba2925b","019cedc9-bfe1-7bb5-8857-de065a1e03dd","","1139","
                <div class=""stimulus-container"">
                    <img src=""images/causal_sequence/museum_causal/museum_causal_5.png"" class=""exp-image"">
                    <div class=""question-area"">
                        <p style=""font-size: 20px; font-weight: bold; margin: 0;"">Is there a person in this image?</p>
                    </div>
                </div>","0","main_experiment_trial","5","museum_causal","causal_sequence","","","","","","",""
"","","","","","html-keyboard-response","132","726687","0.0-132.0","76B7C9ED783E4A2EB3064083D23A5E14","019cedcd-80ef-7f8a-ae1e-210c7ba2925b","019cedc9-bfe1-7bb5-8857-de065a1e03dd","","null","
                <div class=""stimulus-container"">
                    <img src=""images/causal_sequence/museum_causal/museum_causal_6.png"" class=""exp-image"">
                    <div class=""question-area""></div> 
                </div>","null","","","","","","","","","","",""
"","","","","","html-button-response","133","727680","0.0-133.0","76B7C9ED783E4A2EB3064083D23A5E14","019cedcd-80ef-7f8a-ae1e-210c7ba2925b","019cedc9-bfe1-7bb5-8857-de065a1e03dd","","992","
                <div class=""stimulus-container"">
                    <img src=""images/causal_sequence/museum_causal/museum_causal_6.png"" class=""exp-image"">
                    <div class=""question-area"">
                        <p style=""font-size: 20px; font-weight: bold; margin: 0;"">Is there a person in this image?</p>
                    </div>
                </div>","0","main_experiment_trial","6","museum_causal","causal_sequence","","","","","","",""
"","","","","","html-keyboard-response","134","732682","0.0-134.0","76B7C9ED783E4A2EB3064083D23A5E14","019cedcd-80ef-7f8a-ae1e-210c7ba2925b","019cedc9-bfe1-7bb5-8857-de065a1e03dd","","null","
                <div class=""stimulus-container"">
                    <img src=""images/causal_sequence/museum_causal/museum_causal_7.png"" class=""exp-image"">
                    <div class=""question-area""></div> 
                </div>","null","","","","","","","","","","",""
"","","","","","html-button-response","135","734564","0.0-135.0","76B7C9ED783E4A2EB3064083D23A5E14","019cedcd-80ef-7f8a-ae1e-210c7ba2925b","019cedc9-bfe1-7bb5-8857-de065a1e03dd","","1881","
                <div class=""stimulus-container"">
                    <img src=""images/causal_sequence/museum_causal/museum_causal_7.png"" class=""exp-image"">
                    <div class=""question-area"">
                        <p style=""font-size: 20px; font-weight: bold; margin: 0;"">Is there a person in this image?</p>
                    </div>
                </div>","1","main_experiment_trial","7","museum_causal","causal_sequence","","","","","","",""
"","","","","","html-keyboard-response","136","739577","0.0-136.0","76B7C9ED783E4A2EB3064083D23A5E14","019cedcd-80ef-7f8a-ae1e-210c7ba2925b","019cedc9-bfe1-7bb5-8857-de065a1e03dd","","null","
                <div class=""stimulus-container"">
                    <img src=""images/causal_sequence/museum_causal/museum_causal_8.png"" class=""exp-image"">
                    <div class=""question-area""></div> 
                </div>","null","","","","","","","","","","",""
"","","","","","html-button-response","137","740795","0.0-137.0","76B7C9ED783E4A2EB3064083D23A5E14","019cedcd-80ef-7f8a-ae1e-210c7ba2925b","019cedc9-bfe1-7bb5-8857-de065a1e03dd","","1217","
                <div class=""stimulus-container"">
                    <img src=""images/causal_sequence/museum_causal/museum_causal_8.png"" class=""exp-image"">
                    <div class=""question-area"">
                        <p style=""font-size: 20px; font-weight: bold; margin: 0;"">Is there a person in this image?</p>
                    </div>
                </div>","0","main_experiment_trial","8","museum_causal","causal_sequence","","","","","","",""
"","","","","","html-keyboard-response","138","745796","0.0-138.0","76B7C9ED783E4A2EB3064083D23A5E14","019cedcd-80ef-7f8a-ae1e-210c7ba2925b","019cedc9-bfe1-7bb5-8857-de065a1e03dd","","null","
                <div class=""stimulus-container"">
                    <img src=""images/causal_sequence/museum_causal/museum_causal_9.png"" class=""exp-image"">
                    <div class=""question-area""></div> 
                </div>","null","","","","","","","","","","",""
"","","","","","html-button-response","139","747189","0.0-139.0","76B7C9ED783E4A2EB3064083D23A5E14","019cedcd-80ef-7f8a-ae1e-210c7ba2925b","019cedc9-bfe1-7bb5-8857-de065a1e03dd","","1391","
                <div class=""stimulus-container"">
                    <img src=""images/causal_sequence/museum_causal/museum_causal_9.png"" class=""exp-image"">
                    <div class=""question-area"">
                        <p style=""font-size: 20px; font-weight: bold; margin: 0;"">Is there a person in this image?</p>
                    </div>
                </div>","1","main_experiment_trial","9","museum_causal","causal_sequence","","","","","","",""
"","","","","","html-keyboard-response","140","752192","0.0-140.0","76B7C9ED783E4A2EB3064083D23A5E14","019cedcd-80ef-7f8a-ae1e-210c7ba2925b","019cedc9-bfe1-7bb5-8857-de065a1e03dd","","null","
                <div class=""stimulus-container"">
                    <img src=""images/causal_sequence/museum_causal/museum_causal_ten.png"" class=""exp-image"">
                    <div class=""question-area""></div> 
                </div>","null","","","","","","","","","","",""
"","","","","","html-button-response","141","753597","0.0-141.0","76B7C9ED783E4A2EB3064083D23A5E14","019cedcd-80ef-7f8a-ae1e-210c7ba2925b","019cedc9-bfe1-7bb5-8857-de065a1e03dd","","1404","
                <div class=""stimulus-container"">
                    <img src=""images/causal_sequence/museum_causal/museum_causal_ten.png"" class=""exp-image"">
                    <div class=""question-area"">
                        <p style=""font-size: 20px; font-weight: bold; margin: 0;"">Is there a person in this image?</p>
                    </div>
                </div>","0","main_experiment_trial","ten","museum_causal","causal_sequence","","","","","","",""
"","","","","","html-keyboard-response","142","754610","0.0-142.0","76B7C9ED783E4A2EB3064083D23A5E14","019cedcd-80ef-7f8a-ae1e-210c7ba2925b","019cedc9-bfe1-7bb5-8857-de065a1e03dd","","null","<div style=""background-color: white; width: 100vw; height: 100vh;""></div>","null","","","","","","","","","","",""
"","","","","","html-keyboard-response","143","759625","0.0-143.0","76B7C9ED783E4A2EB3064083D23A5E14","019cedcd-80ef-7f8a-ae1e-210c7ba2925b","019cedc9-bfe1-7bb5-8857-de065a1e03dd","","null","
                <div class=""stimulus-container"">
                    <img src=""images/causal_sequence/coin_causal/coin_causal_1.png"" class=""exp-image"">
                    <div class=""question-area""></div> 
                </div>","null","","","","","","","","","","",""
"","","","","","html-button-response","144","760535","0.0-144.0","76B7C9ED783E4A2EB3064083D23A5E14","019cedcd-80ef-7f8a-ae1e-210c7ba2925b","019cedc9-bfe1-7bb5-8857-de065a1e03dd","","909","
                <div class=""stimulus-container"">
                    <img src=""images/causal_sequence/coin_causal/coin_causal_1.png"" class=""exp-image"">
                    <div class=""question-area"">
                        <p style=""font-size: 20px; font-weight: bold; margin: 0;"">Is there a person in this image?</p>
                    </div>
                </div>","0","main_experiment_trial","1","coin_causal","causal_sequence","","","","","","",""
"","","","","","html-keyboard-response","145","765536","0.0-145.0","76B7C9ED783E4A2EB3064083D23A5E14","019cedcd-80ef-7f8a-ae1e-210c7ba2925b","019cedc9-bfe1-7bb5-8857-de065a1e03dd","","null","
                <div class=""stimulus-container"">
                    <img src=""images/causal_sequence/coin_causal/coin_causal_2.png"" class=""exp-image"">
                    <div class=""question-area""></div> 
                </div>","null","","","","","","","","","","",""
"","","","","","html-button-response","146","766420","0.0-146.0","76B7C9ED783E4A2EB3064083D23A5E14","019cedcd-80ef-7f8a-ae1e-210c7ba2925b","019cedc9-bfe1-7bb5-8857-de065a1e03dd","","884","
                <div class=""stimulus-container"">
                    <img src=""images/causal_sequence/coin_causal/coin_causal_2.png"" class=""exp-image"">
                    <div class=""question-area"">
                        <p style=""font-size: 20px; font-weight: bold; margin: 0;"">Is there a person in this image?</p>
                    </div>
                </div>","0","main_experiment_trial","2","coin_causal","causal_sequence","","","","","","",""
"","","","","","html-keyboard-response","147","771425","0.0-147.0","76B7C9ED783E4A2EB3064083D23A5E14","019cedcd-80ef-7f8a-ae1e-210c7ba2925b","019cedc9-bfe1-7bb5-8857-de065a1e03dd","","null","
                <div class=""stimulus-container"">
                    <img src=""images/causal_sequence/coin_causal/coin_causal_3.png"" class=""exp-image"">
                    <div class=""question-area""></div> 
                </div>","null","","","","","","","","","","",""
"","","","","","html-button-response","148","772321","0.0-148.0","76B7C9ED783E4A2EB3064083D23A5E14","019cedcd-80ef-7f8a-ae1e-210c7ba2925b","019cedc9-bfe1-7bb5-8857-de065a1e03dd","","895","
                <div class=""stimulus-container"">
                    <img src=""images/causal_sequence/coin_causal/coin_causal_3.png"" class=""exp-image"">
                    <div class=""question-area"">
                        <p style=""font-size: 20px; font-weight: bold; margin: 0;"">Is there a person in this image?</p>
                    </div>
                </div>","0","main_experiment_trial","3","coin_causal","causal_sequence","","","","","","",""
"","","","","","html-keyboard-response","149","777333","0.0-149.0","76B7C9ED783E4A2EB3064083D23A5E14","019cedcd-80ef-7f8a-ae1e-210c7ba2925b","019cedc9-bfe1-7bb5-8857-de065a1e03dd","","null","
                <div class=""stimulus-container"">
                    <img src=""images/causal_sequence/coin_causal/coin_causal_4.png"" class=""exp-image"">
                    <div class=""question-area""></div> 
                </div>","null","","","","","","","","","","",""
"","","","","","html-button-response","150","778166","0.0-150.0","76B7C9ED783E4A2EB3064083D23A5E14","019cedcd-80ef-7f8a-ae1e-210c7ba2925b","019cedc9-bfe1-7bb5-8857-de065a1e03dd","","832","
                <div class=""stimulus-container"">
                    <img src=""images/causal_sequence/coin_causal/coin_causal_4.png"" class=""exp-image"">
                    <div class=""question-area"">
                        <p style=""font-size: 20px; font-weight: bold; margin: 0;"">Is there a person in this image?</p>
                    </div>
                </div>","0","main_experiment_trial","4","coin_causal","causal_sequence","","","","","","",""
"","","","","","html-keyboard-response","151","783170","0.0-151.0","76B7C9ED783E4A2EB3064083D23A5E14","019cedcd-80ef-7f8a-ae1e-210c7ba2925b","019cedc9-bfe1-7bb5-8857-de065a1e03dd","","null","
                <div class=""stimulus-container"">
                    <img src=""images/causal_sequence/coin_causal/coin_causal_5.png"" class=""exp-image"">
                    <div class=""question-area""></div> 
                </div>","null","","","","","","","","","","",""
"","","","","","html-button-response","152","784148","0.0-152.0","76B7C9ED783E4A2EB3064083D23A5E14","019cedcd-80ef-7f8a-ae1e-210c7ba2925b","019cedc9-bfe1-7bb5-8857-de065a1e03dd","","978","
                <div class=""stimulus-container"">
                    <img src=""images/causal_sequence/coin_causal/coin_causal_5.png"" class=""exp-image"">
                    <div class=""question-area"">
                        <p style=""font-size: 20px; font-weight: bold; margin: 0;"">Is there a person in this image?</p>
                    </div>
                </div>","0","main_experiment_trial","5","coin_causal","causal_sequence","","","","","","",""
"","","","","","html-keyboard-response","153","789164","0.0-153.0","76B7C9ED783E4A2EB3064083D23A5E14","019cedcd-80ef-7f8a-ae1e-210c7ba2925b","019cedc9-bfe1-7bb5-8857-de065a1e03dd","","null","
                <div class=""stimulus-container"">
                    <img src=""images/causal_sequence/coin_causal/coin_causal_6.png"" class=""exp-image"">
                    <div class=""question-area""></div> 
                </div>","null","","","","","","","","","","",""
"","","","","","html-button-response","154","790031","0.0-154.0","76B7C9ED783E4A2EB3064083D23A5E14","019cedcd-80ef-7f8a-ae1e-210c7ba2925b","019cedc9-bfe1-7bb5-8857-de065a1e03dd","","866","
                <div class=""stimulus-container"">
                    <img src=""images/causal_sequence/coin_causal/coin_causal_6.png"" class=""exp-image"">
                    <div class=""question-area"">
                        <p style=""font-size: 20px; font-weight: bold; margin: 0;"">Is there a person in this image?</p>
                    </div>
                </div>","0","main_experiment_trial","6","coin_causal","causal_sequence","","","","","","",""
"","","","","","html-keyboard-response","155","795040","0.0-155.0","76B7C9ED783E4A2EB3064083D23A5E14","019cedcd-80ef-7f8a-ae1e-210c7ba2925b","019cedc9-bfe1-7bb5-8857-de065a1e03dd","","null","
                <div class=""stimulus-container"">
                    <img src=""images/causal_sequence/coin_causal/coin_causal_7.png"" class=""exp-image"">
                    <div class=""question-area""></div> 
                </div>","null","","","","","","","","","","",""
"","","","","","html-button-response","156","796344","0.0-156.0","76B7C9ED783E4A2EB3064083D23A5E14","019cedcd-80ef-7f8a-ae1e-210c7ba2925b","019cedc9-bfe1-7bb5-8857-de065a1e03dd","","1303","
                <div class=""stimulus-container"">
                    <img src=""images/causal_sequence/coin_causal/coin_causal_7.png"" class=""exp-image"">
                    <div class=""question-area"">
                        <p style=""font-size: 20px; font-weight: bold; margin: 0;"">Is there a person in this image?</p>
                    </div>
                </div>","1","main_experiment_trial","7","coin_causal","causal_sequence","","","","","","",""
"","","","","","html-keyboard-response","157","801353","0.0-157.0","76B7C9ED783E4A2EB3064083D23A5E14","019cedcd-80ef-7f8a-ae1e-210c7ba2925b","019cedc9-bfe1-7bb5-8857-de065a1e03dd","","null","
                <div class=""stimulus-container"">
                    <img src=""images/causal_sequence/coin_causal/coin_causal_8.png"" class=""exp-image"">
                    <div class=""question-area""></div> 
                </div>","null","","","","","","","","","","",""
"","","","","","html-button-response","158","802611","0.0-158.0","76B7C9ED783E4A2EB3064083D23A5E14","019cedcd-80ef-7f8a-ae1e-210c7ba2925b","019cedc9-bfe1-7bb5-8857-de065a1e03dd","","1258","
                <div class=""stimulus-container"">
                    <img src=""images/causal_sequence/coin_causal/coin_causal_8.png"" class=""exp-image"">
                    <div class=""question-area"">
                        <p style=""font-size: 20px; font-weight: bold; margin: 0;"">Is there a person in this image?</p>
                    </div>
                </div>","0","main_experiment_trial","8","coin_causal","causal_sequence","","","","","","",""
"","","","","","html-keyboard-response","159","807618","0.0-159.0","76B7C9ED783E4A2EB3064083D23A5E14","019cedcd-80ef-7f8a-ae1e-210c7ba2925b","019cedc9-bfe1-7bb5-8857-de065a1e03dd","","null","
                <div class=""stimulus-container"">
                    <img src=""images/causal_sequence/coin_causal/coin_causal_9.png"" class=""exp-image"">
                    <div class=""question-area""></div> 
                </div>","null","","","","","","","","","","",""
"","","","","","html-button-response","160","808521","0.0-160.0","76B7C9ED783E4A2EB3064083D23A5E14","019cedcd-80ef-7f8a-ae1e-210c7ba2925b","019cedc9-bfe1-7bb5-8857-de065a1e03dd","","901","
                <div class=""stimulus-container"">
                    <img src=""images/causal_sequence/coin_causal/coin_causal_9.png"" class=""exp-image"">
                    <div class=""question-area"">
                        <p style=""font-size: 20px; font-weight: bold; margin: 0;"">Is there a person in this image?</p>
                    </div>
                </div>","0","main_experiment_trial","9","coin_causal","causal_sequence","","","","","","",""
"","","","","","html-keyboard-response","161","813527","0.0-161.0","76B7C9ED783E4A2EB3064083D23A5E14","019cedcd-80ef-7f8a-ae1e-210c7ba2925b","019cedc9-bfe1-7bb5-8857-de065a1e03dd","","null","
                <div class=""stimulus-container"">
                    <img src=""images/causal_sequence/coin_causal/coin_causal_ten.png"" class=""exp-image"">
                    <div class=""question-area""></div> 
                </div>","null","","","","","","","","","","",""
"","","","","","html-button-response","162","815134","0.0-162.0","76B7C9ED783E4A2EB3064083D23A5E14","019cedcd-80ef-7f8a-ae1e-210c7ba2925b","019cedc9-bfe1-7bb5-8857-de065a1e03dd","","1606","
                <div class=""stimulus-container"">
                    <img src=""images/causal_sequence/coin_causal/coin_causal_ten.png"" class=""exp-image"">
                    <div class=""question-area"">
                        <p style=""font-size: 20px; font-weight: bold; margin: 0;"">Is there a person in this image?</p>
                    </div>
                </div>","0","main_experiment_trial","ten","coin_causal","causal_sequence","","","","","","",""
"","","","","","html-keyboard-response","163","816142","0.0-163.0","76B7C9ED783E4A2EB3064083D23A5E14","019cedcd-80ef-7f8a-ae1e-210c7ba2925b","019cedc9-bfe1-7bb5-8857-de065a1e03dd","","null","<div style=""background-color: white; width: 100vw; height: 100vh;""></div>","null","","","","","","","","","","",""
"","","","","","html-keyboard-response","164","821156","0.0-164.0","76B7C9ED783E4A2EB3064083D23A5E14","019cedcd-80ef-7f8a-ae1e-210c7ba2925b","019cedc9-bfe1-7bb5-8857-de065a1e03dd","","null","
                <div class=""stimulus-container"">
                    <img src=""images/schematic_sequence/supermarket_scheme/supermarket_scheme_1.png"" class=""exp-image"">
                    <div class=""question-area""></div> 
                </div>","null","","","","","","","","","","",""
"","","","","","html-button-response","165","822558","0.0-165.0","76B7C9ED783E4A2EB3064083D23A5E14","019cedcd-80ef-7f8a-ae1e-210c7ba2925b","019cedc9-bfe1-7bb5-8857-de065a1e03dd","","1401","
                <div class=""stimulus-container"">
                    <img src=""images/schematic_sequence/supermarket_scheme/supermarket_scheme_1.png"" class=""exp-image"">
                    <div class=""question-area"">
                        <p style=""font-size: 20px; font-weight: bold; margin: 0;"">Is there a person in this image?</p>
                    </div>
                </div>","1","main_experiment_trial","1","supermarket_scheme","schematic_sequence","","","","","","",""
"","","","","","html-keyboard-response","166","827571","0.0-166.0","76B7C9ED783E4A2EB3064083D23A5E14","019cedcd-80ef-7f8a-ae1e-210c7ba2925b","019cedc9-bfe1-7bb5-8857-de065a1e03dd","","null","
                <div class=""stimulus-container"">
                    <img src=""images/schematic_sequence/supermarket_scheme/supermarket_scheme_2.png"" class=""exp-image"">
                    <div class=""question-area""></div> 
                </div>","null","","","","","","","","","","",""
"","","","","","html-button-response","167","828570","0.0-167.0","76B7C9ED783E4A2EB3064083D23A5E14","019cedcd-80ef-7f8a-ae1e-210c7ba2925b","019cedc9-bfe1-7bb5-8857-de065a1e03dd","","998","
                <div class=""stimulus-container"">
                    <img src=""images/schematic_sequence/supermarket_scheme/supermarket_scheme_2.png"" class=""exp-image"">
                    <div class=""question-area"">
                        <p style=""font-size: 20px; font-weight: bold; margin: 0;"">Is there a person in this image?</p>
                    </div>
                </div>","1","main_experiment_trial","2","supermarket_scheme","schematic_sequence","","","","","","",""
"","","","","","html-keyboard-response","168","833585","0.0-168.0","76B7C9ED783E4A2EB3064083D23A5E14","019cedcd-80ef-7f8a-ae1e-210c7ba2925b","019cedc9-bfe1-7bb5-8857-de065a1e03dd","","null","
                <div class=""stimulus-container"">
                    <img src=""images/schematic_sequence/supermarket_scheme/supermarket_scheme_3.png"" class=""exp-image"">
                    <div class=""question-area""></div> 
                </div>","null","","","","","","","","","","",""
"","","","","","html-button-response","169","834453","0.0-169.0","76B7C9ED783E4A2EB3064083D23A5E14","019cedcd-80ef-7f8a-ae1e-210c7ba2925b","019cedc9-bfe1-7bb5-8857-de065a1e03dd","","867","
                <div class=""stimulus-container"">
                    <img src=""images/schematic_sequence/supermarket_scheme/supermarket_scheme_3.png"" class=""exp-image"">
                    <div class=""question-area"">
                        <p style=""font-size: 20px; font-weight: bold; margin: 0;"">Is there a person in this image?</p>
                    </div>
                </div>","1","main_experiment_trial","3","supermarket_scheme","schematic_sequence","","","","","","",""
"","","","","","html-keyboard-response","170","839461","0.0-170.0","76B7C9ED783E4A2EB3064083D23A5E14","019cedcd-80ef-7f8a-ae1e-210c7ba2925b","019cedc9-bfe1-7bb5-8857-de065a1e03dd","","null","
                <div class=""stimulus-container"">
                    <img src=""images/schematic_sequence/supermarket_scheme/supermarket_scheme_4.png"" class=""exp-image"">
                    <div class=""question-area""></div> 
                </div>","null","","","","","","","","","","",""
"","","","","","html-button-response","171","840645","0.0-171.0","76B7C9ED783E4A2EB3064083D23A5E14","019cedcd-80ef-7f8a-ae1e-210c7ba2925b","019cedc9-bfe1-7bb5-8857-de065a1e03dd","","1183","
                <div class=""stimulus-container"">
                    <img src=""images/schematic_sequence/supermarket_scheme/supermarket_scheme_4.png"" class=""exp-image"">
                    <div class=""question-area"">
                        <p style=""font-size: 20px; font-weight: bold; margin: 0;"">Is there a person in this image?</p>
                    </div>
                </div>","0","main_experiment_trial","4","supermarket_scheme","schematic_sequence","","","","","","",""
"","","","","","html-keyboard-response","172","845646","0.0-172.0","76B7C9ED783E4A2EB3064083D23A5E14","019cedcd-80ef-7f8a-ae1e-210c7ba2925b","019cedc9-bfe1-7bb5-8857-de065a1e03dd","","null","
                <div class=""stimulus-container"">
                    <img src=""images/schematic_sequence/supermarket_scheme/supermarket_scheme_5.png"" class=""exp-image"">
                    <div class=""question-area""></div> 
                </div>","null","","","","","","","","","","",""
"","","","","","html-button-response","173","846826","0.0-173.0","76B7C9ED783E4A2EB3064083D23A5E14","019cedcd-80ef-7f8a-ae1e-210c7ba2925b","019cedc9-bfe1-7bb5-8857-de065a1e03dd","","1179","
                <div class=""stimulus-container"">
                    <img src=""images/schematic_sequence/supermarket_scheme/supermarket_scheme_5.png"" class=""exp-image"">
                    <div class=""question-area"">
                        <p style=""font-size: 20px; font-weight: bold; margin: 0;"">Is there a person in this image?</p>
                    </div>
                </div>","1","main_experiment_trial","5","supermarket_scheme","schematic_sequence","","","","","","",""
"","","","","","html-keyboard-response","174","851831","0.0-174.0","76B7C9ED783E4A2EB3064083D23A5E14","019cedcd-80ef-7f8a-ae1e-210c7ba2925b","019cedc9-bfe1-7bb5-8857-de065a1e03dd","","null","
                <div class=""stimulus-container"">
                    <img src=""images/schematic_sequence/supermarket_scheme/supermarket_scheme_6.png"" class=""exp-image"">
                    <div class=""question-area""></div> 
                </div>","null","","","","","","","","","","",""
"","","","","","html-button-response","175","853404","0.0-175.0","76B7C9ED783E4A2EB3064083D23A5E14","019cedcd-80ef-7f8a-ae1e-210c7ba2925b","019cedc9-bfe1-7bb5-8857-de065a1e03dd","","1572","
                <div class=""stimulus-container"">
                    <img src=""images/schematic_sequence/supermarket_scheme/supermarket_scheme_6.png"" class=""exp-image"">
                    <div class=""question-area"">
                        <p style=""font-size: 20px; font-weight: bold; margin: 0;"">Is there a person in this image?</p>
                    </div>
                </div>","0","main_experiment_trial","6","supermarket_scheme","schematic_sequence","","","","","","",""
"","","","","","html-keyboard-response","176","858416","0.0-176.0","76B7C9ED783E4A2EB3064083D23A5E14","019cedcd-80ef-7f8a-ae1e-210c7ba2925b","019cedc9-bfe1-7bb5-8857-de065a1e03dd","","null","
                <div class=""stimulus-container"">
                    <img src=""images/schematic_sequence/supermarket_scheme/supermarket_scheme_7.png"" class=""exp-image"">
                    <div class=""question-area""></div> 
                </div>","null","","","","","","","","","","",""
"","","","","","html-button-response","177","860470","0.0-177.0","76B7C9ED783E4A2EB3064083D23A5E14","019cedcd-80ef-7f8a-ae1e-210c7ba2925b","019cedc9-bfe1-7bb5-8857-de065a1e03dd","","2053","
                <div class=""stimulus-container"">
                    <img src=""images/schematic_sequence/supermarket_scheme/supermarket_scheme_7.png"" class=""exp-image"">
                    <div class=""question-area"">
                        <p style=""font-size: 20px; font-weight: bold; margin: 0;"">Is there a person in this image?</p>
                    </div>
                </div>","0","main_experiment_trial","7","supermarket_scheme","schematic_sequence","","","","","","",""
"","","","","","html-keyboard-response","178","865481","0.0-178.0","76B7C9ED783E4A2EB3064083D23A5E14","019cedcd-80ef-7f8a-ae1e-210c7ba2925b","019cedc9-bfe1-7bb5-8857-de065a1e03dd","","null","
                <div class=""stimulus-container"">
                    <img src=""images/schematic_sequence/supermarket_scheme/supermarket_scheme_8.png"" class=""exp-image"">
                    <div class=""question-area""></div> 
                </div>","null","","","","","","","","","","",""
"","","","","","html-button-response","179","866441","0.0-179.0","76B7C9ED783E4A2EB3064083D23A5E14","019cedcd-80ef-7f8a-ae1e-210c7ba2925b","019cedc9-bfe1-7bb5-8857-de065a1e03dd","","959","
                <div class=""stimulus-container"">
                    <img src=""images/schematic_sequence/supermarket_scheme/supermarket_scheme_8.png"" class=""exp-image"">
                    <div class=""question-area"">
                        <p style=""font-size: 20px; font-weight: bold; margin: 0;"">Is there a person in this image?</p>
                    </div>
                </div>","0","main_experiment_trial","8","supermarket_scheme","schematic_sequence","","","","","","",""
"","","","","","html-keyboard-response","180","871453","0.0-180.0","76B7C9ED783E4A2EB3064083D23A5E14","019cedcd-80ef-7f8a-ae1e-210c7ba2925b","019cedc9-bfe1-7bb5-8857-de065a1e03dd","","null","
                <div class=""stimulus-container"">
                    <img src=""images/schematic_sequence/supermarket_scheme/supermarket_scheme_9.png"" class=""exp-image"">
                    <div class=""question-area""></div> 
                </div>","null","","","","","","","","","","",""
