"success","timeout","failed_images","failed_audio","failed_video","trial_type","trial_index","time_elapsed","internal_node_id","view_history","rt","stimulus","response","task","folder","sequence_type","img_idx","learned_X","value","comp_type","left_path","right_path"
"true","false","[]","[]","[]","preload","0","3540","0.0-0.0","","","","","","","","","","","","",""
"","","","","","instructions","1","6634","0.0-1.0","[{""page_index"":0,""viewing_time"":3093}]","3093","","","","","","","","","","",""
"","","","","","instructions","2","9561","0.0-2.0","[{""page_index"":0,""viewing_time"":2927}]","2927","","","","","","","","","","",""
"true","","","","","fullscreen","3","14003","0.0-3.0","","3440","","","","","","","","","","",""
"","","","","","instructions","4","26575","0.0-4.0","[{""page_index"":0,""viewing_time"":12571}]","12571","","","","","","","","","","",""
"","","","","","html-keyboard-response","5","28585","0.0-5.0","","null","<div class=""transition-square""></div>","null","","","","","","","","",""
"","","","","","html-keyboard-response","6","33597","0.0-6.0","","null","<div class=""stimulus-container""><img src=""images_story_vs_info/story_3_1.png"" class=""exp-image""><div class=""question-area""></div></div>","null","","","","","","","","",""
"","","","","","html-button-response","7","36612","0.0-7.0","","null","<div class=""stimulus-container""><img src=""images_story_vs_info/story_3_1.png"" class=""exp-image""><div class=""question-area""><p style=""font-size: 20px; font-weight: bold; margin: 0;"">Is there a person in this image?</p></div></div>","null","observation","story_3","story","1","","","","",""
"","","","","","html-keyboard-response","8","41614","0.0-8.0","","null","<div class=""stimulus-container""><img src=""images_story_vs_info/story_3_2.png"" class=""exp-image""><div class=""question-area""></div></div>","null","","","","","","","","",""
"","","","","","html-button-response","9","42906","0.0-9.0","","1290","<div class=""stimulus-container""><img src=""images_story_vs_info/story_3_2.png"" class=""exp-image""><div class=""question-area""><p style=""font-size: 20px; font-weight: bold; margin: 0;"">Is there a person in this image?</p></div></div>","0","observation","story_3","story","2","","","","",""
"","","","","","html-keyboard-response","10","47923","0.0-10.0","","null","<div class=""stimulus-container""><img src=""images_story_vs_info/story_3_3.png"" class=""exp-image""><div class=""question-area""></div></div>","null","","","","","","","","",""
"","","","","","html-button-response","11","50456","0.0-11.0","","2532","<div class=""stimulus-container""><img src=""images_story_vs_info/story_3_3.png"" class=""exp-image""><div class=""question-area""><p style=""font-size: 20px; font-weight: bold; margin: 0;"">Is there a person in this image?</p></div></div>","1","observation","story_3","story","3","","","","",""
"","","","","","html-keyboard-response","12","55459","0.0-12.0","","null","<div class=""stimulus-container""><img src=""images_story_vs_info/story_3_4.png"" class=""exp-image""><div class=""question-area""></div></div>","null","","","","","","","","",""
"","","","","","html-button-response","13","56960","0.0-13.0","","1500","<div class=""stimulus-container""><img src=""images_story_vs_info/story_3_4.png"" class=""exp-image""><div class=""question-area""><p style=""font-size: 20px; font-weight: bold; margin: 0;"">Is there a person in this image?</p></div></div>","0","observation","story_3","story","4","","","","",""
"","","","","","html-keyboard-response","14","61969","0.0-14.0","","null","<div class=""stimulus-container""><img src=""images_story_vs_info/story_3_5.png"" class=""exp-image""><div class=""question-area""></div></div>","null","","","","","","","","",""
"","","","","","html-button-response","15","62509","0.0-15.0","","540","<div class=""stimulus-container""><img src=""images_story_vs_info/story_3_5.png"" class=""exp-image""><div class=""question-area""><p style=""font-size: 20px; font-weight: bold; margin: 0;"">Is there a person in this image?</p></div></div>","1","observation","story_3","story","5","","","","",""
"","","","","","html-keyboard-response","16","67515","0.0-16.0","","null","<div class=""stimulus-container""><img src=""images_story_vs_info/story_3_6_b.png"" class=""exp-image""><div class=""question-area""></div></div>","null","","","","","","","","",""
"","","","","","html-button-response","17","67954","0.0-17.0","","439","<div class=""stimulus-container""><img src=""images_story_vs_info/story_3_6_b.png"" class=""exp-image""><div class=""question-area""><p style=""font-size: 20px; font-weight: bold; margin: 0;"">Is there a person in this image?</p></div></div>","1","observation","story_3","story","6","","","","",""
"","","","","","html-keyboard-response","18","69971","0.0-18.0","","null","<div class=""transition-square""></div>","null","","","","","","","","",""
"","","","","","html-keyboard-response","19","74985","0.0-19.0","","null","<div class=""stimulus-container""><img src=""images_story_vs_info/story_4_1.png"" class=""exp-image""><div class=""question-area""></div></div>","null","","","","","","","","",""
"","","","","","html-button-response","20","75701","0.0-20.0","","715","<div class=""stimulus-container""><img src=""images_story_vs_info/story_4_1.png"" class=""exp-image""><div class=""question-area""><p style=""font-size: 20px; font-weight: bold; margin: 0;"">Is there a person in this image?</p></div></div>","1","observation","story_4","story","1","","","","",""
"","","","","","html-keyboard-response","21","80707","0.0-21.0","","null","<div class=""stimulus-container""><img src=""images_story_vs_info/story_4_2.png"" class=""exp-image""><div class=""question-area""></div></div>","null","","","","","","","","",""
"","","","","","html-button-response","22","81185","0.0-22.0","","478","<div class=""stimulus-container""><img src=""images_story_vs_info/story_4_2.png"" class=""exp-image""><div class=""question-area""><p style=""font-size: 20px; font-weight: bold; margin: 0;"">Is there a person in this image?</p></div></div>","1","observation","story_4","story","2","","","","",""
"","","","","","html-keyboard-response","23","86195","0.0-23.0","","null","<div class=""stimulus-container""><img src=""images_story_vs_info/story_4_3.png"" class=""exp-image""><div class=""question-area""></div></div>","null","","","","","","","","",""
"","","","","","html-button-response","24","86630","0.0-24.0","","434","<div class=""stimulus-container""><img src=""images_story_vs_info/story_4_3.png"" class=""exp-image""><div class=""question-area""><p style=""font-size: 20px; font-weight: bold; margin: 0;"">Is there a person in this image?</p></div></div>","1","observation","story_4","story","3","","","","",""
"","","","","","html-keyboard-response","25","91635","0.0-25.0","","null","<div class=""stimulus-container""><img src=""images_story_vs_info/story_4_4.png"" class=""exp-image""><div class=""question-area""></div></div>","null","","","","","","","","",""
"","","","","","html-button-response","26","92100","0.0-26.0","","464","<div class=""stimulus-container""><img src=""images_story_vs_info/story_4_4.png"" class=""exp-image""><div class=""question-area""><p style=""font-size: 20px; font-weight: bold; margin: 0;"">Is there a person in this image?</p></div></div>","1","observation","story_4","story","4","","","","",""
"","","","","","html-keyboard-response","27","97114","0.0-27.0","","null","<div class=""stimulus-container""><img src=""images_story_vs_info/story_4_5.png"" class=""exp-image""><div class=""question-area""></div></div>","null","","","","","","","","",""
"","","","","","html-button-response","28","97499","0.0-28.0","","384","<div class=""stimulus-container""><img src=""images_story_vs_info/story_4_5.png"" class=""exp-image""><div class=""question-area""><p style=""font-size: 20px; font-weight: bold; margin: 0;"">Is there a person in this image?</p></div></div>","1","observation","story_4","story","5","","","","",""
"","","","","","html-keyboard-response","29","102515","0.0-29.0","","null","<div class=""stimulus-container""><img src=""images_story_vs_info/story_4_6_b.png"" class=""exp-image""><div class=""question-area""></div></div>","null","","","","","","","","",""
"","","","","","html-button-response","30","102944","0.0-30.0","","427","<div class=""stimulus-container""><img src=""images_story_vs_info/story_4_6_b.png"" class=""exp-image""><div class=""question-area""><p style=""font-size: 20px; font-weight: bold; margin: 0;"">Is there a person in this image?</p></div></div>","1","observation","story_4","story","6","","","","",""
"","","","","","html-keyboard-response","31","104951","0.0-31.0","","null","<div class=""transition-square""></div>","null","","","","","","","","",""
"","","","","","html-keyboard-response","32","109959","0.0-32.0","","null","<div class=""stimulus-container""><img src=""images_story_vs_info/info_1_1.png"" class=""exp-image""><div class=""question-area""></div></div>","null","","","","","","","","",""
"","","","","","html-button-response","33","110571","0.0-33.0","","612","<div class=""stimulus-container""><img src=""images_story_vs_info/info_1_1.png"" class=""exp-image""><div class=""question-area""><p style=""font-size: 20px; font-weight: bold; margin: 0;"">Is there a person in this image?</p></div></div>","1","observation","info_1","info","1","","","","",""
"","","","","","html-keyboard-response","34","115578","0.0-34.0","","null","<div class=""stimulus-container""><img src=""images_story_vs_info/info_1_2.png"" class=""exp-image""><div class=""question-area""></div></div>","null","","","","","","","","",""
"","","","","","html-button-response","35","116114","0.0-35.0","","535","<div class=""stimulus-container""><img src=""images_story_vs_info/info_1_2.png"" class=""exp-image""><div class=""question-area""><p style=""font-size: 20px; font-weight: bold; margin: 0;"">Is there a person in this image?</p></div></div>","1","observation","info_1","info","2","","","","",""
"","","","","","html-keyboard-response","36","121125","0.0-36.0","","null","<div class=""stimulus-container""><img src=""images_story_vs_info/info_1_3.png"" class=""exp-image""><div class=""question-area""></div></div>","null","","","","","","","","",""
"","","","","","html-button-response","37","121533","0.0-37.0","","408","<div class=""stimulus-container""><img src=""images_story_vs_info/info_1_3.png"" class=""exp-image""><div class=""question-area""><p style=""font-size: 20px; font-weight: bold; margin: 0;"">Is there a person in this image?</p></div></div>","1","observation","info_1","info","3","","","","",""
"","","","","","html-keyboard-response","38","126539","0.0-38.0","","null","<div class=""stimulus-container""><img src=""images_story_vs_info/info_1_4.png"" class=""exp-image""><div class=""question-area""></div></div>","null","","","","","","","","",""
"","","","","","html-button-response","39","126925","0.0-39.0","","385","<div class=""stimulus-container""><img src=""images_story_vs_info/info_1_4.png"" class=""exp-image""><div class=""question-area""><p style=""font-size: 20px; font-weight: bold; margin: 0;"">Is there a person in this image?</p></div></div>","1","observation","info_1","info","4","","","","",""
"","","","","","html-keyboard-response","40","131927","0.0-40.0","","null","<div class=""stimulus-container""><img src=""images_story_vs_info/info_1_5.png"" class=""exp-image""><div class=""question-area""></div></div>","null","","","","","","","","",""
"","","","","","html-button-response","41","132595","0.0-41.0","","667","<div class=""stimulus-container""><img src=""images_story_vs_info/info_1_5.png"" class=""exp-image""><div class=""question-area""><p style=""font-size: 20px; font-weight: bold; margin: 0;"">Is there a person in this image?</p></div></div>","1","observation","info_1","info","5","","","","",""
"","","","","","html-keyboard-response","42","137600","0.0-42.0","","null","<div class=""stimulus-container""><img src=""images_story_vs_info/info_1_6_b.png"" class=""exp-image""><div class=""question-area""></div></div>","null","","","","","","","","",""
"","","","","","html-button-response","43","137979","0.0-43.0","","378","<div class=""stimulus-container""><img src=""images_story_vs_info/info_1_6_b.png"" class=""exp-image""><div class=""question-area""><p style=""font-size: 20px; font-weight: bold; margin: 0;"">Is there a person in this image?</p></div></div>","1","observation","info_1","info","6","","","","",""
"","","","","","html-keyboard-response","44","139989","0.0-44.0","","null","<div class=""transition-square""></div>","null","","","","","","","","",""
"","","","","","html-keyboard-response","45","145001","0.0-45.0","","null","<div class=""stimulus-container""><img src=""images_story_vs_info/info_2_1.png"" class=""exp-image""><div class=""question-area""></div></div>","null","","","","","","","","",""
"","","","","","html-button-response","46","145531","0.0-46.0","","528","<div class=""stimulus-container""><img src=""images_story_vs_info/info_2_1.png"" class=""exp-image""><div class=""question-area""><p style=""font-size: 20px; font-weight: bold; margin: 0;"">Is there a person in this image?</p></div></div>","1","observation","info_2","info","1","","","","",""
"","","","","","html-keyboard-response","47","150538","0.0-47.0","","null","<div class=""stimulus-container""><img src=""images_story_vs_info/info_2_2.png"" class=""exp-image""><div class=""question-area""></div></div>","null","","","","","","","","",""
"","","","","","html-button-response","48","150923","0.0-48.0","","384","<div class=""stimulus-container""><img src=""images_story_vs_info/info_2_2.png"" class=""exp-image""><div class=""question-area""><p style=""font-size: 20px; font-weight: bold; margin: 0;"">Is there a person in this image?</p></div></div>","1","observation","info_2","info","2","","","","",""
"","","","","","html-keyboard-response","49","155933","0.0-49.0","","null","<div class=""stimulus-container""><img src=""images_story_vs_info/info_2_3.png"" class=""exp-image""><div class=""question-area""></div></div>","null","","","","","","","","",""
"","","","","","html-button-response","50","156373","0.0-50.0","","439","<div class=""stimulus-container""><img src=""images_story_vs_info/info_2_3.png"" class=""exp-image""><div class=""question-area""><p style=""font-size: 20px; font-weight: bold; margin: 0;"">Is there a person in this image?</p></div></div>","1","observation","info_2","info","3","","","","",""
"","","","","","html-keyboard-response","51","161381","0.0-51.0","","null","<div class=""stimulus-container""><img src=""images_story_vs_info/info_2_4.png"" class=""exp-image""><div class=""question-area""></div></div>","null","","","","","","","","",""
"","","","","","html-button-response","52","161758","0.0-52.0","","377","<div class=""stimulus-container""><img src=""images_story_vs_info/info_2_4.png"" class=""exp-image""><div class=""question-area""><p style=""font-size: 20px; font-weight: bold; margin: 0;"">Is there a person in this image?</p></div></div>","1","observation","info_2","info","4","","","","",""
"","","","","","html-keyboard-response","53","166762","0.0-53.0","","null","<div class=""stimulus-container""><img src=""images_story_vs_info/info_2_5.png"" class=""exp-image""><div class=""question-area""></div></div>","null","","","","","","","","",""
"","","","","","html-button-response","54","167153","0.0-54.0","","390","<div class=""stimulus-container""><img src=""images_story_vs_info/info_2_5.png"" class=""exp-image""><div class=""question-area""><p style=""font-size: 20px; font-weight: bold; margin: 0;"">Is there a person in this image?</p></div></div>","1","observation","info_2","info","5","","","","",""
"","","","","","html-keyboard-response","55","172155","0.0-55.0","","null","<div class=""stimulus-container""><img src=""images_story_vs_info/info_2_6_b.png"" class=""exp-image""><div class=""question-area""></div></div>","null","","","","","","","","",""
"","","","","","html-button-response","56","172617","0.0-56.0","","461","<div class=""stimulus-container""><img src=""images_story_vs_info/info_2_6_b.png"" class=""exp-image""><div class=""question-area""><p style=""font-size: 20px; font-weight: bold; margin: 0;"">Is there a person in this image?</p></div></div>","1","observation","info_2","info","6","","","","",""
"","","","","","instructions","57","182643","0.0-57.0","[{""page_index"":0,""viewing_time"":10025}]","10026","","","","","","","","","","",""
"","","","","","html-button-response","58","185353","0.0-58.0","","2710","<div class=""stimulus-container""><p style=""font-family:Arial; font-size:20px;"">How much is this image worth?</p><img src=""images_story_vs_info/story_4_4.png"" class=""exp-image""><div class=""value-tag"">???</div></div>","0","","","","","","","","",""
"","","","","","html-button-response","59","191950","0.0-59.0","","6595","<div class=""stimulus-container""><p style=""font-family:Arial; font-size:20px;"">Remember this value:</p><img src=""images_story_vs_info/story_4_4.png"" class=""exp-image""><div class=""value-tag val-low"">This image is worth: $0</div></div>","0","learning","story_4","","","4","$0","","",""
"","","","","","html-button-response","60","193243","0.0-60.0","","1293","<div class=""stimulus-container""><p style=""font-family:Arial; font-size:20px;"">How much is this image worth?</p><img src=""images_story_vs_info/info_2_4.png"" class=""exp-image""><div class=""value-tag"">???</div></div>","0","","","","","","","","",""
"","","","","","html-button-response","61","199918","0.0-61.0","","6673","<div class=""stimulus-container""><p style=""font-family:Arial; font-size:20px;"">Remember this value:</p><img src=""images_story_vs_info/info_2_4.png"" class=""exp-image""><div class=""value-tag val-low"">This image is worth: $0</div></div>","0","learning","info_2","","","4","$0","","",""
"","","","","","html-button-response","62","200823","0.0-62.0","","905","<div class=""stimulus-container""><p style=""font-family:Arial; font-size:20px;"">How much is this image worth?</p><img src=""images_story_vs_info/story_3_4.png"" class=""exp-image""><div class=""value-tag"">???</div></div>","0","","","","","","","","",""
"","","","","","html-button-response","63","207455","0.0-63.0","","6630","<div class=""stimulus-container""><p style=""font-family:Arial; font-size:20px;"">Remember this value:</p><img src=""images_story_vs_info/story_3_4.png"" class=""exp-image""><div class=""value-tag val-high"">This image is worth: $100</div></div>","0","learning","story_3","","","4","$100","","",""
"","","","","","html-button-response","64","208304","0.0-64.0","","849","<div class=""stimulus-container""><p style=""font-family:Arial; font-size:20px;"">How much is this image worth?</p><img src=""images_story_vs_info/info_1_4.png"" class=""exp-image""><div class=""value-tag"">???</div></div>","0","","","","","","","","",""
"","","","","","html-button-response","65","215442","0.0-65.0","","7136","<div class=""stimulus-container""><p style=""font-family:Arial; font-size:20px;"">Remember this value:</p><img src=""images_story_vs_info/info_1_4.png"" class=""exp-image""><div class=""value-tag val-high"">This image is worth: $100</div></div>","0","learning","info_1","","","4","$100","","",""
"","","","","","instructions","66","222995","0.0-66.0","[{""page_index"":0,""viewing_time"":7553}]","7553","","","","","","","","","","",""
"","","","","","html-button-response","67","231392","0.0-67.0","","8395","
                <div style=""font-family: Arial; margin-bottom: 20px;""><h3>Which image is worth <b>more money</b>?</h3></div>
                <div class=""stimulus-container"" style=""display: flex; flex-direction: row; width: 800px; justify-content: center; gap: 30px;"">
                    <img src=""images_story_vs_info/story_4_5.png"" class=""small-image"">
                    <img src=""images_story_vs_info/info_2_5.png"" class=""small-image"">
                </div>","0","choice","","","5","4","","Neutral_Story_vs_Info","images_story_vs_info/story_4_5.png","images_story_vs_info/info_2_5.png"
"","","","","","html-button-response","68","237309","0.0-68.0","","5916","
                <div style=""font-family: Arial; margin-bottom: 20px;""><h3>Which image is worth <b>more money</b>?</h3></div>
                <div class=""stimulus-container"" style=""display: flex; flex-direction: row; width: 800px; justify-content: center; gap: 30px;"">
                    <img src=""images_story_vs_info/story_4_3.png"" class=""small-image"">
                    <img src=""images_story_vs_info/info_2_3.png"" class=""small-image"">
                </div>","0","choice","","","3","4","","Neutral_Story_vs_Info","images_story_vs_info/story_4_3.png","images_story_vs_info/info_2_3.png"
"","","","","","html-button-response","69","239369","0.0-69.0","","2059","
                <div style=""font-family: Arial; margin-bottom: 20px;""><h3>Which image is worth <b>more money</b>?</h3></div>
                <div class=""stimulus-container"" style=""display: flex; flex-direction: row; width: 800px; justify-content: center; gap: 30px;"">
                    <img src=""images_story_vs_info/story_3_5.png"" class=""small-image"">
                    <img src=""images_story_vs_info/info_1_5.png"" class=""small-image"">
                </div>","0","choice","","","5","4","","Valuable_Story_vs_Info","images_story_vs_info/story_3_5.png","images_story_vs_info/info_1_5.png"
"","","","","","html-button-response","70","240912","0.0-70.0","","1542","
                <div style=""font-family: Arial; margin-bottom: 20px;""><h3>Which image is worth <b>more money</b>?</h3></div>
                <div class=""stimulus-container"" style=""display: flex; flex-direction: row; width: 800px; justify-content: center; gap: 30px;"">
                    <img src=""images_story_vs_info/info_2_2.png"" class=""small-image"">
                    <img src=""images_story_vs_info/story_4_2.png"" class=""small-image"">
                </div>","1","choice","","","2","4","","Neutral_Story_vs_Info","images_story_vs_info/info_2_2.png","images_story_vs_info/story_4_2.png"
"","","","","","html-button-response","71","244016","0.0-71.0","","3103","
                <div style=""font-family: Arial; margin-bottom: 20px;""><h3>Which image is worth <b>more money</b>?</h3></div>
                <div class=""stimulus-container"" style=""display: flex; flex-direction: row; width: 800px; justify-content: center; gap: 30px;"">
                    <img src=""images_story_vs_info/story_3_3.png"" class=""small-image"">
                    <img src=""images_story_vs_info/info_1_3.png"" class=""small-image"">
                </div>","1","choice","","","3","4","","Valuable_Story_vs_Info","images_story_vs_info/story_3_3.png","images_story_vs_info/info_1_3.png"
"","","","","","html-button-response","72","246381","0.0-72.0","","2364","
                <div style=""font-family: Arial; margin-bottom: 20px;""><h3>Which image is worth <b>more money</b>?</h3></div>
                <div class=""stimulus-container"" style=""display: flex; flex-direction: row; width: 800px; justify-content: center; gap: 30px;"">
                    <img src=""images_story_vs_info/story_3_6_b.png"" class=""small-image"">
                    <img src=""images_story_vs_info/info_1_6_b.png"" class=""small-image"">
                </div>","0","choice","","","6","4","","Valuable_Story_vs_Info","images_story_vs_info/story_3_6_b.png","images_story_vs_info/info_1_6_b.png"
"","","","","","html-button-response","73","248860","0.0-73.0","","2479","
                <div style=""font-family: Arial; margin-bottom: 20px;""><h3>Which image is worth <b>more money</b>?</h3></div>
                <div class=""stimulus-container"" style=""display: flex; flex-direction: row; width: 800px; justify-content: center; gap: 30px;"">
                    <img src=""images_story_vs_info/info_1_2.png"" class=""small-image"">
                    <img src=""images_story_vs_info/story_3_2.png"" class=""small-image"">
                </div>","0","choice","","","2","4","","Valuable_Story_vs_Info","images_story_vs_info/info_1_2.png","images_story_vs_info/story_3_2.png"
"","","","","","html-button-response","74","251875","0.0-74.0","","3014","
                <div style=""font-family: Arial; margin-bottom: 20px;""><h3>Which image is worth <b>more money</b>?</h3></div>
                <div class=""stimulus-container"" style=""display: flex; flex-direction: row; width: 800px; justify-content: center; gap: 30px;"">
                    <img src=""images_story_vs_info/info_2_6_b.png"" class=""small-image"">
                    <img src=""images_story_vs_info/story_4_6_b.png"" class=""small-image"">
                </div>","0","choice","","","6","4","","Neutral_Story_vs_Info","images_story_vs_info/info_2_6_b.png","images_story_vs_info/story_4_6_b.png"
"","","","","","survey-text","75","278230","0.0-75.0","","26345","","{""choice_strategy"":""remenber two items"",""gender"":""male"",""age"":""35""}","","","","","","","","",""
"","","","","","instructions","76","283535","0.0-76.0","[{""page_index"":0,""viewing_time"":5304}]","5304","","","","","","","","","","",""
