"success","timeout","failed_images","failed_audio","failed_video","trial_type","trial_index","time_elapsed","internal_node_id","subject_id","study_id","session_id","view_history","rt","stimulus","response","task","image_index","folder","valuable_image_index","valuable_X","chosen_image_index","distance_from_X"
"false","false","[]","[]","[]","preload","0","1377","0.0-0.0","79A142A08DBC4351870DA1E783E6B79B","019ce678-d09e-7b88-b725-cbb9b39f7edd","019ce643-47c6-74a0-b3d2-7bf5651ded46","","","","","","","","","","",""
"","","","","","instructions","1","2977","0.0-1.0","79A142A08DBC4351870DA1E783E6B79B","019ce678-d09e-7b88-b725-cbb9b39f7edd","019ce643-47c6-74a0-b3d2-7bf5651ded46","[{""page_index"":0,""viewing_time"":1598}]","1599","","","","","","","","",""
"","","","","","instructions","2","6781","0.0-2.0","79A142A08DBC4351870DA1E783E6B79B","019ce678-d09e-7b88-b725-cbb9b39f7edd","019ce643-47c6-74a0-b3d2-7bf5651ded46","[{""page_index"":0,""viewing_time"":3803}]","3803","","","","","","","","",""
"true","","","","","fullscreen","3","9295","0.0-3.0","79A142A08DBC4351870DA1E783E6B79B","019ce678-d09e-7b88-b725-cbb9b39f7edd","019ce643-47c6-74a0-b3d2-7bf5651ded46","","1491","","","","","","","","",""
"","","","","","instructions","4","20461","0.0-4.0","79A142A08DBC4351870DA1E783E6B79B","019ce678-d09e-7b88-b725-cbb9b39f7edd","019ce643-47c6-74a0-b3d2-7bf5651ded46","[{""page_index"":0,""viewing_time"":11165}]","11165","","","","","","","","",""
"","","","","","instructions","5","33286","0.0-5.0","79A142A08DBC4351870DA1E783E6B79B","019ce678-d09e-7b88-b725-cbb9b39f7edd","019ce643-47c6-74a0-b3d2-7bf5651ded46","[{""page_index"":0,""viewing_time"":12824}]","12824","","","","","","","","",""
"","","","","","html-keyboard-response","6","37302","0.0-6.0","79A142A08DBC4351870DA1E783E6B79B","019ce678-d09e-7b88-b725-cbb9b39f7edd","019ce643-47c6-74a0-b3d2-7bf5651ded46","","null","
                <div class=""stimulus-container"">
                    <img src=""images/instructions/movie_1.png"" class=""exp-image"">
                    <div class=""question-area""></div> 
                </div>","null","","","","","","",""
"","","","","","html-button-response","7","39542","0.0-7.0","79A142A08DBC4351870DA1E783E6B79B","019ce678-d09e-7b88-b725-cbb9b39f7edd","019ce643-47c6-74a0-b3d2-7bf5651ded46","","2236","
                <div class=""stimulus-container"">
                    <img src=""images/instructions/movie_1.png"" class=""exp-image"">
                    <div class=""question-area"">
                        <p style=""font-size: 20px; font-weight: bold; margin: 0;"">Was there a person in this image?</p>
                    </div>
                </div>","0","example_question","1","","","","",""
"","","","","","html-keyboard-response","8","43557","0.0-8.0","79A142A08DBC4351870DA1E783E6B79B","019ce678-d09e-7b88-b725-cbb9b39f7edd","019ce643-47c6-74a0-b3d2-7bf5651ded46","","null","
                <div class=""stimulus-container"">
                    <img src=""images/instructions/movie_2.png"" class=""exp-image"">
                    <div class=""question-area""></div> 
                </div>","null","","","","","","",""
"","","","","","html-button-response","9","44231","0.0-9.0","79A142A08DBC4351870DA1E783E6B79B","019ce678-d09e-7b88-b725-cbb9b39f7edd","019ce643-47c6-74a0-b3d2-7bf5651ded46","","673","
                <div class=""stimulus-container"">
                    <img src=""images/instructions/movie_2.png"" class=""exp-image"">
                    <div class=""question-area"">
                        <p style=""font-size: 20px; font-weight: bold; margin: 0;"">Was there a person in this image?</p>
                    </div>
                </div>","0","example_question","2","","","","",""
"","","","","","html-keyboard-response","10","48235","0.0-10.0","79A142A08DBC4351870DA1E783E6B79B","019ce678-d09e-7b88-b725-cbb9b39f7edd","019ce643-47c6-74a0-b3d2-7bf5651ded46","","null","
                <div class=""stimulus-container"">
                    <img src=""images/instructions/movie_3.png"" class=""exp-image"">
                    <div class=""question-area""></div> 
                </div>","null","","","","","","",""
"","","","","","html-button-response","11","48935","0.0-11.0","79A142A08DBC4351870DA1E783E6B79B","019ce678-d09e-7b88-b725-cbb9b39f7edd","019ce643-47c6-74a0-b3d2-7bf5651ded46","","699","
                <div class=""stimulus-container"">
                    <img src=""images/instructions/movie_3.png"" class=""exp-image"">
                    <div class=""question-area"">
                        <p style=""font-size: 20px; font-weight: bold; margin: 0;"">Was there a person in this image?</p>
                    </div>
                </div>","0","example_question","3","","","","",""
"","","","","","html-keyboard-response","12","52948","0.0-12.0","79A142A08DBC4351870DA1E783E6B79B","019ce678-d09e-7b88-b725-cbb9b39f7edd","019ce643-47c6-74a0-b3d2-7bf5651ded46","","null","
                <div class=""stimulus-container"">
                    <img src=""images/instructions/movie_4.png"" class=""exp-image"">
                    <div class=""question-area""></div> 
                </div>","null","","","","","","",""
"","","","","","html-button-response","13","53503","0.0-13.0","79A142A08DBC4351870DA1E783E6B79B","019ce678-d09e-7b88-b725-cbb9b39f7edd","019ce643-47c6-74a0-b3d2-7bf5651ded46","","553","
                <div class=""stimulus-container"">
                    <img src=""images/instructions/movie_4.png"" class=""exp-image"">
                    <div class=""question-area"">
                        <p style=""font-size: 20px; font-weight: bold; margin: 0;"">Was there a person in this image?</p>
                    </div>
                </div>","0","example_question","4","","","","",""
"","","","","","instructions","14","56437","0.0-14.0","79A142A08DBC4351870DA1E783E6B79B","019ce678-d09e-7b88-b725-cbb9b39f7edd","019ce643-47c6-74a0-b3d2-7bf5651ded46","[{""page_index"":0,""viewing_time"":2934}]","2934","","","","","","","","",""
"","","","","","html-keyboard-response","15","57443","0.0-15.0","79A142A08DBC4351870DA1E783E6B79B","019ce678-d09e-7b88-b725-cbb9b39f7edd","019ce643-47c6-74a0-b3d2-7bf5651ded46","","null","<div style=""background-color: gray; width: 100vw; height: 100vh;""></div>","null","","","","","","",""
"","","","","","html-keyboard-response","16","62449","0.0-16.0","79A142A08DBC4351870DA1E783E6B79B","019ce678-d09e-7b88-b725-cbb9b39f7edd","019ce643-47c6-74a0-b3d2-7bf5651ded46","","null","
                    <div class=""stimulus-container"">
                        <img src=""images/causal_sequence/museum_causal/museum_causal_1.png"" class=""exp-image"">
                        <div class=""question-area""></div> 
                    </div>","null","","","","","","",""
"","","","","","html-button-response","17","64953","0.0-17.0","79A142A08DBC4351870DA1E783E6B79B","019ce678-d09e-7b88-b725-cbb9b39f7edd","019ce643-47c6-74a0-b3d2-7bf5651ded46","","2503","
                    <div class=""stimulus-container"">
                        <img src=""images/causal_sequence/museum_causal/museum_causal_1.png"" class=""exp-image"">
                        <div class=""question-area"">
                            <p style=""font-size: 20px; font-weight: bold; margin: 0;"">Is there a person in this image?</p>
                        </div>
                    </div>","0","main_causal_task","1","museum_causal","","","",""
"","","","","","html-keyboard-response","18","69965","0.0-18.0","79A142A08DBC4351870DA1E783E6B79B","019ce678-d09e-7b88-b725-cbb9b39f7edd","019ce643-47c6-74a0-b3d2-7bf5651ded46","","null","
                    <div class=""stimulus-container"">
                        <img src=""images/causal_sequence/museum_causal/museum_causal_2.png"" class=""exp-image"">
                        <div class=""question-area""></div> 
                    </div>","null","","","","","","",""
"","","","","","html-button-response","19","72004","0.0-19.0","79A142A08DBC4351870DA1E783E6B79B","019ce678-d09e-7b88-b725-cbb9b39f7edd","019ce643-47c6-74a0-b3d2-7bf5651ded46","","2037","
                    <div class=""stimulus-container"">
                        <img src=""images/causal_sequence/museum_causal/museum_causal_2.png"" class=""exp-image"">
                        <div class=""question-area"">
                            <p style=""font-size: 20px; font-weight: bold; margin: 0;"">Is there a person in this image?</p>
                        </div>
                    </div>","0","main_causal_task","2","museum_causal","","","",""
"","","","","","html-keyboard-response","20","77006","0.0-20.0","79A142A08DBC4351870DA1E783E6B79B","019ce678-d09e-7b88-b725-cbb9b39f7edd","019ce643-47c6-74a0-b3d2-7bf5651ded46","","null","
                    <div class=""stimulus-container"">
                        <img src=""images/causal_sequence/museum_causal/museum_causal_3.png"" class=""exp-image"">
                        <div class=""question-area""></div> 
                    </div>","null","","","","","","",""
"","","","","","html-button-response","21","78056","0.0-21.0","79A142A08DBC4351870DA1E783E6B79B","019ce678-d09e-7b88-b725-cbb9b39f7edd","019ce643-47c6-74a0-b3d2-7bf5651ded46","","1048","
                    <div class=""stimulus-container"">
                        <img src=""images/causal_sequence/museum_causal/museum_causal_3.png"" class=""exp-image"">
                        <div class=""question-area"">
                            <p style=""font-size: 20px; font-weight: bold; margin: 0;"">Is there a person in this image?</p>
                        </div>
                    </div>","0","main_causal_task","3","museum_causal","","","",""
"","","","","","html-keyboard-response","22","83064","0.0-22.0","79A142A08DBC4351870DA1E783E6B79B","019ce678-d09e-7b88-b725-cbb9b39f7edd","019ce643-47c6-74a0-b3d2-7bf5651ded46","","null","
                    <div class=""stimulus-container"">
                        <img src=""images/causal_sequence/museum_causal/museum_causal_4.png"" class=""exp-image"">
                        <div class=""question-area""></div> 
                    </div>","null","","","","","","",""
"","","","","","html-button-response","23","84124","0.0-23.0","79A142A08DBC4351870DA1E783E6B79B","019ce678-d09e-7b88-b725-cbb9b39f7edd","019ce643-47c6-74a0-b3d2-7bf5651ded46","","1059","
                    <div class=""stimulus-container"">
                        <img src=""images/causal_sequence/museum_causal/museum_causal_4.png"" class=""exp-image"">
                        <div class=""question-area"">
                            <p style=""font-size: 20px; font-weight: bold; margin: 0;"">Is there a person in this image?</p>
                        </div>
                    </div>","1","main_causal_task","4","museum_causal","","","",""
"","","","","","html-keyboard-response","24","89127","0.0-24.0","79A142A08DBC4351870DA1E783E6B79B","019ce678-d09e-7b88-b725-cbb9b39f7edd","019ce643-47c6-74a0-b3d2-7bf5651ded46","","null","
                    <div class=""stimulus-container"">
                        <img src=""images/causal_sequence/museum_causal/museum_causal_5.png"" class=""exp-image"">
                        <div class=""question-area""></div> 
                    </div>","null","","","","","","",""
"","","","","","html-button-response","25","90027","0.0-25.0","79A142A08DBC4351870DA1E783E6B79B","019ce678-d09e-7b88-b725-cbb9b39f7edd","019ce643-47c6-74a0-b3d2-7bf5651ded46","","899","
                    <div class=""stimulus-container"">
                        <img src=""images/causal_sequence/museum_causal/museum_causal_5.png"" class=""exp-image"">
                        <div class=""question-area"">
                            <p style=""font-size: 20px; font-weight: bold; margin: 0;"">Is there a person in this image?</p>
                        </div>
                    </div>","0","main_causal_task","5","museum_causal","","","",""
"","","","","","html-keyboard-response","26","95037","0.0-26.0","79A142A08DBC4351870DA1E783E6B79B","019ce678-d09e-7b88-b725-cbb9b39f7edd","019ce643-47c6-74a0-b3d2-7bf5651ded46","","null","
                    <div class=""stimulus-container"">
                        <img src=""images/causal_sequence/museum_causal/museum_causal_6.png"" class=""exp-image"">
                        <div class=""question-area""></div> 
                    </div>","null","","","","","","",""
"","","","","","html-button-response","27","96092","0.0-27.0","79A142A08DBC4351870DA1E783E6B79B","019ce678-d09e-7b88-b725-cbb9b39f7edd","019ce643-47c6-74a0-b3d2-7bf5651ded46","","1054","
                    <div class=""stimulus-container"">
                        <img src=""images/causal_sequence/museum_causal/museum_causal_6.png"" class=""exp-image"">
                        <div class=""question-area"">
                            <p style=""font-size: 20px; font-weight: bold; margin: 0;"">Is there a person in this image?</p>
                        </div>
                    </div>","0","main_causal_task","6","museum_causal","","","",""
"","","","","","html-keyboard-response","28","101100","0.0-28.0","79A142A08DBC4351870DA1E783E6B79B","019ce678-d09e-7b88-b725-cbb9b39f7edd","019ce643-47c6-74a0-b3d2-7bf5651ded46","","null","
                    <div class=""stimulus-container"">
                        <img src=""images/causal_sequence/museum_causal/museum_causal_7.png"" class=""exp-image"">
                        <div class=""question-area""></div> 
                    </div>","null","","","","","","",""
"","","","","","html-button-response","29","102783","0.0-29.0","79A142A08DBC4351870DA1E783E6B79B","019ce678-d09e-7b88-b725-cbb9b39f7edd","019ce643-47c6-74a0-b3d2-7bf5651ded46","","1681","
                    <div class=""stimulus-container"">
                        <img src=""images/causal_sequence/museum_causal/museum_causal_7.png"" class=""exp-image"">
                        <div class=""question-area"">
                            <p style=""font-size: 20px; font-weight: bold; margin: 0;"">Is there a person in this image?</p>
                        </div>
                    </div>","1","main_causal_task","7","museum_causal","","","",""
"","","","","","html-keyboard-response","30","107784","0.0-30.0","79A142A08DBC4351870DA1E783E6B79B","019ce678-d09e-7b88-b725-cbb9b39f7edd","019ce643-47c6-74a0-b3d2-7bf5651ded46","","null","
                    <div class=""stimulus-container"">
                        <img src=""images/causal_sequence/museum_causal/museum_causal_8.png"" class=""exp-image"">
                        <div class=""question-area""></div> 
                    </div>","null","","","","","","",""
"","","","","","html-button-response","31","108773","0.0-31.0","79A142A08DBC4351870DA1E783E6B79B","019ce678-d09e-7b88-b725-cbb9b39f7edd","019ce643-47c6-74a0-b3d2-7bf5651ded46","","987","
                    <div class=""stimulus-container"">
                        <img src=""images/causal_sequence/museum_causal/museum_causal_8.png"" class=""exp-image"">
                        <div class=""question-area"">
                            <p style=""font-size: 20px; font-weight: bold; margin: 0;"">Is there a person in this image?</p>
                        </div>
                    </div>","0","main_causal_task","8","museum_causal","","","",""
"","","","","","html-keyboard-response","32","113786","0.0-32.0","79A142A08DBC4351870DA1E783E6B79B","019ce678-d09e-7b88-b725-cbb9b39f7edd","019ce643-47c6-74a0-b3d2-7bf5651ded46","","null","
                    <div class=""stimulus-container"">
                        <img src=""images/causal_sequence/museum_causal/museum_causal_9.png"" class=""exp-image"">
                        <div class=""question-area""></div> 
                    </div>","null","","","","","","",""
"","","","","","html-button-response","33","116420","0.0-33.0","79A142A08DBC4351870DA1E783E6B79B","019ce678-d09e-7b88-b725-cbb9b39f7edd","019ce643-47c6-74a0-b3d2-7bf5651ded46","","2633","
                    <div class=""stimulus-container"">
                        <img src=""images/causal_sequence/museum_causal/museum_causal_9.png"" class=""exp-image"">
                        <div class=""question-area"">
                            <p style=""font-size: 20px; font-weight: bold; margin: 0;"">Is there a person in this image?</p>
                        </div>
                    </div>","1","main_causal_task","9","museum_causal","","","",""
"","","","","","html-keyboard-response","34","117459","0.0-34.0","79A142A08DBC4351870DA1E783E6B79B","019ce678-d09e-7b88-b725-cbb9b39f7edd","019ce643-47c6-74a0-b3d2-7bf5651ded46","","null","<div style=""background-color: gray; width: 100vw; height: 100vh;""></div>","null","","","","","","",""
"","","","","","html-keyboard-response","35","122472","0.0-35.0","79A142A08DBC4351870DA1E783E6B79B","019ce678-d09e-7b88-b725-cbb9b39f7edd","019ce643-47c6-74a0-b3d2-7bf5651ded46","","null","
                    <div class=""stimulus-container"">
                        <img src=""images/causal_sequence/dog_causal/dog_causal_1.png"" class=""exp-image"">
                        <div class=""question-area""></div> 
                    </div>","null","","","","","","",""
"","","","","","html-button-response","36","124579","0.0-36.0","79A142A08DBC4351870DA1E783E6B79B","019ce678-d09e-7b88-b725-cbb9b39f7edd","019ce643-47c6-74a0-b3d2-7bf5651ded46","","2106","
                    <div class=""stimulus-container"">
                        <img src=""images/causal_sequence/dog_causal/dog_causal_1.png"" class=""exp-image"">
                        <div class=""question-area"">
                            <p style=""font-size: 20px; font-weight: bold; margin: 0;"">Is there a person in this image?</p>
                        </div>
                    </div>","0","main_causal_task","1","dog_causal","","","",""
"","","","","","html-keyboard-response","37","129589","0.0-37.0","79A142A08DBC4351870DA1E783E6B79B","019ce678-d09e-7b88-b725-cbb9b39f7edd","019ce643-47c6-74a0-b3d2-7bf5651ded46","","null","
                    <div class=""stimulus-container"">
                        <img src=""images/causal_sequence/dog_causal/dog_causal_2.png"" class=""exp-image"">
                        <div class=""question-area""></div> 
                    </div>","null","","","","","","",""
"","","","","","html-button-response","38","130372","0.0-38.0","79A142A08DBC4351870DA1E783E6B79B","019ce678-d09e-7b88-b725-cbb9b39f7edd","019ce643-47c6-74a0-b3d2-7bf5651ded46","","781","
                    <div class=""stimulus-container"">
                        <img src=""images/causal_sequence/dog_causal/dog_causal_2.png"" class=""exp-image"">
                        <div class=""question-area"">
                            <p style=""font-size: 20px; font-weight: bold; margin: 0;"">Is there a person in this image?</p>
                        </div>
                    </div>","0","main_causal_task","2","dog_causal","","","",""
"","","","","","html-keyboard-response","39","135390","0.0-39.0","79A142A08DBC4351870DA1E783E6B79B","019ce678-d09e-7b88-b725-cbb9b39f7edd","019ce643-47c6-74a0-b3d2-7bf5651ded46","","null","
                    <div class=""stimulus-container"">
                        <img src=""images/causal_sequence/dog_causal/dog_causal_3.png"" class=""exp-image"">
                        <div class=""question-area""></div> 
                    </div>","null","","","","","","",""
"","","","","","html-button-response","40","136606","0.0-40.0","79A142A08DBC4351870DA1E783E6B79B","019ce678-d09e-7b88-b725-cbb9b39f7edd","019ce643-47c6-74a0-b3d2-7bf5651ded46","","1215","
                    <div class=""stimulus-container"">
                        <img src=""images/causal_sequence/dog_causal/dog_causal_3.png"" class=""exp-image"">
                        <div class=""question-area"">
                            <p style=""font-size: 20px; font-weight: bold; margin: 0;"">Is there a person in this image?</p>
                        </div>
                    </div>","0","main_causal_task","3","dog_causal","","","",""
"","","","","","html-keyboard-response","41","141617","0.0-41.0","79A142A08DBC4351870DA1E783E6B79B","019ce678-d09e-7b88-b725-cbb9b39f7edd","019ce643-47c6-74a0-b3d2-7bf5651ded46","","null","
                    <div class=""stimulus-container"">
                        <img src=""images/causal_sequence/dog_causal/dog_causal_4.png"" class=""exp-image"">
                        <div class=""question-area""></div> 
                    </div>","null","","","","","","",""
"","","","","","html-button-response","42","142201","0.0-42.0","79A142A08DBC4351870DA1E783E6B79B","019ce678-d09e-7b88-b725-cbb9b39f7edd","019ce643-47c6-74a0-b3d2-7bf5651ded46","","581","
                    <div class=""stimulus-container"">
                        <img src=""images/causal_sequence/dog_causal/dog_causal_4.png"" class=""exp-image"">
                        <div class=""question-area"">
                            <p style=""font-size: 20px; font-weight: bold; margin: 0;"">Is there a person in this image?</p>
                        </div>
                    </div>","0","main_causal_task","4","dog_causal","","","",""
"","","","","","html-keyboard-response","43","147212","0.0-43.0","79A142A08DBC4351870DA1E783E6B79B","019ce678-d09e-7b88-b725-cbb9b39f7edd","019ce643-47c6-74a0-b3d2-7bf5651ded46","","null","
                    <div class=""stimulus-container"">
                        <img src=""images/causal_sequence/dog_causal/dog_causal_5.png"" class=""exp-image"">
                        <div class=""question-area""></div> 
                    </div>","null","","","","","","",""
"","","","","","html-button-response","44","148786","0.0-44.0","79A142A08DBC4351870DA1E783E6B79B","019ce678-d09e-7b88-b725-cbb9b39f7edd","019ce643-47c6-74a0-b3d2-7bf5651ded46","","1572","
                    <div class=""stimulus-container"">
                        <img src=""images/causal_sequence/dog_causal/dog_causal_5.png"" class=""exp-image"">
                        <div class=""question-area"">
                            <p style=""font-size: 20px; font-weight: bold; margin: 0;"">Is there a person in this image?</p>
                        </div>
                    </div>","0","main_causal_task","5","dog_causal","","","",""
"","","","","","html-keyboard-response","45","153790","0.0-45.0","79A142A08DBC4351870DA1E783E6B79B","019ce678-d09e-7b88-b725-cbb9b39f7edd","019ce643-47c6-74a0-b3d2-7bf5651ded46","","null","
                    <div class=""stimulus-container"">
                        <img src=""images/causal_sequence/dog_causal/dog_causal_6.png"" class=""exp-image"">
                        <div class=""question-area""></div> 
                    </div>","null","","","","","","",""
"","","","","","html-button-response","46","155464","0.0-46.0","79A142A08DBC4351870DA1E783E6B79B","019ce678-d09e-7b88-b725-cbb9b39f7edd","019ce643-47c6-74a0-b3d2-7bf5651ded46","","1673","
                    <div class=""stimulus-container"">
                        <img src=""images/causal_sequence/dog_causal/dog_causal_6.png"" class=""exp-image"">
                        <div class=""question-area"">
                            <p style=""font-size: 20px; font-weight: bold; margin: 0;"">Is there a person in this image?</p>
                        </div>
                    </div>","0","main_causal_task","6","dog_causal","","","",""
"","","","","","html-keyboard-response","47","160477","0.0-47.0","79A142A08DBC4351870DA1E783E6B79B","019ce678-d09e-7b88-b725-cbb9b39f7edd","019ce643-47c6-74a0-b3d2-7bf5651ded46","","null","
                    <div class=""stimulus-container"">
                        <img src=""images/causal_sequence/dog_causal/dog_causal_7.png"" class=""exp-image"">
                        <div class=""question-area""></div> 
                    </div>","null","","","","","","",""
"","","","","","html-button-response","48","162016","0.0-48.0","79A142A08DBC4351870DA1E783E6B79B","019ce678-d09e-7b88-b725-cbb9b39f7edd","019ce643-47c6-74a0-b3d2-7bf5651ded46","","1538","
                    <div class=""stimulus-container"">
                        <img src=""images/causal_sequence/dog_causal/dog_causal_7.png"" class=""exp-image"">
                        <div class=""question-area"">
                            <p style=""font-size: 20px; font-weight: bold; margin: 0;"">Is there a person in this image?</p>
                        </div>
                    </div>","0","main_causal_task","7","dog_causal","","","",""
"","","","","","html-keyboard-response","49","167028","0.0-49.0","79A142A08DBC4351870DA1E783E6B79B","019ce678-d09e-7b88-b725-cbb9b39f7edd","019ce643-47c6-74a0-b3d2-7bf5651ded46","","null","
                    <div class=""stimulus-container"">
                        <img src=""images/causal_sequence/dog_causal/dog_causal_8.png"" class=""exp-image"">
                        <div class=""question-area""></div> 
                    </div>","null","","","","","","",""
"","","","","","html-button-response","50","169741","0.0-50.0","79A142A08DBC4351870DA1E783E6B79B","019ce678-d09e-7b88-b725-cbb9b39f7edd","019ce643-47c6-74a0-b3d2-7bf5651ded46","","2711","
                    <div class=""stimulus-container"">
                        <img src=""images/causal_sequence/dog_causal/dog_causal_8.png"" class=""exp-image"">
                        <div class=""question-area"">
                            <p style=""font-size: 20px; font-weight: bold; margin: 0;"">Is there a person in this image?</p>
                        </div>
                    </div>","0","main_causal_task","8","dog_causal","","","",""
"","","","","","html-keyboard-response","51","174751","0.0-51.0","79A142A08DBC4351870DA1E783E6B79B","019ce678-d09e-7b88-b725-cbb9b39f7edd","019ce643-47c6-74a0-b3d2-7bf5651ded46","","null","
                    <div class=""stimulus-container"">
                        <img src=""images/causal_sequence/dog_causal/dog_causal_9.png"" class=""exp-image"">
                        <div class=""question-area""></div> 
                    </div>","null","","","","","","",""
"","","","","","html-button-response","52","176154","0.0-52.0","79A142A08DBC4351870DA1E783E6B79B","019ce678-d09e-7b88-b725-cbb9b39f7edd","019ce643-47c6-74a0-b3d2-7bf5651ded46","","1401","
                    <div class=""stimulus-container"">
                        <img src=""images/causal_sequence/dog_causal/dog_causal_9.png"" class=""exp-image"">
                        <div class=""question-area"">
                            <p style=""font-size: 20px; font-weight: bold; margin: 0;"">Is there a person in this image?</p>
                        </div>
                    </div>","0","main_causal_task","9","dog_causal","","","",""
"","","","","","html-keyboard-response","53","177170","0.0-53.0","79A142A08DBC4351870DA1E783E6B79B","019ce678-d09e-7b88-b725-cbb9b39f7edd","019ce643-47c6-74a0-b3d2-7bf5651ded46","","null","<div style=""background-color: gray; width: 100vw; height: 100vh;""></div>","null","","","","","","",""
"","","","","","html-keyboard-response","54","182174","0.0-54.0","79A142A08DBC4351870DA1E783E6B79B","019ce678-d09e-7b88-b725-cbb9b39f7edd","019ce643-47c6-74a0-b3d2-7bf5651ded46","","null","
                    <div class=""stimulus-container"">
                        <img src=""images/causal_sequence/coin_causal/coin_causal_1.png"" class=""exp-image"">
                        <div class=""question-area""></div> 
                    </div>","null","","","","","","",""
"","","","","","html-button-response","55","183279","0.0-55.0","79A142A08DBC4351870DA1E783E6B79B","019ce678-d09e-7b88-b725-cbb9b39f7edd","019ce643-47c6-74a0-b3d2-7bf5651ded46","","1104","
                    <div class=""stimulus-container"">
                        <img src=""images/causal_sequence/coin_causal/coin_causal_1.png"" class=""exp-image"">
                        <div class=""question-area"">
                            <p style=""font-size: 20px; font-weight: bold; margin: 0;"">Is there a person in this image?</p>
                        </div>
                    </div>","0","main_causal_task","1","coin_causal","","","",""
"","","","","","html-keyboard-response","56","188294","0.0-56.0","79A142A08DBC4351870DA1E783E6B79B","019ce678-d09e-7b88-b725-cbb9b39f7edd","019ce643-47c6-74a0-b3d2-7bf5651ded46","","null","
                    <div class=""stimulus-container"">
                        <img src=""images/causal_sequence/coin_causal/coin_causal_2.png"" class=""exp-image"">
                        <div class=""question-area""></div> 
                    </div>","null","","","","","","",""
"","","","","","html-button-response","57","188890","0.0-57.0","79A142A08DBC4351870DA1E783E6B79B","019ce678-d09e-7b88-b725-cbb9b39f7edd","019ce643-47c6-74a0-b3d2-7bf5651ded46","","594","
                    <div class=""stimulus-container"">
                        <img src=""images/causal_sequence/coin_causal/coin_causal_2.png"" class=""exp-image"">
                        <div class=""question-area"">
                            <p style=""font-size: 20px; font-weight: bold; margin: 0;"">Is there a person in this image?</p>
                        </div>
                    </div>","0","main_causal_task","2","coin_causal","","","",""
"","","","","","html-keyboard-response","58","193906","0.0-58.0","79A142A08DBC4351870DA1E783E6B79B","019ce678-d09e-7b88-b725-cbb9b39f7edd","019ce643-47c6-74a0-b3d2-7bf5651ded46","","null","
                    <div class=""stimulus-container"">
                        <img src=""images/causal_sequence/coin_causal/coin_causal_3.png"" class=""exp-image"">
                        <div class=""question-area""></div> 
                    </div>","null","","","","","","",""
"","","","","","html-button-response","59","194682","0.0-59.0","79A142A08DBC4351870DA1E783E6B79B","019ce678-d09e-7b88-b725-cbb9b39f7edd","019ce643-47c6-74a0-b3d2-7bf5651ded46","","768","
                    <div class=""stimulus-container"">
                        <img src=""images/causal_sequence/coin_causal/coin_causal_3.png"" class=""exp-image"">
                        <div class=""question-area"">
                            <p style=""font-size: 20px; font-weight: bold; margin: 0;"">Is there a person in this image?</p>
                        </div>
                    </div>","0","main_causal_task","3","coin_causal","","","",""
"","","","","","html-keyboard-response","60","199693","0.0-60.0","79A142A08DBC4351870DA1E783E6B79B","019ce678-d09e-7b88-b725-cbb9b39f7edd","019ce643-47c6-74a0-b3d2-7bf5651ded46","","null","
                    <div class=""stimulus-container"">
                        <img src=""images/causal_sequence/coin_causal/coin_causal_4.png"" class=""exp-image"">
                        <div class=""question-area""></div> 
                    </div>","null","","","","","","",""
"","","","","","html-button-response","61","200469","0.0-61.0","79A142A08DBC4351870DA1E783E6B79B","019ce678-d09e-7b88-b725-cbb9b39f7edd","019ce643-47c6-74a0-b3d2-7bf5651ded46","","774","
                    <div class=""stimulus-container"">
                        <img src=""images/causal_sequence/coin_causal/coin_causal_4.png"" class=""exp-image"">
                        <div class=""question-area"">
                            <p style=""font-size: 20px; font-weight: bold; margin: 0;"">Is there a person in this image?</p>
                        </div>
                    </div>","0","main_causal_task","4","coin_causal","","","",""
"","","","","","html-keyboard-response","62","205479","0.0-62.0","79A142A08DBC4351870DA1E783E6B79B","019ce678-d09e-7b88-b725-cbb9b39f7edd","019ce643-47c6-74a0-b3d2-7bf5651ded46","","null","
                    <div class=""stimulus-container"">
                        <img src=""images/causal_sequence/coin_causal/coin_causal_5.png"" class=""exp-image"">
                        <div class=""question-area""></div> 
                    </div>","null","","","","","","",""
"","","","","","html-button-response","63","206062","0.0-63.0","79A142A08DBC4351870DA1E783E6B79B","019ce678-d09e-7b88-b725-cbb9b39f7edd","019ce643-47c6-74a0-b3d2-7bf5651ded46","","581","
                    <div class=""stimulus-container"">
                        <img src=""images/causal_sequence/coin_causal/coin_causal_5.png"" class=""exp-image"">
                        <div class=""question-area"">
                            <p style=""font-size: 20px; font-weight: bold; margin: 0;"">Is there a person in this image?</p>
                        </div>
                    </div>","0","main_causal_task","5","coin_causal","","","",""
"","","","","","html-keyboard-response","64","211078","0.0-64.0","79A142A08DBC4351870DA1E783E6B79B","019ce678-d09e-7b88-b725-cbb9b39f7edd","019ce643-47c6-74a0-b3d2-7bf5651ded46","","null","
                    <div class=""stimulus-container"">
                        <img src=""images/causal_sequence/coin_causal/coin_causal_6.png"" class=""exp-image"">
                        <div class=""question-area""></div> 
                    </div>","null","","","","","","",""
"","","","","","html-button-response","65","211635","0.0-65.0","79A142A08DBC4351870DA1E783E6B79B","019ce678-d09e-7b88-b725-cbb9b39f7edd","019ce643-47c6-74a0-b3d2-7bf5651ded46","","556","
                    <div class=""stimulus-container"">
                        <img src=""images/causal_sequence/coin_causal/coin_causal_6.png"" class=""exp-image"">
                        <div class=""question-area"">
                            <p style=""font-size: 20px; font-weight: bold; margin: 0;"">Is there a person in this image?</p>
                        </div>
                    </div>","0","main_causal_task","6","coin_causal","","","",""
"","","","","","html-keyboard-response","66","216649","0.0-66.0","79A142A08DBC4351870DA1E783E6B79B","019ce678-d09e-7b88-b725-cbb9b39f7edd","019ce643-47c6-74a0-b3d2-7bf5651ded46","","null","
                    <div class=""stimulus-container"">
                        <img src=""images/causal_sequence/coin_causal/coin_causal_7.png"" class=""exp-image"">
                        <div class=""question-area""></div> 
                    </div>","null","","","","","","",""
"","","","","","html-button-response","67","217736","0.0-67.0","79A142A08DBC4351870DA1E783E6B79B","019ce678-d09e-7b88-b725-cbb9b39f7edd","019ce643-47c6-74a0-b3d2-7bf5651ded46","","1086","
                    <div class=""stimulus-container"">
                        <img src=""images/causal_sequence/coin_causal/coin_causal_7.png"" class=""exp-image"">
                        <div class=""question-area"">
                            <p style=""font-size: 20px; font-weight: bold; margin: 0;"">Is there a person in this image?</p>
                        </div>
                    </div>","1","main_causal_task","7","coin_causal","","","",""
"","","","","","html-keyboard-response","68","222748","0.0-68.0","79A142A08DBC4351870DA1E783E6B79B","019ce678-d09e-7b88-b725-cbb9b39f7edd","019ce643-47c6-74a0-b3d2-7bf5651ded46","","null","
                    <div class=""stimulus-container"">
                        <img src=""images/causal_sequence/coin_causal/coin_causal_8.png"" class=""exp-image"">
                        <div class=""question-area""></div> 
                    </div>","null","","","","","","",""
"","","","","","html-button-response","69","223967","0.0-69.0","79A142A08DBC4351870DA1E783E6B79B","019ce678-d09e-7b88-b725-cbb9b39f7edd","019ce643-47c6-74a0-b3d2-7bf5651ded46","","1218","
                    <div class=""stimulus-container"">
                        <img src=""images/causal_sequence/coin_causal/coin_causal_8.png"" class=""exp-image"">
                        <div class=""question-area"">
                            <p style=""font-size: 20px; font-weight: bold; margin: 0;"">Is there a person in this image?</p>
                        </div>
                    </div>","0","main_causal_task","8","coin_causal","","","",""
"","","","","","html-keyboard-response","70","228981","0.0-70.0","79A142A08DBC4351870DA1E783E6B79B","019ce678-d09e-7b88-b725-cbb9b39f7edd","019ce643-47c6-74a0-b3d2-7bf5651ded46","","null","
                    <div class=""stimulus-container"">
                        <img src=""images/causal_sequence/coin_causal/coin_causal_9.png"" class=""exp-image"">
                        <div class=""question-area""></div> 
                    </div>","null","","","","","","",""
"","","","","","html-button-response","71","230066","0.0-71.0","79A142A08DBC4351870DA1E783E6B79B","019ce678-d09e-7b88-b725-cbb9b39f7edd","019ce643-47c6-74a0-b3d2-7bf5651ded46","","1083","
                    <div class=""stimulus-container"">
                        <img src=""images/causal_sequence/coin_causal/coin_causal_9.png"" class=""exp-image"">
                        <div class=""question-area"">
                            <p style=""font-size: 20px; font-weight: bold; margin: 0;"">Is there a person in this image?</p>
                        </div>
                    </div>","0","main_causal_task","9","coin_causal","","","",""
"","","","","","html-keyboard-response","72","231080","0.0-72.0","79A142A08DBC4351870DA1E783E6B79B","019ce678-d09e-7b88-b725-cbb9b39f7edd","019ce643-47c6-74a0-b3d2-7bf5651ded46","","null","<div style=""background-color: gray; width: 100vw; height: 100vh;""></div>","null","","","","","","",""
"","","","","","html-keyboard-response","73","236091","0.0-73.0","79A142A08DBC4351870DA1E783E6B79B","019ce678-d09e-7b88-b725-cbb9b39f7edd","019ce643-47c6-74a0-b3d2-7bf5651ded46","","null","
                    <div class=""stimulus-container"">
                        <img src=""images/causal_sequence/package_causal/package_causal_1.png"" class=""exp-image"">
                        <div class=""question-area""></div> 
                    </div>","null","","","","","","",""
"","","","","","html-button-response","74","236872","0.0-74.0","79A142A08DBC4351870DA1E783E6B79B","019ce678-d09e-7b88-b725-cbb9b39f7edd","019ce643-47c6-74a0-b3d2-7bf5651ded46","","780","
                    <div class=""stimulus-container"">
                        <img src=""images/causal_sequence/package_causal/package_causal_1.png"" class=""exp-image"">
                        <div class=""question-area"">
                            <p style=""font-size: 20px; font-weight: bold; margin: 0;"">Is there a person in this image?</p>
                        </div>
                    </div>","0","main_causal_task","1","package_causal","","","",""
"","","","","","html-keyboard-response","75","241881","0.0-75.0","79A142A08DBC4351870DA1E783E6B79B","019ce678-d09e-7b88-b725-cbb9b39f7edd","019ce643-47c6-74a0-b3d2-7bf5651ded46","","null","
                    <div class=""stimulus-container"">
                        <img src=""images/causal_sequence/package_causal/package_causal_2.png"" class=""exp-image"">
                        <div class=""question-area""></div> 
                    </div>","null","","","","","","",""
"","","","","","html-button-response","76","242494","0.0-76.0","79A142A08DBC4351870DA1E783E6B79B","019ce678-d09e-7b88-b725-cbb9b39f7edd","019ce643-47c6-74a0-b3d2-7bf5651ded46","","611","
                    <div class=""stimulus-container"">
                        <img src=""images/causal_sequence/package_causal/package_causal_2.png"" class=""exp-image"">
                        <div class=""question-area"">
                            <p style=""font-size: 20px; font-weight: bold; margin: 0;"">Is there a person in this image?</p>
                        </div>
                    </div>","0","main_causal_task","2","package_causal","","","",""
"","","","","","html-keyboard-response","77","247501","0.0-77.0","79A142A08DBC4351870DA1E783E6B79B","019ce678-d09e-7b88-b725-cbb9b39f7edd","019ce643-47c6-74a0-b3d2-7bf5651ded46","","null","
                    <div class=""stimulus-container"">
                        <img src=""images/causal_sequence/package_causal/package_causal_3.png"" class=""exp-image"">
                        <div class=""question-area""></div> 
                    </div>","null","","","","","","",""
"","","","","","html-button-response","78","248225","0.0-78.0","79A142A08DBC4351870DA1E783E6B79B","019ce678-d09e-7b88-b725-cbb9b39f7edd","019ce643-47c6-74a0-b3d2-7bf5651ded46","","723","
                    <div class=""stimulus-container"">
                        <img src=""images/causal_sequence/package_causal/package_causal_3.png"" class=""exp-image"">
                        <div class=""question-area"">
                            <p style=""font-size: 20px; font-weight: bold; margin: 0;"">Is there a person in this image?</p>
                        </div>
                    </div>","0","main_causal_task","3","package_causal","","","",""
"","","","","","html-keyboard-response","79","253231","0.0-79.0","79A142A08DBC4351870DA1E783E6B79B","019ce678-d09e-7b88-b725-cbb9b39f7edd","019ce643-47c6-74a0-b3d2-7bf5651ded46","","null","
                    <div class=""stimulus-container"">
                        <img src=""images/causal_sequence/package_causal/package_causal_4.png"" class=""exp-image"">
                        <div class=""question-area""></div> 
                    </div>","null","","","","","","",""
"","","","","","html-button-response","80","254078","0.0-80.0","79A142A08DBC4351870DA1E783E6B79B","019ce678-d09e-7b88-b725-cbb9b39f7edd","019ce643-47c6-74a0-b3d2-7bf5651ded46","","845","
                    <div class=""stimulus-container"">
                        <img src=""images/causal_sequence/package_causal/package_causal_4.png"" class=""exp-image"">
                        <div class=""question-area"">
                            <p style=""font-size: 20px; font-weight: bold; margin: 0;"">Is there a person in this image?</p>
                        </div>
                    </div>","0","main_causal_task","4","package_causal","","","",""
"","","","","","html-keyboard-response","81","259082","0.0-81.0","79A142A08DBC4351870DA1E783E6B79B","019ce678-d09e-7b88-b725-cbb9b39f7edd","019ce643-47c6-74a0-b3d2-7bf5651ded46","","null","
                    <div class=""stimulus-container"">
                        <img src=""images/causal_sequence/package_causal/package_causal_5.png"" class=""exp-image"">
                        <div class=""question-area""></div> 
                    </div>","null","","","","","","",""
"","","","","","html-button-response","82","259564","0.0-82.0","79A142A08DBC4351870DA1E783E6B79B","019ce678-d09e-7b88-b725-cbb9b39f7edd","019ce643-47c6-74a0-b3d2-7bf5651ded46","","479","
                    <div class=""stimulus-container"">
                        <img src=""images/causal_sequence/package_causal/package_causal_5.png"" class=""exp-image"">
                        <div class=""question-area"">
                            <p style=""font-size: 20px; font-weight: bold; margin: 0;"">Is there a person in this image?</p>
                        </div>
                    </div>","0","main_causal_task","5","package_causal","","","",""
"","","","","","html-keyboard-response","83","264577","0.0-83.0","79A142A08DBC4351870DA1E783E6B79B","019ce678-d09e-7b88-b725-cbb9b39f7edd","019ce643-47c6-74a0-b3d2-7bf5651ded46","","null","
                    <div class=""stimulus-container"">
                        <img src=""images/causal_sequence/package_causal/package_causal_6.png"" class=""exp-image"">
                        <div class=""question-area""></div> 
                    </div>","null","","","","","","",""
"","","","","","html-button-response","84","265314","0.0-84.0","79A142A08DBC4351870DA1E783E6B79B","019ce678-d09e-7b88-b725-cbb9b39f7edd","019ce643-47c6-74a0-b3d2-7bf5651ded46","","736","
                    <div class=""stimulus-container"">
                        <img src=""images/causal_sequence/package_causal/package_causal_6.png"" class=""exp-image"">
                        <div class=""question-area"">
                            <p style=""font-size: 20px; font-weight: bold; margin: 0;"">Is there a person in this image?</p>
                        </div>
                    </div>","0","main_causal_task","6","package_causal","","","",""
"","","","","","html-keyboard-response","85","270331","0.0-85.0","79A142A08DBC4351870DA1E783E6B79B","019ce678-d09e-7b88-b725-cbb9b39f7edd","019ce643-47c6-74a0-b3d2-7bf5651ded46","","null","
                    <div class=""stimulus-container"">
                        <img src=""images/causal_sequence/package_causal/package_causal_7.png"" class=""exp-image"">
                        <div class=""question-area""></div> 
                    </div>","null","","","","","","",""
"","","","","","html-button-response","86","271073","0.0-86.0","79A142A08DBC4351870DA1E783E6B79B","019ce678-d09e-7b88-b725-cbb9b39f7edd","019ce643-47c6-74a0-b3d2-7bf5651ded46","","740","
                    <div class=""stimulus-container"">
                        <img src=""images/causal_sequence/package_causal/package_causal_7.png"" class=""exp-image"">
                        <div class=""question-area"">
                            <p style=""font-size: 20px; font-weight: bold; margin: 0;"">Is there a person in this image?</p>
                        </div>
                    </div>","0","main_causal_task","7","package_causal","","","",""
"","","","","","html-keyboard-response","87","276081","0.0-87.0","79A142A08DBC4351870DA1E783E6B79B","019ce678-d09e-7b88-b725-cbb9b39f7edd","019ce643-47c6-74a0-b3d2-7bf5651ded46","","null","
                    <div class=""stimulus-container"">
                        <img src=""images/causal_sequence/package_causal/package_causal_8.png"" class=""exp-image"">
                        <div class=""question-area""></div> 
                    </div>","null","","","","","","",""
"","","","","","html-button-response","88","277200","0.0-88.0","79A142A08DBC4351870DA1E783E6B79B","019ce678-d09e-7b88-b725-cbb9b39f7edd","019ce643-47c6-74a0-b3d2-7bf5651ded46","","1118","
                    <div class=""stimulus-container"">
                        <img src=""images/causal_sequence/package_causal/package_causal_8.png"" class=""exp-image"">
                        <div class=""question-area"">
                            <p style=""font-size: 20px; font-weight: bold; margin: 0;"">Is there a person in this image?</p>
                        </div>
                    </div>","0","main_causal_task","8","package_causal","","","",""
"","","","","","html-keyboard-response","89","282212","0.0-89.0","79A142A08DBC4351870DA1E783E6B79B","019ce678-d09e-7b88-b725-cbb9b39f7edd","019ce643-47c6-74a0-b3d2-7bf5651ded46","","null","
                    <div class=""stimulus-container"">
                        <img src=""images/causal_sequence/package_causal/package_causal_9.png"" class=""exp-image"">
                        <div class=""question-area""></div> 
                    </div>","null","","","","","","",""
"","","","","","html-button-response","90","283047","0.0-90.0","79A142A08DBC4351870DA1E783E6B79B","019ce678-d09e-7b88-b725-cbb9b39f7edd","019ce643-47c6-74a0-b3d2-7bf5651ded46","","833","
                    <div class=""stimulus-container"">
                        <img src=""images/causal_sequence/package_causal/package_causal_9.png"" class=""exp-image"">
                        <div class=""question-area"">
                            <p style=""font-size: 20px; font-weight: bold; margin: 0;"">Is there a person in this image?</p>
                        </div>
                    </div>","0","main_causal_task","9","package_causal","","","",""
"","","","","","html-keyboard-response","91","284057","0.0-91.0","79A142A08DBC4351870DA1E783E6B79B","019ce678-d09e-7b88-b725-cbb9b39f7edd","019ce643-47c6-74a0-b3d2-7bf5651ded46","","null","<div style=""background-color: gray; width: 100vw; height: 100vh;""></div>","null","","","","","","",""
"","","","","","html-keyboard-response","92","289069","0.0-92.0","79A142A08DBC4351870DA1E783E6B79B","019ce678-d09e-7b88-b725-cbb9b39f7edd","019ce643-47c6-74a0-b3d2-7bf5651ded46","","null","
                    <div class=""stimulus-container"">
                        <img src=""images/causal_sequence/saving_a_cat_causal/saving_a_cat_causal_1.png"" class=""exp-image"">
                        <div class=""question-area""></div> 
                    </div>","null","","","","","","",""
"","","","","","html-button-response","93","290283","0.0-93.0","79A142A08DBC4351870DA1E783E6B79B","019ce678-d09e-7b88-b725-cbb9b39f7edd","019ce643-47c6-74a0-b3d2-7bf5651ded46","","1212","
                    <div class=""stimulus-container"">
                        <img src=""images/causal_sequence/saving_a_cat_causal/saving_a_cat_causal_1.png"" class=""exp-image"">
                        <div class=""question-area"">
                            <p style=""font-size: 20px; font-weight: bold; margin: 0;"">Is there a person in this image?</p>
                        </div>
                    </div>","0","main_causal_task","1","saving_a_cat_causal","","","",""
"","","","","","html-keyboard-response","94","295289","0.0-94.0","79A142A08DBC4351870DA1E783E6B79B","019ce678-d09e-7b88-b725-cbb9b39f7edd","019ce643-47c6-74a0-b3d2-7bf5651ded46","","null","
                    <div class=""stimulus-container"">
                        <img src=""images/causal_sequence/saving_a_cat_causal/saving_a_cat_causal_2.png"" class=""exp-image"">
                        <div class=""question-area""></div> 
                    </div>","null","","","","","","",""
"","","","","","html-button-response","95","296211","0.0-95.0","79A142A08DBC4351870DA1E783E6B79B","019ce678-d09e-7b88-b725-cbb9b39f7edd","019ce643-47c6-74a0-b3d2-7bf5651ded46","","921","
                    <div class=""stimulus-container"">
                        <img src=""images/causal_sequence/saving_a_cat_causal/saving_a_cat_causal_2.png"" class=""exp-image"">
                        <div class=""question-area"">
                            <p style=""font-size: 20px; font-weight: bold; margin: 0;"">Is there a person in this image?</p>
                        </div>
                    </div>","1","main_causal_task","2","saving_a_cat_causal","","","",""
"","","","","","html-keyboard-response","96","301221","0.0-96.0","79A142A08DBC4351870DA1E783E6B79B","019ce678-d09e-7b88-b725-cbb9b39f7edd","019ce643-47c6-74a0-b3d2-7bf5651ded46","","null","
                    <div class=""stimulus-container"">
                        <img src=""images/causal_sequence/saving_a_cat_causal/saving_a_cat_causal_3.png"" class=""exp-image"">
                        <div class=""question-area""></div> 
                    </div>","null","","","","","","",""
"","","","","","html-button-response","97","301813","0.0-97.0","79A142A08DBC4351870DA1E783E6B79B","019ce678-d09e-7b88-b725-cbb9b39f7edd","019ce643-47c6-74a0-b3d2-7bf5651ded46","","590","
                    <div class=""stimulus-container"">
                        <img src=""images/causal_sequence/saving_a_cat_causal/saving_a_cat_causal_3.png"" class=""exp-image"">
                        <div class=""question-area"">
                            <p style=""font-size: 20px; font-weight: bold; margin: 0;"">Is there a person in this image?</p>
                        </div>
                    </div>","1","main_causal_task","3","saving_a_cat_causal","","","",""
"","","","","","html-keyboard-response","98","306821","0.0-98.0","79A142A08DBC4351870DA1E783E6B79B","019ce678-d09e-7b88-b725-cbb9b39f7edd","019ce643-47c6-74a0-b3d2-7bf5651ded46","","null","
                    <div class=""stimulus-container"">
                        <img src=""images/causal_sequence/saving_a_cat_causal/saving_a_cat_causal_4.png"" class=""exp-image"">
                        <div class=""question-area""></div> 
                    </div>","null","","","","","","",""
"","","","","","html-button-response","99","307435","0.0-99.0","79A142A08DBC4351870DA1E783E6B79B","019ce678-d09e-7b88-b725-cbb9b39f7edd","019ce643-47c6-74a0-b3d2-7bf5651ded46","","612","
                    <div class=""stimulus-container"">
                        <img src=""images/causal_sequence/saving_a_cat_causal/saving_a_cat_causal_4.png"" class=""exp-image"">
                        <div class=""question-area"">
                            <p style=""font-size: 20px; font-weight: bold; margin: 0;"">Is there a person in this image?</p>
                        </div>
                    </div>","0","main_causal_task","4","saving_a_cat_causal","","","",""
"","","","","","html-keyboard-response","100","312442","0.0-100.0","79A142A08DBC4351870DA1E783E6B79B","019ce678-d09e-7b88-b725-cbb9b39f7edd","019ce643-47c6-74a0-b3d2-7bf5651ded46","","null","
                    <div class=""stimulus-container"">
                        <img src=""images/causal_sequence/saving_a_cat_causal/saving_a_cat_causal_5.png"" class=""exp-image"">
                        <div class=""question-area""></div> 
                    </div>","null","","","","","","",""
"","","","","","html-button-response","101","313234","0.0-101.0","79A142A08DBC4351870DA1E783E6B79B","019ce678-d09e-7b88-b725-cbb9b39f7edd","019ce643-47c6-74a0-b3d2-7bf5651ded46","","790","
                    <div class=""stimulus-container"">
                        <img src=""images/causal_sequence/saving_a_cat_causal/saving_a_cat_causal_5.png"" class=""exp-image"">
                        <div class=""question-area"">
                            <p style=""font-size: 20px; font-weight: bold; margin: 0;"">Is there a person in this image?</p>
                        </div>
                    </div>","0","main_causal_task","5","saving_a_cat_causal","","","",""
"","","","","","html-keyboard-response","102","318242","0.0-102.0","79A142A08DBC4351870DA1E783E6B79B","019ce678-d09e-7b88-b725-cbb9b39f7edd","019ce643-47c6-74a0-b3d2-7bf5651ded46","","null","
                    <div class=""stimulus-container"">
                        <img src=""images/causal_sequence/saving_a_cat_causal/saving_a_cat_causal_6.png"" class=""exp-image"">
                        <div class=""question-area""></div> 
                    </div>","null","","","","","","",""
"","","","","","html-button-response","103","318998","0.0-103.0","79A142A08DBC4351870DA1E783E6B79B","019ce678-d09e-7b88-b725-cbb9b39f7edd","019ce643-47c6-74a0-b3d2-7bf5651ded46","","754","
                    <div class=""stimulus-container"">
                        <img src=""images/causal_sequence/saving_a_cat_causal/saving_a_cat_causal_6.png"" class=""exp-image"">
                        <div class=""question-area"">
                            <p style=""font-size: 20px; font-weight: bold; margin: 0;"">Is there a person in this image?</p>
                        </div>
                    </div>","0","main_causal_task","6","saving_a_cat_causal","","","",""
"","","","","","html-keyboard-response","104","324015","0.0-104.0","79A142A08DBC4351870DA1E783E6B79B","019ce678-d09e-7b88-b725-cbb9b39f7edd","019ce643-47c6-74a0-b3d2-7bf5651ded46","","null","
                    <div class=""stimulus-container"">
                        <img src=""images/causal_sequence/saving_a_cat_causal/saving_a_cat_causal_7.png"" class=""exp-image"">
                        <div class=""question-area""></div> 
                    </div>","null","","","","","","",""
"","","","","","html-button-response","105","325406","0.0-105.0","79A142A08DBC4351870DA1E783E6B79B","019ce678-d09e-7b88-b725-cbb9b39f7edd","019ce643-47c6-74a0-b3d2-7bf5651ded46","","1390","
                    <div class=""stimulus-container"">
                        <img src=""images/causal_sequence/saving_a_cat_causal/saving_a_cat_causal_7.png"" class=""exp-image"">
                        <div class=""question-area"">
                            <p style=""font-size: 20px; font-weight: bold; margin: 0;"">Is there a person in this image?</p>
                        </div>
                    </div>","0","main_causal_task","7","saving_a_cat_causal","","","",""
"","","","","","html-keyboard-response","106","330409","0.0-106.0","79A142A08DBC4351870DA1E783E6B79B","019ce678-d09e-7b88-b725-cbb9b39f7edd","019ce643-47c6-74a0-b3d2-7bf5651ded46","","null","
                    <div class=""stimulus-container"">
                        <img src=""images/causal_sequence/saving_a_cat_causal/saving_a_cat_causal_8.png"" class=""exp-image"">
                        <div class=""question-area""></div> 
                    </div>","null","","","","","","",""
"","","","","","html-button-response","107","331521","0.0-107.0","79A142A08DBC4351870DA1E783E6B79B","019ce678-d09e-7b88-b725-cbb9b39f7edd","019ce643-47c6-74a0-b3d2-7bf5651ded46","","1108","
                    <div class=""stimulus-container"">
                        <img src=""images/causal_sequence/saving_a_cat_causal/saving_a_cat_causal_8.png"" class=""exp-image"">
                        <div class=""question-area"">
                            <p style=""font-size: 20px; font-weight: bold; margin: 0;"">Is there a person in this image?</p>
                        </div>
                    </div>","0","main_causal_task","8","saving_a_cat_causal","","","",""
"","","","","","html-keyboard-response","108","336524","0.0-108.0","79A142A08DBC4351870DA1E783E6B79B","019ce678-d09e-7b88-b725-cbb9b39f7edd","019ce643-47c6-74a0-b3d2-7bf5651ded46","","null","
                    <div class=""stimulus-container"">
                        <img src=""images/causal_sequence/saving_a_cat_causal/saving_a_cat_causal_9.png"" class=""exp-image"">
                        <div class=""question-area""></div> 
                    </div>","null","","","","","","",""
"","","","","","html-button-response","109","337551","0.0-109.0","79A142A08DBC4351870DA1E783E6B79B","019ce678-d09e-7b88-b725-cbb9b39f7edd","019ce643-47c6-74a0-b3d2-7bf5651ded46","","1025","
                    <div class=""stimulus-container"">
                        <img src=""images/causal_sequence/saving_a_cat_causal/saving_a_cat_causal_9.png"" class=""exp-image"">
                        <div class=""question-area"">
                            <p style=""font-size: 20px; font-weight: bold; margin: 0;"">Is there a person in this image?</p>
                        </div>
                    </div>","0","main_causal_task","9","saving_a_cat_causal","","","",""
"","","","","","html-keyboard-response","110","338566","0.0-110.0","79A142A08DBC4351870DA1E783E6B79B","019ce678-d09e-7b88-b725-cbb9b39f7edd","019ce643-47c6-74a0-b3d2-7bf5651ded46","","null","<div style=""background-color: gray; width: 100vw; height: 100vh;""></div>","null","","","","","","",""
"","","","","","html-keyboard-response","111","343570","0.0-111.0","79A142A08DBC4351870DA1E783E6B79B","019ce678-d09e-7b88-b725-cbb9b39f7edd","019ce643-47c6-74a0-b3d2-7bf5651ded46","","null","
                    <div class=""stimulus-container"">
                        <img src=""images/causal_sequence/the_performance_causal/the_performance_causal_1.png"" class=""exp-image"">
                        <div class=""question-area""></div> 
                    </div>","null","","","","","","",""
"","","","","","html-button-response","112","344994","0.0-112.0","79A142A08DBC4351870DA1E783E6B79B","019ce678-d09e-7b88-b725-cbb9b39f7edd","019ce643-47c6-74a0-b3d2-7bf5651ded46","","1420","
                    <div class=""stimulus-container"">
                        <img src=""images/causal_sequence/the_performance_causal/the_performance_causal_1.png"" class=""exp-image"">
                        <div class=""question-area"">
                            <p style=""font-size: 20px; font-weight: bold; margin: 0;"">Is there a person in this image?</p>
                        </div>
                    </div>","0","main_causal_task","1","the_performance_causal","","","",""
"","","","","","html-keyboard-response","113","350004","0.0-113.0","79A142A08DBC4351870DA1E783E6B79B","019ce678-d09e-7b88-b725-cbb9b39f7edd","019ce643-47c6-74a0-b3d2-7bf5651ded46","","null","
                    <div class=""stimulus-container"">
                        <img src=""images/causal_sequence/the_performance_causal/the_performance_causal_2.png"" class=""exp-image"">
                        <div class=""question-area""></div> 
                    </div>","null","","","","","","",""
"","","","","","html-button-response","114","351009","0.0-114.0","79A142A08DBC4351870DA1E783E6B79B","019ce678-d09e-7b88-b725-cbb9b39f7edd","019ce643-47c6-74a0-b3d2-7bf5651ded46","","1003","
                    <div class=""stimulus-container"">
                        <img src=""images/causal_sequence/the_performance_causal/the_performance_causal_2.png"" class=""exp-image"">
                        <div class=""question-area"">
                            <p style=""font-size: 20px; font-weight: bold; margin: 0;"">Is there a person in this image?</p>
                        </div>
                    </div>","0","main_causal_task","2","the_performance_causal","","","",""
"","","","","","html-keyboard-response","115","356012","0.0-115.0","79A142A08DBC4351870DA1E783E6B79B","019ce678-d09e-7b88-b725-cbb9b39f7edd","019ce643-47c6-74a0-b3d2-7bf5651ded46","","null","
                    <div class=""stimulus-container"">
                        <img src=""images/causal_sequence/the_performance_causal/the_performance_causal_3.png"" class=""exp-image"">
                        <div class=""question-area""></div> 
                    </div>","null","","","","","","",""
"","","","","","html-button-response","116","356697","0.0-116.0","79A142A08DBC4351870DA1E783E6B79B","019ce678-d09e-7b88-b725-cbb9b39f7edd","019ce643-47c6-74a0-b3d2-7bf5651ded46","","684","
                    <div class=""stimulus-container"">
                        <img src=""images/causal_sequence/the_performance_causal/the_performance_causal_3.png"" class=""exp-image"">
                        <div class=""question-area"">
                            <p style=""font-size: 20px; font-weight: bold; margin: 0;"">Is there a person in this image?</p>
                        </div>
                    </div>","0","main_causal_task","3","the_performance_causal","","","",""
"","","","","","html-keyboard-response","117","361713","0.0-117.0","79A142A08DBC4351870DA1E783E6B79B","019ce678-d09e-7b88-b725-cbb9b39f7edd","019ce643-47c6-74a0-b3d2-7bf5651ded46","","null","
                    <div class=""stimulus-container"">
                        <img src=""images/causal_sequence/the_performance_causal/the_performance_causal_4.png"" class=""exp-image"">
                        <div class=""question-area""></div> 
                    </div>","null","","","","","","",""
"","","","","","html-button-response","118","362382","0.0-118.0","79A142A08DBC4351870DA1E783E6B79B","019ce678-d09e-7b88-b725-cbb9b39f7edd","019ce643-47c6-74a0-b3d2-7bf5651ded46","","667","
                    <div class=""stimulus-container"">
                        <img src=""images/causal_sequence/the_performance_causal/the_performance_causal_4.png"" class=""exp-image"">
                        <div class=""question-area"">
                            <p style=""font-size: 20px; font-weight: bold; margin: 0;"">Is there a person in this image?</p>
                        </div>
                    </div>","0","main_causal_task","4","the_performance_causal","","","",""
"","","","","","html-keyboard-response","119","367390","0.0-119.0","79A142A08DBC4351870DA1E783E6B79B","019ce678-d09e-7b88-b725-cbb9b39f7edd","019ce643-47c6-74a0-b3d2-7bf5651ded46","","null","
                    <div class=""stimulus-container"">
                        <img src=""images/causal_sequence/the_performance_causal/the_performance_causal_5.png"" class=""exp-image"">
                        <div class=""question-area""></div> 
                    </div>","null","","","","","","",""
"","","","","","html-button-response","120","367900","0.0-120.0","79A142A08DBC4351870DA1E783E6B79B","019ce678-d09e-7b88-b725-cbb9b39f7edd","019ce643-47c6-74a0-b3d2-7bf5651ded46","","509","
                    <div class=""stimulus-container"">
                        <img src=""images/causal_sequence/the_performance_causal/the_performance_causal_5.png"" class=""exp-image"">
                        <div class=""question-area"">
                            <p style=""font-size: 20px; font-weight: bold; margin: 0;"">Is there a person in this image?</p>
                        </div>
                    </div>","0","main_causal_task","5","the_performance_causal","","","",""
"","","","","","html-keyboard-response","121","372913","0.0-121.0","79A142A08DBC4351870DA1E783E6B79B","019ce678-d09e-7b88-b725-cbb9b39f7edd","019ce643-47c6-74a0-b3d2-7bf5651ded46","","null","
                    <div class=""stimulus-container"">
                        <img src=""images/causal_sequence/the_performance_causal/the_performance_causal_6.png"" class=""exp-image"">
                        <div class=""question-area""></div> 
                    </div>","null","","","","","","",""
"","","","","","html-button-response","122","373584","0.0-122.0","79A142A08DBC4351870DA1E783E6B79B","019ce678-d09e-7b88-b725-cbb9b39f7edd","019ce643-47c6-74a0-b3d2-7bf5651ded46","","667","
                    <div class=""stimulus-container"">
                        <img src=""images/causal_sequence/the_performance_causal/the_performance_causal_6.png"" class=""exp-image"">
                        <div class=""question-area"">
                            <p style=""font-size: 20px; font-weight: bold; margin: 0;"">Is there a person in this image?</p>
                        </div>
                    </div>","0","main_causal_task","6","the_performance_causal","","","",""
"","","","","","html-keyboard-response","123","378587","0.0-123.0","79A142A08DBC4351870DA1E783E6B79B","019ce678-d09e-7b88-b725-cbb9b39f7edd","019ce643-47c6-74a0-b3d2-7bf5651ded46","","null","
                    <div class=""stimulus-container"">
                        <img src=""images/causal_sequence/the_performance_causal/the_performance_causal_7.png"" class=""exp-image"">
                        <div class=""question-area""></div> 
                    </div>","null","","","","","","",""
"","","","","","html-button-response","124","379143","0.0-124.0","79A142A08DBC4351870DA1E783E6B79B","019ce678-d09e-7b88-b725-cbb9b39f7edd","019ce643-47c6-74a0-b3d2-7bf5651ded46","","554","
                    <div class=""stimulus-container"">
                        <img src=""images/causal_sequence/the_performance_causal/the_performance_causal_7.png"" class=""exp-image"">
                        <div class=""question-area"">
                            <p style=""font-size: 20px; font-weight: bold; margin: 0;"">Is there a person in this image?</p>
                        </div>
                    </div>","0","main_causal_task","7","the_performance_causal","","","",""
"","","","","","html-keyboard-response","125","384157","0.0-125.0","79A142A08DBC4351870DA1E783E6B79B","019ce678-d09e-7b88-b725-cbb9b39f7edd","019ce643-47c6-74a0-b3d2-7bf5651ded46","","null","
                    <div class=""stimulus-container"">
                        <img src=""images/causal_sequence/the_performance_causal/the_performance_causal_8.png"" class=""exp-image"">
                        <div class=""question-area""></div> 
                    </div>","null","","","","","","",""
"","","","","","html-button-response","126","384681","0.0-126.0","79A142A08DBC4351870DA1E783E6B79B","019ce678-d09e-7b88-b725-cbb9b39f7edd","019ce643-47c6-74a0-b3d2-7bf5651ded46","","522","
                    <div class=""stimulus-container"">
                        <img src=""images/causal_sequence/the_performance_causal/the_performance_causal_8.png"" class=""exp-image"">
                        <div class=""question-area"">
                            <p style=""font-size: 20px; font-weight: bold; margin: 0;"">Is there a person in this image?</p>
                        </div>
                    </div>","0","main_causal_task","8","the_performance_causal","","","",""
"","","","","","html-keyboard-response","127","389689","0.0-127.0","79A142A08DBC4351870DA1E783E6B79B","019ce678-d09e-7b88-b725-cbb9b39f7edd","019ce643-47c6-74a0-b3d2-7bf5651ded46","","null","
                    <div class=""stimulus-container"">
                        <img src=""images/causal_sequence/the_performance_causal/the_performance_causal_9.png"" class=""exp-image"">
                        <div class=""question-area""></div> 
                    </div>","null","","","","","","",""
"","","","","","html-button-response","128","390311","0.0-128.0","79A142A08DBC4351870DA1E783E6B79B","019ce678-d09e-7b88-b725-cbb9b39f7edd","019ce643-47c6-74a0-b3d2-7bf5651ded46","","620","
                    <div class=""stimulus-container"">
                        <img src=""images/causal_sequence/the_performance_causal/the_performance_causal_9.png"" class=""exp-image"">
                        <div class=""question-area"">
                            <p style=""font-size: 20px; font-weight: bold; margin: 0;"">Is there a person in this image?</p>
                        </div>
                    </div>","0","main_causal_task","9","the_performance_causal","","","",""
"","","","","","instructions","129","393113","0.0-129.0","79A142A08DBC4351870DA1E783E6B79B","019ce678-d09e-7b88-b725-cbb9b39f7edd","019ce643-47c6-74a0-b3d2-7bf5651ded46","[{""page_index"":0,""viewing_time"":2794}]","2796","","","","","","","","",""
"","","","","","instructions","130","400869","0.0-130.0","79A142A08DBC4351870DA1E783E6B79B","019ce678-d09e-7b88-b725-cbb9b39f7edd","019ce643-47c6-74a0-b3d2-7bf5651ded46","[{""page_index"":0,""viewing_time"":7753}]","7755","","","","","","","","",""
"","","","","","html-keyboard-response","131","401873","0.0-131.0","79A142A08DBC4351870DA1E783E6B79B","019ce678-d09e-7b88-b725-cbb9b39f7edd","019ce643-47c6-74a0-b3d2-7bf5651ded46","","null","
        <div class=""stimulus-container"" style=""display: flex; align-items: center; justify-content: center; gap: 30px;"">
            <img src=""images/instructions/movie_1.png"" class=""exp-image"">
            <div style=""font-size: 40px; font-weight: bold; color: green; border: 5px solid green; padding: 25px; border-radius: 15px; background-color: #f0fff0;"">
                WORTH<br>$1
            </div>
        </div>
        <div class=""question-area""></div>","null","","","","","","",""
"","","","","","html-button-response","132","403741","0.0-132.0","79A142A08DBC4351870DA1E783E6B79B","019ce678-d09e-7b88-b725-cbb9b39f7edd","019ce643-47c6-74a0-b3d2-7bf5651ded46","","1863","
        <div class=""stimulus-container"" style=""display: flex; align-items: center; justify-content: center; gap: 30px;"">
            <img src=""images/instructions/movie_1.png"" class=""exp-image"">
            <div style=""font-size: 40px; font-weight: bold; color: green; border: 5px solid green; padding: 25px; border-radius: 15px; background-color: #f0fff0;"">
                WORTH<br>$1
            </div>
        </div>
        <div class=""question-area"">
            <p style=""font-size: 20px; font-weight: bold; margin: 0;"">Was there a person in this image?</p>
        </div>","0","","","","","","",""
"","","","","","instructions","133","406731","0.0-133.0","79A142A08DBC4351870DA1E783E6B79B","019ce678-d09e-7b88-b725-cbb9b39f7edd","019ce643-47c6-74a0-b3d2-7bf5651ded46","[{""page_index"":0,""viewing_time"":2989}]","2989","","","","","","","","",""
"","","","","","html-keyboard-response","134","416734","0.0-134.0","79A142A08DBC4351870DA1E783E6B79B","019ce678-d09e-7b88-b725-cbb9b39f7edd","019ce643-47c6-74a0-b3d2-7bf5651ded46","","null","
            <div class=""stimulus-container"" style=""display: flex; align-items: center; justify-content: center; gap: 30px;"">
                <img src=""images/causal_sequence/saving_a_cat_causal/saving_a_cat_causal_7.png"" class=""exp-image"">
                <div style=""font-size: 40px; font-weight: bold; color: green; border: 5px solid green; padding: 25px; border-radius: 15px; background-color: #f0fff0;"">
                    WORTH<br>$1
                </div>
            </div>
            <div class=""question-area""></div>","null","","","","","","",""
"","","","","","html-button-response","135","417961","0.0-135.0","79A142A08DBC4351870DA1E783E6B79B","019ce678-d09e-7b88-b725-cbb9b39f7edd","019ce643-47c6-74a0-b3d2-7bf5651ded46","","1225","
            <div class=""stimulus-container"" style=""display: flex; align-items: center; justify-content: center; gap: 30px;"">
                <img src=""images/causal_sequence/saving_a_cat_causal/saving_a_cat_causal_7.png"" class=""exp-image"">
                <div style=""font-size: 40px; font-weight: bold; color: green; border: 5px solid green; padding: 25px; border-radius: 15px; background-color: #f0fff0;"">
                    WORTH<br>$1
                </div>
            </div>
            <div class=""question-area"">
                <p style=""font-size: 20px; font-weight: bold; margin: 0;"">Was there a person in this image?</p>
            </div>","0","part2_value_learning","","saving_a_cat_causal","7","","",""
"","","","","","html-keyboard-response","136","427963","0.0-136.0","79A142A08DBC4351870DA1E783E6B79B","019ce678-d09e-7b88-b725-cbb9b39f7edd","019ce643-47c6-74a0-b3d2-7bf5651ded46","","null","
            <div class=""stimulus-container"" style=""display: flex; align-items: center; justify-content: center; gap: 30px;"">
                <img src=""images/causal_sequence/coin_causal/coin_causal_5.png"" class=""exp-image"">
                <div style=""font-size: 40px; font-weight: bold; color: green; border: 5px solid green; padding: 25px; border-radius: 15px; background-color: #f0fff0;"">
                    WORTH<br>$1
                </div>
            </div>
            <div class=""question-area""></div>","null","","","","","","",""
"","","","","","html-button-response","137","428845","0.0-137.0","79A142A08DBC4351870DA1E783E6B79B","019ce678-d09e-7b88-b725-cbb9b39f7edd","019ce643-47c6-74a0-b3d2-7bf5651ded46","","880","
            <div class=""stimulus-container"" style=""display: flex; align-items: center; justify-content: center; gap: 30px;"">
                <img src=""images/causal_sequence/coin_causal/coin_causal_5.png"" class=""exp-image"">
                <div style=""font-size: 40px; font-weight: bold; color: green; border: 5px solid green; padding: 25px; border-radius: 15px; background-color: #f0fff0;"">
                    WORTH<br>$1
                </div>
            </div>
            <div class=""question-area"">
                <p style=""font-size: 20px; font-weight: bold; margin: 0;"">Was there a person in this image?</p>
            </div>","0","part2_value_learning","","coin_causal","5","","",""
"","","","","","html-keyboard-response","138","438850","0.0-138.0","79A142A08DBC4351870DA1E783E6B79B","019ce678-d09e-7b88-b725-cbb9b39f7edd","019ce643-47c6-74a0-b3d2-7bf5651ded46","","null","
            <div class=""stimulus-container"" style=""display: flex; align-items: center; justify-content: center; gap: 30px;"">
                <img src=""images/causal_sequence/dog_causal/dog_causal_6.png"" class=""exp-image"">
                <div style=""font-size: 40px; font-weight: bold; color: green; border: 5px solid green; padding: 25px; border-radius: 15px; background-color: #f0fff0;"">
                    WORTH<br>$1
                </div>
            </div>
            <div class=""question-area""></div>","null","","","","","","",""
"","","","","","html-button-response","139","439629","0.0-139.0","79A142A08DBC4351870DA1E783E6B79B","019ce678-d09e-7b88-b725-cbb9b39f7edd","019ce643-47c6-74a0-b3d2-7bf5651ded46","","777","
            <div class=""stimulus-container"" style=""display: flex; align-items: center; justify-content: center; gap: 30px;"">
                <img src=""images/causal_sequence/dog_causal/dog_causal_6.png"" class=""exp-image"">
                <div style=""font-size: 40px; font-weight: bold; color: green; border: 5px solid green; padding: 25px; border-radius: 15px; background-color: #f0fff0;"">
                    WORTH<br>$1
                </div>
            </div>
            <div class=""question-area"">
                <p style=""font-size: 20px; font-weight: bold; margin: 0;"">Was there a person in this image?</p>
            </div>","0","part2_value_learning","","dog_causal","6","","",""
"","","","","","html-keyboard-response","140","449634","0.0-140.0","79A142A08DBC4351870DA1E783E6B79B","019ce678-d09e-7b88-b725-cbb9b39f7edd","019ce643-47c6-74a0-b3d2-7bf5651ded46","","null","
            <div class=""stimulus-container"" style=""display: flex; align-items: center; justify-content: center; gap: 30px;"">
                <img src=""images/causal_sequence/museum_causal/museum_causal_7.png"" class=""exp-image"">
                <div style=""font-size: 40px; font-weight: bold; color: green; border: 5px solid green; padding: 25px; border-radius: 15px; background-color: #f0fff0;"">
                    WORTH<br>$1
                </div>
            </div>
            <div class=""question-area""></div>","null","","","","","","",""
"","","","","","html-button-response","141","450524","0.0-141.0","79A142A08DBC4351870DA1E783E6B79B","019ce678-d09e-7b88-b725-cbb9b39f7edd","019ce643-47c6-74a0-b3d2-7bf5651ded46","","888","
            <div class=""stimulus-container"" style=""display: flex; align-items: center; justify-content: center; gap: 30px;"">
                <img src=""images/causal_sequence/museum_causal/museum_causal_7.png"" class=""exp-image"">
                <div style=""font-size: 40px; font-weight: bold; color: green; border: 5px solid green; padding: 25px; border-radius: 15px; background-color: #f0fff0;"">
                    WORTH<br>$1
                </div>
            </div>
            <div class=""question-area"">
                <p style=""font-size: 20px; font-weight: bold; margin: 0;"">Was there a person in this image?</p>
            </div>","1","part2_value_learning","","museum_causal","7","","",""
"","","","","","html-keyboard-response","142","460528","0.0-142.0","79A142A08DBC4351870DA1E783E6B79B","019ce678-d09e-7b88-b725-cbb9b39f7edd","019ce643-47c6-74a0-b3d2-7bf5651ded46","","null","
            <div class=""stimulus-container"" style=""display: flex; align-items: center; justify-content: center; gap: 30px;"">
                <img src=""images/causal_sequence/package_causal/package_causal_6.png"" class=""exp-image"">
                <div style=""font-size: 40px; font-weight: bold; color: green; border: 5px solid green; padding: 25px; border-radius: 15px; background-color: #f0fff0;"">
                    WORTH<br>$1
                </div>
            </div>
            <div class=""question-area""></div>","null","","","","","","",""
"","","","","","html-button-response","143","461708","0.0-143.0","79A142A08DBC4351870DA1E783E6B79B","019ce678-d09e-7b88-b725-cbb9b39f7edd","019ce643-47c6-74a0-b3d2-7bf5651ded46","","1179","
            <div class=""stimulus-container"" style=""display: flex; align-items: center; justify-content: center; gap: 30px;"">
                <img src=""images/causal_sequence/package_causal/package_causal_6.png"" class=""exp-image"">
                <div style=""font-size: 40px; font-weight: bold; color: green; border: 5px solid green; padding: 25px; border-radius: 15px; background-color: #f0fff0;"">
                    WORTH<br>$1
                </div>
            </div>
            <div class=""question-area"">
                <p style=""font-size: 20px; font-weight: bold; margin: 0;"">Was there a person in this image?</p>
            </div>","0","part2_value_learning","","package_causal","6","","",""
"","","","","","html-keyboard-response","144","471713","0.0-144.0","79A142A08DBC4351870DA1E783E6B79B","019ce678-d09e-7b88-b725-cbb9b39f7edd","019ce643-47c6-74a0-b3d2-7bf5651ded46","","null","
            <div class=""stimulus-container"" style=""display: flex; align-items: center; justify-content: center; gap: 30px;"">
                <img src=""images/causal_sequence/the_performance_causal/the_performance_causal_7.png"" class=""exp-image"">
                <div style=""font-size: 40px; font-weight: bold; color: green; border: 5px solid green; padding: 25px; border-radius: 15px; background-color: #f0fff0;"">
                    WORTH<br>$1
                </div>
            </div>
            <div class=""question-area""></div>","null","","","","","","",""
"","","","","","html-button-response","145","472670","0.0-145.0","79A142A08DBC4351870DA1E783E6B79B","019ce678-d09e-7b88-b725-cbb9b39f7edd","019ce643-47c6-74a0-b3d2-7bf5651ded46","","956","
            <div class=""stimulus-container"" style=""display: flex; align-items: center; justify-content: center; gap: 30px;"">
                <img src=""images/causal_sequence/the_performance_causal/the_performance_causal_7.png"" class=""exp-image"">
                <div style=""font-size: 40px; font-weight: bold; color: green; border: 5px solid green; padding: 25px; border-radius: 15px; background-color: #f0fff0;"">
                    WORTH<br>$1
                </div>
            </div>
            <div class=""question-area"">
                <p style=""font-size: 20px; font-weight: bold; margin: 0;"">Was there a person in this image?</p>
            </div>","0","part2_value_learning","","the_performance_causal","7","","",""
"","","","","","instructions","146","474134","0.0-146.0","79A142A08DBC4351870DA1E783E6B79B","019ce678-d09e-7b88-b725-cbb9b39f7edd","019ce643-47c6-74a0-b3d2-7bf5651ded46","[{""page_index"":0,""viewing_time"":1463}]","1464","","","","","","","","",""
"","","","","","instructions","147","476181","0.0-147.0","79A142A08DBC4351870DA1E783E6B79B","019ce678-d09e-7b88-b725-cbb9b39f7edd","019ce643-47c6-74a0-b3d2-7bf5651ded46","[{""page_index"":0,""viewing_time"":2045}]","2046","","","","","","","","",""
"","","","","","html-keyboard-response","148","486197","0.0-148.0-0.0","79A142A08DBC4351870DA1E783E6B79B","019ce678-d09e-7b88-b725-cbb9b39f7edd","019ce643-47c6-74a0-b3d2-7bf5651ded46","","null","
                        <div style=""font-family: Arial; margin-bottom: 20px;""><h3>Which image is more valuable?</h3></div>
                        <div class=""stimulus-container"" style=""display: flex; width: 1100px; justify-content: center; gap: 50px;"">
                            <img src=""images/causal_sequence/museum_causal/museum_causal_8.png"" class=""exp-image"">
                            <img src=""images/causal_sequence/museum_causal/museum_causal_6.png"" class=""exp-image"">
                        </div>","null","","","","","","",""
"","","","","","html-button-response","149","487638","0.0-148.0-1.0","79A142A08DBC4351870DA1E783E6B79B","019ce678-d09e-7b88-b725-cbb9b39f7edd","019ce643-47c6-74a0-b3d2-7bf5651ded46","","1438","
                        <div style=""font-family: Arial; margin-bottom: 20px;""><h3>Which image is more valuable?</h3></div>
                        <div class=""stimulus-container"" style=""display: flex; width: 1100px; justify-content: center; gap: 50px;"">
                            <img src=""images/causal_sequence/museum_causal/museum_causal_8.png"" class=""exp-image"">
                            <img src=""images/causal_sequence/museum_causal/museum_causal_6.png"" class=""exp-image"">
                        </div>","0","part3_final_choice","","museum_causal","","7","8","1"
"","","","","","html-keyboard-response","150","497652","0.0-149.0-0.0","79A142A08DBC4351870DA1E783E6B79B","019ce678-d09e-7b88-b725-cbb9b39f7edd","019ce643-47c6-74a0-b3d2-7bf5651ded46","","null","
                        <div style=""font-family: Arial; margin-bottom: 20px;""><h3>Which image is more valuable?</h3></div>
                        <div class=""stimulus-container"" style=""display: flex; width: 1100px; justify-content: center; gap: 50px;"">
                            <img src=""images/causal_sequence/dog_causal/dog_causal_5.png"" class=""exp-image"">
                            <img src=""images/causal_sequence/dog_causal/dog_causal_7.png"" class=""exp-image"">
                        </div>","null","","","","","","",""
"","","","","","html-button-response","151","499590","0.0-149.0-1.0","79A142A08DBC4351870DA1E783E6B79B","019ce678-d09e-7b88-b725-cbb9b39f7edd","019ce643-47c6-74a0-b3d2-7bf5651ded46","","1937","
                        <div style=""font-family: Arial; margin-bottom: 20px;""><h3>Which image is more valuable?</h3></div>
                        <div class=""stimulus-container"" style=""display: flex; width: 1100px; justify-content: center; gap: 50px;"">
                            <img src=""images/causal_sequence/dog_causal/dog_causal_5.png"" class=""exp-image"">
                            <img src=""images/causal_sequence/dog_causal/dog_causal_7.png"" class=""exp-image"">
                        </div>","1","part3_final_choice","","dog_causal","","6","7","1"
"","","","","","html-keyboard-response","152","509598","0.0-150.0-0.0","79A142A08DBC4351870DA1E783E6B79B","019ce678-d09e-7b88-b725-cbb9b39f7edd","019ce643-47c6-74a0-b3d2-7bf5651ded46","","null","
                        <div style=""font-family: Arial; margin-bottom: 20px;""><h3>Which image is more valuable?</h3></div>
                        <div class=""stimulus-container"" style=""display: flex; width: 1100px; justify-content: center; gap: 50px;"">
                            <img src=""images/causal_sequence/the_performance_causal/the_performance_causal_6.png"" class=""exp-image"">
                            <img src=""images/causal_sequence/the_performance_causal/the_performance_causal_8.png"" class=""exp-image"">
                        </div>","null","","","","","","",""
"","","","","","html-button-response","153","510555","0.0-150.0-1.0","79A142A08DBC4351870DA1E783E6B79B","019ce678-d09e-7b88-b725-cbb9b39f7edd","019ce643-47c6-74a0-b3d2-7bf5651ded46","","955","
                        <div style=""font-family: Arial; margin-bottom: 20px;""><h3>Which image is more valuable?</h3></div>
                        <div class=""stimulus-container"" style=""display: flex; width: 1100px; justify-content: center; gap: 50px;"">
                            <img src=""images/causal_sequence/the_performance_causal/the_performance_causal_6.png"" class=""exp-image"">
                            <img src=""images/causal_sequence/the_performance_causal/the_performance_causal_8.png"" class=""exp-image"">
                        </div>","0","part3_final_choice","","the_performance_causal","","7","6","-1"
"","","","","","html-keyboard-response","154","520563","0.0-151.0-0.0","79A142A08DBC4351870DA1E783E6B79B","019ce678-d09e-7b88-b725-cbb9b39f7edd","019ce643-47c6-74a0-b3d2-7bf5651ded46","","null","
                        <div style=""font-family: Arial; margin-bottom: 20px;""><h3>Which image is more valuable?</h3></div>
                        <div class=""stimulus-container"" style=""display: flex; width: 1100px; justify-content: center; gap: 50px;"">
                            <img src=""images/causal_sequence/saving_a_cat_causal/saving_a_cat_causal_8.png"" class=""exp-image"">
                            <img src=""images/causal_sequence/saving_a_cat_causal/saving_a_cat_causal_6.png"" class=""exp-image"">
                        </div>","null","","","","","","",""
"","","","","","html-button-response","155","521774","0.0-151.0-1.0","79A142A08DBC4351870DA1E783E6B79B","019ce678-d09e-7b88-b725-cbb9b39f7edd","019ce643-47c6-74a0-b3d2-7bf5651ded46","","1209","
                        <div style=""font-family: Arial; margin-bottom: 20px;""><h3>Which image is more valuable?</h3></div>
                        <div class=""stimulus-container"" style=""display: flex; width: 1100px; justify-content: center; gap: 50px;"">
                            <img src=""images/causal_sequence/saving_a_cat_causal/saving_a_cat_causal_8.png"" class=""exp-image"">
                            <img src=""images/causal_sequence/saving_a_cat_causal/saving_a_cat_causal_6.png"" class=""exp-image"">
                        </div>","1","part3_final_choice","","saving_a_cat_causal","","7","6","-1"
"","","","","","html-keyboard-response","156","531784","0.0-152.0-0.0","79A142A08DBC4351870DA1E783E6B79B","019ce678-d09e-7b88-b725-cbb9b39f7edd","019ce643-47c6-74a0-b3d2-7bf5651ded46","","null","
                        <div style=""font-family: Arial; margin-bottom: 20px;""><h3>Which image is more valuable?</h3></div>
                        <div class=""stimulus-container"" style=""display: flex; width: 1100px; justify-content: center; gap: 50px;"">
                            <img src=""images/causal_sequence/package_causal/package_causal_5.png"" class=""exp-image"">
                            <img src=""images/causal_sequence/package_causal/package_causal_7.png"" class=""exp-image"">
                        </div>","null","","","","","","",""
"","","","","","html-button-response","157","532618","0.0-152.0-1.0","79A142A08DBC4351870DA1E783E6B79B","019ce678-d09e-7b88-b725-cbb9b39f7edd","019ce643-47c6-74a0-b3d2-7bf5651ded46","","832","
                        <div style=""font-family: Arial; margin-bottom: 20px;""><h3>Which image is more valuable?</h3></div>
                        <div class=""stimulus-container"" style=""display: flex; width: 1100px; justify-content: center; gap: 50px;"">
                            <img src=""images/causal_sequence/package_causal/package_causal_5.png"" class=""exp-image"">
                            <img src=""images/causal_sequence/package_causal/package_causal_7.png"" class=""exp-image"">
                        </div>","1","part3_final_choice","","package_causal","","6","7","1"
"","","","","","html-keyboard-response","158","542632","0.0-153.0-0.0","79A142A08DBC4351870DA1E783E6B79B","019ce678-d09e-7b88-b725-cbb9b39f7edd","019ce643-47c6-74a0-b3d2-7bf5651ded46","","null","
                        <div style=""font-family: Arial; margin-bottom: 20px;""><h3>Which image is more valuable?</h3></div>
                        <div class=""stimulus-container"" style=""display: flex; width: 1100px; justify-content: center; gap: 50px;"">
                            <img src=""images/causal_sequence/coin_causal/coin_causal_6.png"" class=""exp-image"">
                            <img src=""images/causal_sequence/coin_causal/coin_causal_4.png"" class=""exp-image"">
                        </div>","null","","","","","","",""
"","","","","","html-button-response","159","546511","0.0-153.0-1.0","79A142A08DBC4351870DA1E783E6B79B","019ce678-d09e-7b88-b725-cbb9b39f7edd","019ce643-47c6-74a0-b3d2-7bf5651ded46","","3877","
                        <div style=""font-family: Arial; margin-bottom: 20px;""><h3>Which image is more valuable?</h3></div>
                        <div class=""stimulus-container"" style=""display: flex; width: 1100px; justify-content: center; gap: 50px;"">
                            <img src=""images/causal_sequence/coin_causal/coin_causal_6.png"" class=""exp-image"">
                            <img src=""images/causal_sequence/coin_causal/coin_causal_4.png"" class=""exp-image"">
                        </div>","0","part3_final_choice","","coin_causal","","5","6","1"
"","","","","","survey-text","160","589071","0.0-154.0","79A142A08DBC4351870DA1E783E6B79B","019ce678-d09e-7b88-b725-cbb9b39f7edd","019ce643-47c6-74a0-b3d2-7bf5651ded46","","42494","","{""gender"":""male"",""age"":""34"",""decision_strategy"":""based on what it could mean for the characters in the picture"",""consistency_check"":""yes same logic""}","demographics_and_strategy","","","","","",""
"","","","","","instructions","161","595286","0.0-155.0","79A142A08DBC4351870DA1E783E6B79B","019ce678-d09e-7b88-b725-cbb9b39f7edd","019ce643-47c6-74a0-b3d2-7bf5651ded46","[{""page_index"":0,""viewing_time"":6213}]","6214","","","","","","","","",""
