"success","timeout","failed_images","failed_audio","failed_video","trial_type","trial_index","time_elapsed","internal_node_id","subject_id","study_id","session_id","view_history","rt","stimulus","response","task","image_index","folder","valuable_image_index","valuable_X","chosen_image_index","distance_from_X"
"false","false","[]","[]","[]","preload","0","1235","0.0-0.0","BF33E0DF911A4B79BFB9ABD76F964C60","019ce7ab-bd20-7693-aa96-01a08948d3d9","019ce7a0-0965-7aa7-a556-174d32a8e773","","","","","","","","","","",""
"","","","","","instructions","1","3655","0.0-1.0","BF33E0DF911A4B79BFB9ABD76F964C60","019ce7ab-bd20-7693-aa96-01a08948d3d9","019ce7a0-0965-7aa7-a556-174d32a8e773","[{""page_index"":0,""viewing_time"":2419}]","2419","","","","","","","","",""
"","","","","","instructions","2","7412","0.0-2.0","BF33E0DF911A4B79BFB9ABD76F964C60","019ce7ab-bd20-7693-aa96-01a08948d3d9","019ce7a0-0965-7aa7-a556-174d32a8e773","[{""page_index"":0,""viewing_time"":3756}]","3756","","","","","","","","",""
"true","","","","","fullscreen","3","9936","0.0-3.0","BF33E0DF911A4B79BFB9ABD76F964C60","019ce7ab-bd20-7693-aa96-01a08948d3d9","019ce7a0-0965-7aa7-a556-174d32a8e773","","1520","","","","","","","","",""
"","","","","","instructions","4","17651","0.0-4.0","BF33E0DF911A4B79BFB9ABD76F964C60","019ce7ab-bd20-7693-aa96-01a08948d3d9","019ce7a0-0965-7aa7-a556-174d32a8e773","[{""page_index"":0,""viewing_time"":7713}]","7713","","","","","","","","",""
"","","","","","instructions","5","28742","0.0-5.0","BF33E0DF911A4B79BFB9ABD76F964C60","019ce7ab-bd20-7693-aa96-01a08948d3d9","019ce7a0-0965-7aa7-a556-174d32a8e773","[{""page_index"":0,""viewing_time"":11089}]","11090","","","","","","","","",""
"","","","","","html-keyboard-response","6","32746","0.0-6.0","BF33E0DF911A4B79BFB9ABD76F964C60","019ce7ab-bd20-7693-aa96-01a08948d3d9","019ce7a0-0965-7aa7-a556-174d32a8e773","","null","
                <div class=""stimulus-container"">
                    <img src=""images/instructions/movie_1.png"" class=""exp-image"">
                    <div class=""question-area""></div> 
                </div>","null","","","","","","",""
"","","","","","html-button-response","7","34377","0.0-7.0","BF33E0DF911A4B79BFB9ABD76F964C60","019ce7ab-bd20-7693-aa96-01a08948d3d9","019ce7a0-0965-7aa7-a556-174d32a8e773","","1628","
                <div class=""stimulus-container"">
                    <img src=""images/instructions/movie_1.png"" class=""exp-image"">
                    <div class=""question-area"">
                        <p style=""font-size: 20px; font-weight: bold; margin: 0;"">Was there a person in this image?</p>
                    </div>
                </div>","0","example_question","1","","","","",""
"","","","","","html-keyboard-response","8","38380","0.0-8.0","BF33E0DF911A4B79BFB9ABD76F964C60","019ce7ab-bd20-7693-aa96-01a08948d3d9","019ce7a0-0965-7aa7-a556-174d32a8e773","","null","
                <div class=""stimulus-container"">
                    <img src=""images/instructions/movie_2.png"" class=""exp-image"">
                    <div class=""question-area""></div> 
                </div>","null","","","","","","",""
"","","","","","html-button-response","9","40209","0.0-9.0","BF33E0DF911A4B79BFB9ABD76F964C60","019ce7ab-bd20-7693-aa96-01a08948d3d9","019ce7a0-0965-7aa7-a556-174d32a8e773","","1827","
                <div class=""stimulus-container"">
                    <img src=""images/instructions/movie_2.png"" class=""exp-image"">
                    <div class=""question-area"">
                        <p style=""font-size: 20px; font-weight: bold; margin: 0;"">Was there a person in this image?</p>
                    </div>
                </div>","1","example_question","2","","","","",""
"","","","","","html-keyboard-response","10","44211","0.0-10.0","BF33E0DF911A4B79BFB9ABD76F964C60","019ce7ab-bd20-7693-aa96-01a08948d3d9","019ce7a0-0965-7aa7-a556-174d32a8e773","","null","
                <div class=""stimulus-container"">
                    <img src=""images/instructions/movie_3.png"" class=""exp-image"">
                    <div class=""question-area""></div> 
                </div>","null","","","","","","",""
"","","","","","html-button-response","11","44828","0.0-11.0","BF33E0DF911A4B79BFB9ABD76F964C60","019ce7ab-bd20-7693-aa96-01a08948d3d9","019ce7a0-0965-7aa7-a556-174d32a8e773","","615","
                <div class=""stimulus-container"">
                    <img src=""images/instructions/movie_3.png"" class=""exp-image"">
                    <div class=""question-area"">
                        <p style=""font-size: 20px; font-weight: bold; margin: 0;"">Was there a person in this image?</p>
                    </div>
                </div>","0","example_question","3","","","","",""
"","","","","","html-keyboard-response","12","48831","0.0-12.0","BF33E0DF911A4B79BFB9ABD76F964C60","019ce7ab-bd20-7693-aa96-01a08948d3d9","019ce7a0-0965-7aa7-a556-174d32a8e773","","null","
                <div class=""stimulus-container"">
                    <img src=""images/instructions/movie_4.png"" class=""exp-image"">
                    <div class=""question-area""></div> 
                </div>","null","","","","","","",""
"","","","","","html-button-response","13","49540","0.0-13.0","BF33E0DF911A4B79BFB9ABD76F964C60","019ce7ab-bd20-7693-aa96-01a08948d3d9","019ce7a0-0965-7aa7-a556-174d32a8e773","","708","
                <div class=""stimulus-container"">
                    <img src=""images/instructions/movie_4.png"" class=""exp-image"">
                    <div class=""question-area"">
                        <p style=""font-size: 20px; font-weight: bold; margin: 0;"">Was there a person in this image?</p>
                    </div>
                </div>","0","example_question","4","","","","",""
"","","","","","instructions","14","51399","0.0-14.0","BF33E0DF911A4B79BFB9ABD76F964C60","019ce7ab-bd20-7693-aa96-01a08948d3d9","019ce7a0-0965-7aa7-a556-174d32a8e773","[{""page_index"":0,""viewing_time"":1857}]","1857","","","","","","","","",""
"","","","","","html-keyboard-response","15","52401","0.0-15.0","BF33E0DF911A4B79BFB9ABD76F964C60","019ce7ab-bd20-7693-aa96-01a08948d3d9","019ce7a0-0965-7aa7-a556-174d32a8e773","","null","<div style=""background-color: gray; width: 100vw; height: 100vh;""></div>","null","","","","","","",""
"","","","","","html-keyboard-response","16","57405","0.0-16.0","BF33E0DF911A4B79BFB9ABD76F964C60","019ce7ab-bd20-7693-aa96-01a08948d3d9","019ce7a0-0965-7aa7-a556-174d32a8e773","","null","
                    <div class=""stimulus-container"">
                        <img src=""images/causal_sequence/package_causal/package_causal_1.png"" class=""exp-image"">
                        <div class=""question-area""></div> 
                    </div>","null","","","","","","",""
"","","","","","html-button-response","17","58402","0.0-17.0","BF33E0DF911A4B79BFB9ABD76F964C60","019ce7ab-bd20-7693-aa96-01a08948d3d9","019ce7a0-0965-7aa7-a556-174d32a8e773","","995","
                    <div class=""stimulus-container"">
                        <img src=""images/causal_sequence/package_causal/package_causal_1.png"" class=""exp-image"">
                        <div class=""question-area"">
                            <p style=""font-size: 20px; font-weight: bold; margin: 0;"">Is there a person in this image?</p>
                        </div>
                    </div>","0","main_causal_task","1","package_causal","","","",""
"","","","","","html-keyboard-response","18","63405","0.0-18.0","BF33E0DF911A4B79BFB9ABD76F964C60","019ce7ab-bd20-7693-aa96-01a08948d3d9","019ce7a0-0965-7aa7-a556-174d32a8e773","","null","
                    <div class=""stimulus-container"">
                        <img src=""images/causal_sequence/package_causal/package_causal_2.png"" class=""exp-image"">
                        <div class=""question-area""></div> 
                    </div>","null","","","","","","",""
"","","","","","html-button-response","19","63926","0.0-19.0","BF33E0DF911A4B79BFB9ABD76F964C60","019ce7ab-bd20-7693-aa96-01a08948d3d9","019ce7a0-0965-7aa7-a556-174d32a8e773","","519","
                    <div class=""stimulus-container"">
                        <img src=""images/causal_sequence/package_causal/package_causal_2.png"" class=""exp-image"">
                        <div class=""question-area"">
                            <p style=""font-size: 20px; font-weight: bold; margin: 0;"">Is there a person in this image?</p>
                        </div>
                    </div>","0","main_causal_task","2","package_causal","","","",""
"","","","","","html-keyboard-response","20","68929","0.0-20.0","BF33E0DF911A4B79BFB9ABD76F964C60","019ce7ab-bd20-7693-aa96-01a08948d3d9","019ce7a0-0965-7aa7-a556-174d32a8e773","","null","
                    <div class=""stimulus-container"">
                        <img src=""images/causal_sequence/package_causal/package_causal_3.png"" class=""exp-image"">
                        <div class=""question-area""></div> 
                    </div>","null","","","","","","",""
"","","","","","html-button-response","21","69411","0.0-21.0","BF33E0DF911A4B79BFB9ABD76F964C60","019ce7ab-bd20-7693-aa96-01a08948d3d9","019ce7a0-0965-7aa7-a556-174d32a8e773","","479","
                    <div class=""stimulus-container"">
                        <img src=""images/causal_sequence/package_causal/package_causal_3.png"" class=""exp-image"">
                        <div class=""question-area"">
                            <p style=""font-size: 20px; font-weight: bold; margin: 0;"">Is there a person in this image?</p>
                        </div>
                    </div>","0","main_causal_task","3","package_causal","","","",""
"","","","","","html-keyboard-response","22","74414","0.0-22.0","BF33E0DF911A4B79BFB9ABD76F964C60","019ce7ab-bd20-7693-aa96-01a08948d3d9","019ce7a0-0965-7aa7-a556-174d32a8e773","","null","
                    <div class=""stimulus-container"">
                        <img src=""images/causal_sequence/package_causal/package_causal_4.png"" class=""exp-image"">
                        <div class=""question-area""></div> 
                    </div>","null","","","","","","",""
"","","","","","html-button-response","23","75114","0.0-23.0","BF33E0DF911A4B79BFB9ABD76F964C60","019ce7ab-bd20-7693-aa96-01a08948d3d9","019ce7a0-0965-7aa7-a556-174d32a8e773","","699","
                    <div class=""stimulus-container"">
                        <img src=""images/causal_sequence/package_causal/package_causal_4.png"" class=""exp-image"">
                        <div class=""question-area"">
                            <p style=""font-size: 20px; font-weight: bold; margin: 0;"">Is there a person in this image?</p>
                        </div>
                    </div>","1","main_causal_task","4","package_causal","","","",""
"","","","","","html-keyboard-response","24","80117","0.0-24.0","BF33E0DF911A4B79BFB9ABD76F964C60","019ce7ab-bd20-7693-aa96-01a08948d3d9","019ce7a0-0965-7aa7-a556-174d32a8e773","","null","
                    <div class=""stimulus-container"">
                        <img src=""images/causal_sequence/package_causal/package_causal_5.png"" class=""exp-image"">
                        <div class=""question-area""></div> 
                    </div>","null","","","","","","",""
"","","","","","html-button-response","25","80692","0.0-25.0","BF33E0DF911A4B79BFB9ABD76F964C60","019ce7ab-bd20-7693-aa96-01a08948d3d9","019ce7a0-0965-7aa7-a556-174d32a8e773","","574","
                    <div class=""stimulus-container"">
                        <img src=""images/causal_sequence/package_causal/package_causal_5.png"" class=""exp-image"">
                        <div class=""question-area"">
                            <p style=""font-size: 20px; font-weight: bold; margin: 0;"">Is there a person in this image?</p>
                        </div>
                    </div>","0","main_causal_task","5","package_causal","","","",""
"","","","","","html-keyboard-response","26","85696","0.0-26.0","BF33E0DF911A4B79BFB9ABD76F964C60","019ce7ab-bd20-7693-aa96-01a08948d3d9","019ce7a0-0965-7aa7-a556-174d32a8e773","","null","
                    <div class=""stimulus-container"">
                        <img src=""images/causal_sequence/package_causal/package_causal_6.png"" class=""exp-image"">
                        <div class=""question-area""></div> 
                    </div>","null","","","","","","",""
"","","","","","html-button-response","27","86196","0.0-27.0","BF33E0DF911A4B79BFB9ABD76F964C60","019ce7ab-bd20-7693-aa96-01a08948d3d9","019ce7a0-0965-7aa7-a556-174d32a8e773","","498","
                    <div class=""stimulus-container"">
                        <img src=""images/causal_sequence/package_causal/package_causal_6.png"" class=""exp-image"">
                        <div class=""question-area"">
                            <p style=""font-size: 20px; font-weight: bold; margin: 0;"">Is there a person in this image?</p>
                        </div>
                    </div>","0","main_causal_task","6","package_causal","","","",""
"","","","","","html-keyboard-response","28","91199","0.0-28.0","BF33E0DF911A4B79BFB9ABD76F964C60","019ce7ab-bd20-7693-aa96-01a08948d3d9","019ce7a0-0965-7aa7-a556-174d32a8e773","","null","
                    <div class=""stimulus-container"">
                        <img src=""images/causal_sequence/package_causal/package_causal_7.png"" class=""exp-image"">
                        <div class=""question-area""></div> 
                    </div>","null","","","","","","",""
"","","","","","html-button-response","29","92005","0.0-29.0","BF33E0DF911A4B79BFB9ABD76F964C60","019ce7ab-bd20-7693-aa96-01a08948d3d9","019ce7a0-0965-7aa7-a556-174d32a8e773","","804","
                    <div class=""stimulus-container"">
                        <img src=""images/causal_sequence/package_causal/package_causal_7.png"" class=""exp-image"">
                        <div class=""question-area"">
                            <p style=""font-size: 20px; font-weight: bold; margin: 0;"">Is there a person in this image?</p>
                        </div>
                    </div>","0","main_causal_task","7","package_causal","","","",""
"","","","","","html-keyboard-response","30","97007","0.0-30.0","BF33E0DF911A4B79BFB9ABD76F964C60","019ce7ab-bd20-7693-aa96-01a08948d3d9","019ce7a0-0965-7aa7-a556-174d32a8e773","","null","
                    <div class=""stimulus-container"">
                        <img src=""images/causal_sequence/package_causal/package_causal_8.png"" class=""exp-image"">
                        <div class=""question-area""></div> 
                    </div>","null","","","","","","",""
"","","","","","html-button-response","31","97678","0.0-31.0","BF33E0DF911A4B79BFB9ABD76F964C60","019ce7ab-bd20-7693-aa96-01a08948d3d9","019ce7a0-0965-7aa7-a556-174d32a8e773","","670","
                    <div class=""stimulus-container"">
                        <img src=""images/causal_sequence/package_causal/package_causal_8.png"" class=""exp-image"">
                        <div class=""question-area"">
                            <p style=""font-size: 20px; font-weight: bold; margin: 0;"">Is there a person in this image?</p>
                        </div>
                    </div>","0","main_causal_task","8","package_causal","","","",""
"","","","","","html-keyboard-response","32","102681","0.0-32.0","BF33E0DF911A4B79BFB9ABD76F964C60","019ce7ab-bd20-7693-aa96-01a08948d3d9","019ce7a0-0965-7aa7-a556-174d32a8e773","","null","
                    <div class=""stimulus-container"">
                        <img src=""images/causal_sequence/package_causal/package_causal_9.png"" class=""exp-image"">
                        <div class=""question-area""></div> 
                    </div>","null","","","","","","",""
"","","","","","html-button-response","33","103205","0.0-33.0","BF33E0DF911A4B79BFB9ABD76F964C60","019ce7ab-bd20-7693-aa96-01a08948d3d9","019ce7a0-0965-7aa7-a556-174d32a8e773","","522","
                    <div class=""stimulus-container"">
                        <img src=""images/causal_sequence/package_causal/package_causal_9.png"" class=""exp-image"">
                        <div class=""question-area"">
                            <p style=""font-size: 20px; font-weight: bold; margin: 0;"">Is there a person in this image?</p>
                        </div>
                    </div>","0","main_causal_task","9","package_causal","","","",""
"","","","","","html-keyboard-response","34","104208","0.0-34.0","BF33E0DF911A4B79BFB9ABD76F964C60","019ce7ab-bd20-7693-aa96-01a08948d3d9","019ce7a0-0965-7aa7-a556-174d32a8e773","","null","<div style=""background-color: gray; width: 100vw; height: 100vh;""></div>","null","","","","","","",""
"","","","","","html-keyboard-response","35","109211","0.0-35.0","BF33E0DF911A4B79BFB9ABD76F964C60","019ce7ab-bd20-7693-aa96-01a08948d3d9","019ce7a0-0965-7aa7-a556-174d32a8e773","","null","
                    <div class=""stimulus-container"">
                        <img src=""images/causal_sequence/dog_causal/dog_causal_1.png"" class=""exp-image"">
                        <div class=""question-area""></div> 
                    </div>","null","","","","","","",""
"","","","","","html-button-response","36","109828","0.0-36.0","BF33E0DF911A4B79BFB9ABD76F964C60","019ce7ab-bd20-7693-aa96-01a08948d3d9","019ce7a0-0965-7aa7-a556-174d32a8e773","","616","
                    <div class=""stimulus-container"">
                        <img src=""images/causal_sequence/dog_causal/dog_causal_1.png"" class=""exp-image"">
                        <div class=""question-area"">
                            <p style=""font-size: 20px; font-weight: bold; margin: 0;"">Is there a person in this image?</p>
                        </div>
                    </div>","0","main_causal_task","1","dog_causal","","","",""
"","","","","","html-keyboard-response","37","114831","0.0-37.0","BF33E0DF911A4B79BFB9ABD76F964C60","019ce7ab-bd20-7693-aa96-01a08948d3d9","019ce7a0-0965-7aa7-a556-174d32a8e773","","null","
                    <div class=""stimulus-container"">
                        <img src=""images/causal_sequence/dog_causal/dog_causal_2.png"" class=""exp-image"">
                        <div class=""question-area""></div> 
                    </div>","null","","","","","","",""
"","","","","","html-button-response","38","115223","0.0-38.0","BF33E0DF911A4B79BFB9ABD76F964C60","019ce7ab-bd20-7693-aa96-01a08948d3d9","019ce7a0-0965-7aa7-a556-174d32a8e773","","390","
                    <div class=""stimulus-container"">
                        <img src=""images/causal_sequence/dog_causal/dog_causal_2.png"" class=""exp-image"">
                        <div class=""question-area"">
                            <p style=""font-size: 20px; font-weight: bold; margin: 0;"">Is there a person in this image?</p>
                        </div>
                    </div>","0","main_causal_task","2","dog_causal","","","",""
"","","","","","html-keyboard-response","39","120226","0.0-39.0","BF33E0DF911A4B79BFB9ABD76F964C60","019ce7ab-bd20-7693-aa96-01a08948d3d9","019ce7a0-0965-7aa7-a556-174d32a8e773","","null","
                    <div class=""stimulus-container"">
                        <img src=""images/causal_sequence/dog_causal/dog_causal_3.png"" class=""exp-image"">
                        <div class=""question-area""></div> 
                    </div>","null","","","","","","",""
"","","","","","html-button-response","40","120646","0.0-40.0","BF33E0DF911A4B79BFB9ABD76F964C60","019ce7ab-bd20-7693-aa96-01a08948d3d9","019ce7a0-0965-7aa7-a556-174d32a8e773","","418","
                    <div class=""stimulus-container"">
                        <img src=""images/causal_sequence/dog_causal/dog_causal_3.png"" class=""exp-image"">
                        <div class=""question-area"">
                            <p style=""font-size: 20px; font-weight: bold; margin: 0;"">Is there a person in this image?</p>
                        </div>
                    </div>","0","main_causal_task","3","dog_causal","","","",""
"","","","","","html-keyboard-response","41","125649","0.0-41.0","BF33E0DF911A4B79BFB9ABD76F964C60","019ce7ab-bd20-7693-aa96-01a08948d3d9","019ce7a0-0965-7aa7-a556-174d32a8e773","","null","
                    <div class=""stimulus-container"">
                        <img src=""images/causal_sequence/dog_causal/dog_causal_4.png"" class=""exp-image"">
                        <div class=""question-area""></div> 
                    </div>","null","","","","","","",""
"","","","","","html-button-response","42","126082","0.0-42.0","BF33E0DF911A4B79BFB9ABD76F964C60","019ce7ab-bd20-7693-aa96-01a08948d3d9","019ce7a0-0965-7aa7-a556-174d32a8e773","","431","
                    <div class=""stimulus-container"">
                        <img src=""images/causal_sequence/dog_causal/dog_causal_4.png"" class=""exp-image"">
                        <div class=""question-area"">
                            <p style=""font-size: 20px; font-weight: bold; margin: 0;"">Is there a person in this image?</p>
                        </div>
                    </div>","0","main_causal_task","4","dog_causal","","","",""
"","","","","","html-keyboard-response","43","131085","0.0-43.0","BF33E0DF911A4B79BFB9ABD76F964C60","019ce7ab-bd20-7693-aa96-01a08948d3d9","019ce7a0-0965-7aa7-a556-174d32a8e773","","null","
                    <div class=""stimulus-container"">
                        <img src=""images/causal_sequence/dog_causal/dog_causal_5.png"" class=""exp-image"">
                        <div class=""question-area""></div> 
                    </div>","null","","","","","","",""
"","","","","","html-button-response","44","131915","0.0-44.0","BF33E0DF911A4B79BFB9ABD76F964C60","019ce7ab-bd20-7693-aa96-01a08948d3d9","019ce7a0-0965-7aa7-a556-174d32a8e773","","828","
                    <div class=""stimulus-container"">
                        <img src=""images/causal_sequence/dog_causal/dog_causal_5.png"" class=""exp-image"">
                        <div class=""question-area"">
                            <p style=""font-size: 20px; font-weight: bold; margin: 0;"">Is there a person in this image?</p>
                        </div>
                    </div>","0","main_causal_task","5","dog_causal","","","",""
"","","","","","html-keyboard-response","45","136918","0.0-45.0","BF33E0DF911A4B79BFB9ABD76F964C60","019ce7ab-bd20-7693-aa96-01a08948d3d9","019ce7a0-0965-7aa7-a556-174d32a8e773","","null","
                    <div class=""stimulus-container"">
                        <img src=""images/causal_sequence/dog_causal/dog_causal_6.png"" class=""exp-image"">
                        <div class=""question-area""></div> 
                    </div>","null","","","","","","",""
"","","","","","html-button-response","46","137716","0.0-46.0","BF33E0DF911A4B79BFB9ABD76F964C60","019ce7ab-bd20-7693-aa96-01a08948d3d9","019ce7a0-0965-7aa7-a556-174d32a8e773","","797","
                    <div class=""stimulus-container"">
                        <img src=""images/causal_sequence/dog_causal/dog_causal_6.png"" class=""exp-image"">
                        <div class=""question-area"">
                            <p style=""font-size: 20px; font-weight: bold; margin: 0;"">Is there a person in this image?</p>
                        </div>
                    </div>","0","main_causal_task","6","dog_causal","","","",""
"","","","","","html-keyboard-response","47","142720","0.0-47.0","BF33E0DF911A4B79BFB9ABD76F964C60","019ce7ab-bd20-7693-aa96-01a08948d3d9","019ce7a0-0965-7aa7-a556-174d32a8e773","","null","
                    <div class=""stimulus-container"">
                        <img src=""images/causal_sequence/dog_causal/dog_causal_7.png"" class=""exp-image"">
                        <div class=""question-area""></div> 
                    </div>","null","","","","","","",""
"","","","","","html-button-response","48","143066","0.0-48.0","BF33E0DF911A4B79BFB9ABD76F964C60","019ce7ab-bd20-7693-aa96-01a08948d3d9","019ce7a0-0965-7aa7-a556-174d32a8e773","","344","
                    <div class=""stimulus-container"">
                        <img src=""images/causal_sequence/dog_causal/dog_causal_7.png"" class=""exp-image"">
                        <div class=""question-area"">
                            <p style=""font-size: 20px; font-weight: bold; margin: 0;"">Is there a person in this image?</p>
                        </div>
                    </div>","0","main_causal_task","7","dog_causal","","","",""
"","","","","","html-keyboard-response","49","148069","0.0-49.0","BF33E0DF911A4B79BFB9ABD76F964C60","019ce7ab-bd20-7693-aa96-01a08948d3d9","019ce7a0-0965-7aa7-a556-174d32a8e773","","null","
                    <div class=""stimulus-container"">
                        <img src=""images/causal_sequence/dog_causal/dog_causal_8.png"" class=""exp-image"">
                        <div class=""question-area""></div> 
                    </div>","null","","","","","","",""
"","","","","","html-button-response","50","148457","0.0-50.0","BF33E0DF911A4B79BFB9ABD76F964C60","019ce7ab-bd20-7693-aa96-01a08948d3d9","019ce7a0-0965-7aa7-a556-174d32a8e773","","386","
                    <div class=""stimulus-container"">
                        <img src=""images/causal_sequence/dog_causal/dog_causal_8.png"" class=""exp-image"">
                        <div class=""question-area"">
                            <p style=""font-size: 20px; font-weight: bold; margin: 0;"">Is there a person in this image?</p>
                        </div>
                    </div>","0","main_causal_task","8","dog_causal","","","",""
"","","","","","html-keyboard-response","51","153460","0.0-51.0","BF33E0DF911A4B79BFB9ABD76F964C60","019ce7ab-bd20-7693-aa96-01a08948d3d9","019ce7a0-0965-7aa7-a556-174d32a8e773","","null","
                    <div class=""stimulus-container"">
                        <img src=""images/causal_sequence/dog_causal/dog_causal_9.png"" class=""exp-image"">
                        <div class=""question-area""></div> 
                    </div>","null","","","","","","",""
"","","","","","html-button-response","52","154162","0.0-52.0","BF33E0DF911A4B79BFB9ABD76F964C60","019ce7ab-bd20-7693-aa96-01a08948d3d9","019ce7a0-0965-7aa7-a556-174d32a8e773","","700","
                    <div class=""stimulus-container"">
                        <img src=""images/causal_sequence/dog_causal/dog_causal_9.png"" class=""exp-image"">
                        <div class=""question-area"">
                            <p style=""font-size: 20px; font-weight: bold; margin: 0;"">Is there a person in this image?</p>
                        </div>
                    </div>","0","main_causal_task","9","dog_causal","","","",""
"","","","","","html-keyboard-response","53","155164","0.0-53.0","BF33E0DF911A4B79BFB9ABD76F964C60","019ce7ab-bd20-7693-aa96-01a08948d3d9","019ce7a0-0965-7aa7-a556-174d32a8e773","","null","<div style=""background-color: gray; width: 100vw; height: 100vh;""></div>","null","","","","","","",""
"","","","","","html-keyboard-response","54","160167","0.0-54.0","BF33E0DF911A4B79BFB9ABD76F964C60","019ce7ab-bd20-7693-aa96-01a08948d3d9","019ce7a0-0965-7aa7-a556-174d32a8e773","","null","
                    <div class=""stimulus-container"">
                        <img src=""images/causal_sequence/museum_causal/museum_causal_1.png"" class=""exp-image"">
                        <div class=""question-area""></div> 
                    </div>","null","","","","","","",""
"","","","","","html-button-response","55","160703","0.0-55.0","BF33E0DF911A4B79BFB9ABD76F964C60","019ce7ab-bd20-7693-aa96-01a08948d3d9","019ce7a0-0965-7aa7-a556-174d32a8e773","","534","
                    <div class=""stimulus-container"">
                        <img src=""images/causal_sequence/museum_causal/museum_causal_1.png"" class=""exp-image"">
                        <div class=""question-area"">
                            <p style=""font-size: 20px; font-weight: bold; margin: 0;"">Is there a person in this image?</p>
                        </div>
                    </div>","0","main_causal_task","1","museum_causal","","","",""
"","","","","","html-keyboard-response","56","165706","0.0-56.0","BF33E0DF911A4B79BFB9ABD76F964C60","019ce7ab-bd20-7693-aa96-01a08948d3d9","019ce7a0-0965-7aa7-a556-174d32a8e773","","null","
                    <div class=""stimulus-container"">
                        <img src=""images/causal_sequence/museum_causal/museum_causal_2.png"" class=""exp-image"">
                        <div class=""question-area""></div> 
                    </div>","null","","","","","","",""
"","","","","","html-button-response","57","166123","0.0-57.0","BF33E0DF911A4B79BFB9ABD76F964C60","019ce7ab-bd20-7693-aa96-01a08948d3d9","019ce7a0-0965-7aa7-a556-174d32a8e773","","416","
                    <div class=""stimulus-container"">
                        <img src=""images/causal_sequence/museum_causal/museum_causal_2.png"" class=""exp-image"">
                        <div class=""question-area"">
                            <p style=""font-size: 20px; font-weight: bold; margin: 0;"">Is there a person in this image?</p>
                        </div>
                    </div>","1","main_causal_task","2","museum_causal","","","",""
"","","","","","html-keyboard-response","58","171125","0.0-58.0","BF33E0DF911A4B79BFB9ABD76F964C60","019ce7ab-bd20-7693-aa96-01a08948d3d9","019ce7a0-0965-7aa7-a556-174d32a8e773","","null","
                    <div class=""stimulus-container"">
                        <img src=""images/causal_sequence/museum_causal/museum_causal_3.png"" class=""exp-image"">
                        <div class=""question-area""></div> 
                    </div>","null","","","","","","",""
"","","","","","html-button-response","59","171510","0.0-59.0","BF33E0DF911A4B79BFB9ABD76F964C60","019ce7ab-bd20-7693-aa96-01a08948d3d9","019ce7a0-0965-7aa7-a556-174d32a8e773","","383","
                    <div class=""stimulus-container"">
                        <img src=""images/causal_sequence/museum_causal/museum_causal_3.png"" class=""exp-image"">
                        <div class=""question-area"">
                            <p style=""font-size: 20px; font-weight: bold; margin: 0;"">Is there a person in this image?</p>
                        </div>
                    </div>","0","main_causal_task","3","museum_causal","","","",""
"","","","","","html-keyboard-response","60","176513","0.0-60.0","BF33E0DF911A4B79BFB9ABD76F964C60","019ce7ab-bd20-7693-aa96-01a08948d3d9","019ce7a0-0965-7aa7-a556-174d32a8e773","","null","
                    <div class=""stimulus-container"">
                        <img src=""images/causal_sequence/museum_causal/museum_causal_4.png"" class=""exp-image"">
                        <div class=""question-area""></div> 
                    </div>","null","","","","","","",""
"","","","","","html-button-response","61","177213","0.0-61.0","BF33E0DF911A4B79BFB9ABD76F964C60","019ce7ab-bd20-7693-aa96-01a08948d3d9","019ce7a0-0965-7aa7-a556-174d32a8e773","","699","
                    <div class=""stimulus-container"">
                        <img src=""images/causal_sequence/museum_causal/museum_causal_4.png"" class=""exp-image"">
                        <div class=""question-area"">
                            <p style=""font-size: 20px; font-weight: bold; margin: 0;"">Is there a person in this image?</p>
                        </div>
                    </div>","1","main_causal_task","4","museum_causal","","","",""
"","","","","","html-keyboard-response","62","182217","0.0-62.0","BF33E0DF911A4B79BFB9ABD76F964C60","019ce7ab-bd20-7693-aa96-01a08948d3d9","019ce7a0-0965-7aa7-a556-174d32a8e773","","null","
                    <div class=""stimulus-container"">
                        <img src=""images/causal_sequence/museum_causal/museum_causal_5.png"" class=""exp-image"">
                        <div class=""question-area""></div> 
                    </div>","null","","","","","","",""
"","","","","","html-button-response","63","182894","0.0-63.0","BF33E0DF911A4B79BFB9ABD76F964C60","019ce7ab-bd20-7693-aa96-01a08948d3d9","019ce7a0-0965-7aa7-a556-174d32a8e773","","676","
                    <div class=""stimulus-container"">
                        <img src=""images/causal_sequence/museum_causal/museum_causal_5.png"" class=""exp-image"">
                        <div class=""question-area"">
                            <p style=""font-size: 20px; font-weight: bold; margin: 0;"">Is there a person in this image?</p>
                        </div>
                    </div>","0","main_causal_task","5","museum_causal","","","",""
"","","","","","html-keyboard-response","64","187897","0.0-64.0","BF33E0DF911A4B79BFB9ABD76F964C60","019ce7ab-bd20-7693-aa96-01a08948d3d9","019ce7a0-0965-7aa7-a556-174d32a8e773","","null","
                    <div class=""stimulus-container"">
                        <img src=""images/causal_sequence/museum_causal/museum_causal_6.png"" class=""exp-image"">
                        <div class=""question-area""></div> 
                    </div>","null","","","","","","",""
"","","","","","html-button-response","65","188912","0.0-65.0","BF33E0DF911A4B79BFB9ABD76F964C60","019ce7ab-bd20-7693-aa96-01a08948d3d9","019ce7a0-0965-7aa7-a556-174d32a8e773","","1013","
                    <div class=""stimulus-container"">
                        <img src=""images/causal_sequence/museum_causal/museum_causal_6.png"" class=""exp-image"">
                        <div class=""question-area"">
                            <p style=""font-size: 20px; font-weight: bold; margin: 0;"">Is there a person in this image?</p>
                        </div>
                    </div>","0","main_causal_task","6","museum_causal","","","",""
"","","","","","html-keyboard-response","66","193915","0.0-66.0","BF33E0DF911A4B79BFB9ABD76F964C60","019ce7ab-bd20-7693-aa96-01a08948d3d9","019ce7a0-0965-7aa7-a556-174d32a8e773","","null","
                    <div class=""stimulus-container"">
                        <img src=""images/causal_sequence/museum_causal/museum_causal_7.png"" class=""exp-image"">
                        <div class=""question-area""></div> 
                    </div>","null","","","","","","",""
"","","","","","html-button-response","67","194994","0.0-67.0","BF33E0DF911A4B79BFB9ABD76F964C60","019ce7ab-bd20-7693-aa96-01a08948d3d9","019ce7a0-0965-7aa7-a556-174d32a8e773","","1078","
                    <div class=""stimulus-container"">
                        <img src=""images/causal_sequence/museum_causal/museum_causal_7.png"" class=""exp-image"">
                        <div class=""question-area"">
                            <p style=""font-size: 20px; font-weight: bold; margin: 0;"">Is there a person in this image?</p>
                        </div>
                    </div>","1","main_causal_task","7","museum_causal","","","",""
"","","","","","html-keyboard-response","68","199996","0.0-68.0","BF33E0DF911A4B79BFB9ABD76F964C60","019ce7ab-bd20-7693-aa96-01a08948d3d9","019ce7a0-0965-7aa7-a556-174d32a8e773","","null","
                    <div class=""stimulus-container"">
                        <img src=""images/causal_sequence/museum_causal/museum_causal_8.png"" class=""exp-image"">
                        <div class=""question-area""></div> 
                    </div>","null","","","","","","",""
"","","","","","html-button-response","69","200382","0.0-69.0","BF33E0DF911A4B79BFB9ABD76F964C60","019ce7ab-bd20-7693-aa96-01a08948d3d9","019ce7a0-0965-7aa7-a556-174d32a8e773","","384","
                    <div class=""stimulus-container"">
                        <img src=""images/causal_sequence/museum_causal/museum_causal_8.png"" class=""exp-image"">
                        <div class=""question-area"">
                            <p style=""font-size: 20px; font-weight: bold; margin: 0;"">Is there a person in this image?</p>
                        </div>
                    </div>","0","main_causal_task","8","museum_causal","","","",""
"","","","","","html-keyboard-response","70","205385","0.0-70.0","BF33E0DF911A4B79BFB9ABD76F964C60","019ce7ab-bd20-7693-aa96-01a08948d3d9","019ce7a0-0965-7aa7-a556-174d32a8e773","","null","
                    <div class=""stimulus-container"">
                        <img src=""images/causal_sequence/museum_causal/museum_causal_9.png"" class=""exp-image"">
                        <div class=""question-area""></div> 
                    </div>","null","","","","","","",""
"","","","","","html-button-response","71","205867","0.0-71.0","BF33E0DF911A4B79BFB9ABD76F964C60","019ce7ab-bd20-7693-aa96-01a08948d3d9","019ce7a0-0965-7aa7-a556-174d32a8e773","","480","
                    <div class=""stimulus-container"">
                        <img src=""images/causal_sequence/museum_causal/museum_causal_9.png"" class=""exp-image"">
                        <div class=""question-area"">
                            <p style=""font-size: 20px; font-weight: bold; margin: 0;"">Is there a person in this image?</p>
                        </div>
                    </div>","1","main_causal_task","9","museum_causal","","","",""
"","","","","","html-keyboard-response","72","206869","0.0-72.0","BF33E0DF911A4B79BFB9ABD76F964C60","019ce7ab-bd20-7693-aa96-01a08948d3d9","019ce7a0-0965-7aa7-a556-174d32a8e773","","null","<div style=""background-color: gray; width: 100vw; height: 100vh;""></div>","null","","","","","","",""
"","","","","","html-keyboard-response","73","211873","0.0-73.0","BF33E0DF911A4B79BFB9ABD76F964C60","019ce7ab-bd20-7693-aa96-01a08948d3d9","019ce7a0-0965-7aa7-a556-174d32a8e773","","null","
                    <div class=""stimulus-container"">
                        <img src=""images/causal_sequence/the_performance_causal/the_performance_causal_1.png"" class=""exp-image"">
                        <div class=""question-area""></div> 
                    </div>","null","","","","","","",""
"","","","","","html-button-response","74","212511","0.0-74.0","BF33E0DF911A4B79BFB9ABD76F964C60","019ce7ab-bd20-7693-aa96-01a08948d3d9","019ce7a0-0965-7aa7-a556-174d32a8e773","","636","
                    <div class=""stimulus-container"">
                        <img src=""images/causal_sequence/the_performance_causal/the_performance_causal_1.png"" class=""exp-image"">
                        <div class=""question-area"">
                            <p style=""font-size: 20px; font-weight: bold; margin: 0;"">Is there a person in this image?</p>
                        </div>
                    </div>","0","main_causal_task","1","the_performance_causal","","","",""
"","","","","","html-keyboard-response","75","217514","0.0-75.0","BF33E0DF911A4B79BFB9ABD76F964C60","019ce7ab-bd20-7693-aa96-01a08948d3d9","019ce7a0-0965-7aa7-a556-174d32a8e773","","null","
                    <div class=""stimulus-container"">
                        <img src=""images/causal_sequence/the_performance_causal/the_performance_causal_2.png"" class=""exp-image"">
                        <div class=""question-area""></div> 
                    </div>","null","","","","","","",""
"","","","","","html-button-response","76","217918","0.0-76.0","BF33E0DF911A4B79BFB9ABD76F964C60","019ce7ab-bd20-7693-aa96-01a08948d3d9","019ce7a0-0965-7aa7-a556-174d32a8e773","","402","
                    <div class=""stimulus-container"">
                        <img src=""images/causal_sequence/the_performance_causal/the_performance_causal_2.png"" class=""exp-image"">
                        <div class=""question-area"">
                            <p style=""font-size: 20px; font-weight: bold; margin: 0;"">Is there a person in this image?</p>
                        </div>
                    </div>","0","main_causal_task","2","the_performance_causal","","","",""
"","","","","","html-keyboard-response","77","222921","0.0-77.0","BF33E0DF911A4B79BFB9ABD76F964C60","019ce7ab-bd20-7693-aa96-01a08948d3d9","019ce7a0-0965-7aa7-a556-174d32a8e773","","null","
                    <div class=""stimulus-container"">
                        <img src=""images/causal_sequence/the_performance_causal/the_performance_causal_3.png"" class=""exp-image"">
                        <div class=""question-area""></div> 
                    </div>","null","","","","","","",""
"","","","","","html-button-response","78","223461","0.0-78.0","BF33E0DF911A4B79BFB9ABD76F964C60","019ce7ab-bd20-7693-aa96-01a08948d3d9","019ce7a0-0965-7aa7-a556-174d32a8e773","","538","
                    <div class=""stimulus-container"">
                        <img src=""images/causal_sequence/the_performance_causal/the_performance_causal_3.png"" class=""exp-image"">
                        <div class=""question-area"">
                            <p style=""font-size: 20px; font-weight: bold; margin: 0;"">Is there a person in this image?</p>
                        </div>
                    </div>","0","main_causal_task","3","the_performance_causal","","","",""
"","","","","","html-keyboard-response","79","228464","0.0-79.0","BF33E0DF911A4B79BFB9ABD76F964C60","019ce7ab-bd20-7693-aa96-01a08948d3d9","019ce7a0-0965-7aa7-a556-174d32a8e773","","null","
                    <div class=""stimulus-container"">
                        <img src=""images/causal_sequence/the_performance_causal/the_performance_causal_4.png"" class=""exp-image"">
                        <div class=""question-area""></div> 
                    </div>","null","","","","","","",""
"","","","","","html-button-response","80","229010","0.0-80.0","BF33E0DF911A4B79BFB9ABD76F964C60","019ce7ab-bd20-7693-aa96-01a08948d3d9","019ce7a0-0965-7aa7-a556-174d32a8e773","","544","
                    <div class=""stimulus-container"">
                        <img src=""images/causal_sequence/the_performance_causal/the_performance_causal_4.png"" class=""exp-image"">
                        <div class=""question-area"">
                            <p style=""font-size: 20px; font-weight: bold; margin: 0;"">Is there a person in this image?</p>
                        </div>
                    </div>","0","main_causal_task","4","the_performance_causal","","","",""
"","","","","","html-keyboard-response","81","234013","0.0-81.0","BF33E0DF911A4B79BFB9ABD76F964C60","019ce7ab-bd20-7693-aa96-01a08948d3d9","019ce7a0-0965-7aa7-a556-174d32a8e773","","null","
                    <div class=""stimulus-container"">
                        <img src=""images/causal_sequence/the_performance_causal/the_performance_causal_5.png"" class=""exp-image"">
                        <div class=""question-area""></div> 
                    </div>","null","","","","","","",""
"","","","","","html-button-response","82","234423","0.0-82.0","BF33E0DF911A4B79BFB9ABD76F964C60","019ce7ab-bd20-7693-aa96-01a08948d3d9","019ce7a0-0965-7aa7-a556-174d32a8e773","","408","
                    <div class=""stimulus-container"">
                        <img src=""images/causal_sequence/the_performance_causal/the_performance_causal_5.png"" class=""exp-image"">
                        <div class=""question-area"">
                            <p style=""font-size: 20px; font-weight: bold; margin: 0;"">Is there a person in this image?</p>
                        </div>
                    </div>","0","main_causal_task","5","the_performance_causal","","","",""
"","","","","","html-keyboard-response","83","239426","0.0-83.0","BF33E0DF911A4B79BFB9ABD76F964C60","019ce7ab-bd20-7693-aa96-01a08948d3d9","019ce7a0-0965-7aa7-a556-174d32a8e773","","null","
                    <div class=""stimulus-container"">
                        <img src=""images/causal_sequence/the_performance_causal/the_performance_causal_6.png"" class=""exp-image"">
                        <div class=""question-area""></div> 
                    </div>","null","","","","","","",""
"","","","","","html-button-response","84","239796","0.0-84.0","BF33E0DF911A4B79BFB9ABD76F964C60","019ce7ab-bd20-7693-aa96-01a08948d3d9","019ce7a0-0965-7aa7-a556-174d32a8e773","","368","
                    <div class=""stimulus-container"">
                        <img src=""images/causal_sequence/the_performance_causal/the_performance_causal_6.png"" class=""exp-image"">
                        <div class=""question-area"">
                            <p style=""font-size: 20px; font-weight: bold; margin: 0;"">Is there a person in this image?</p>
                        </div>
                    </div>","0","main_causal_task","6","the_performance_causal","","","",""
"","","","","","html-keyboard-response","85","244800","0.0-85.0","BF33E0DF911A4B79BFB9ABD76F964C60","019ce7ab-bd20-7693-aa96-01a08948d3d9","019ce7a0-0965-7aa7-a556-174d32a8e773","","null","
                    <div class=""stimulus-container"">
                        <img src=""images/causal_sequence/the_performance_causal/the_performance_causal_7.png"" class=""exp-image"">
                        <div class=""question-area""></div> 
                    </div>","null","","","","","","",""
"","","","","","html-button-response","86","245231","0.0-86.0","BF33E0DF911A4B79BFB9ABD76F964C60","019ce7ab-bd20-7693-aa96-01a08948d3d9","019ce7a0-0965-7aa7-a556-174d32a8e773","","430","
                    <div class=""stimulus-container"">
                        <img src=""images/causal_sequence/the_performance_causal/the_performance_causal_7.png"" class=""exp-image"">
                        <div class=""question-area"">
                            <p style=""font-size: 20px; font-weight: bold; margin: 0;"">Is there a person in this image?</p>
                        </div>
                    </div>","0","main_causal_task","7","the_performance_causal","","","",""
"","","","","","html-keyboard-response","87","250234","0.0-87.0","BF33E0DF911A4B79BFB9ABD76F964C60","019ce7ab-bd20-7693-aa96-01a08948d3d9","019ce7a0-0965-7aa7-a556-174d32a8e773","","null","
                    <div class=""stimulus-container"">
                        <img src=""images/causal_sequence/the_performance_causal/the_performance_causal_8.png"" class=""exp-image"">
                        <div class=""question-area""></div> 
                    </div>","null","","","","","","",""
"","","","","","html-button-response","88","250641","0.0-88.0","BF33E0DF911A4B79BFB9ABD76F964C60","019ce7ab-bd20-7693-aa96-01a08948d3d9","019ce7a0-0965-7aa7-a556-174d32a8e773","","406","
                    <div class=""stimulus-container"">
                        <img src=""images/causal_sequence/the_performance_causal/the_performance_causal_8.png"" class=""exp-image"">
                        <div class=""question-area"">
                            <p style=""font-size: 20px; font-weight: bold; margin: 0;"">Is there a person in this image?</p>
                        </div>
                    </div>","0","main_causal_task","8","the_performance_causal","","","",""
"","","","","","html-keyboard-response","89","255645","0.0-89.0","BF33E0DF911A4B79BFB9ABD76F964C60","019ce7ab-bd20-7693-aa96-01a08948d3d9","019ce7a0-0965-7aa7-a556-174d32a8e773","","null","
                    <div class=""stimulus-container"">
                        <img src=""images/causal_sequence/the_performance_causal/the_performance_causal_9.png"" class=""exp-image"">
                        <div class=""question-area""></div> 
                    </div>","null","","","","","","",""
"","","","","","html-button-response","90","255987","0.0-90.0","BF33E0DF911A4B79BFB9ABD76F964C60","019ce7ab-bd20-7693-aa96-01a08948d3d9","019ce7a0-0965-7aa7-a556-174d32a8e773","","341","
                    <div class=""stimulus-container"">
                        <img src=""images/causal_sequence/the_performance_causal/the_performance_causal_9.png"" class=""exp-image"">
                        <div class=""question-area"">
                            <p style=""font-size: 20px; font-weight: bold; margin: 0;"">Is there a person in this image?</p>
                        </div>
                    </div>","0","main_causal_task","9","the_performance_causal","","","",""
"","","","","","html-keyboard-response","91","256990","0.0-91.0","BF33E0DF911A4B79BFB9ABD76F964C60","019ce7ab-bd20-7693-aa96-01a08948d3d9","019ce7a0-0965-7aa7-a556-174d32a8e773","","null","<div style=""background-color: gray; width: 100vw; height: 100vh;""></div>","null","","","","","","",""
"","","","","","html-keyboard-response","92","261992","0.0-92.0","BF33E0DF911A4B79BFB9ABD76F964C60","019ce7ab-bd20-7693-aa96-01a08948d3d9","019ce7a0-0965-7aa7-a556-174d32a8e773","","null","
                    <div class=""stimulus-container"">
                        <img src=""images/causal_sequence/coin_causal/coin_causal_1.png"" class=""exp-image"">
                        <div class=""question-area""></div> 
                    </div>","null","","","","","","",""
"","","","","","html-button-response","93","262387","0.0-93.0","BF33E0DF911A4B79BFB9ABD76F964C60","019ce7ab-bd20-7693-aa96-01a08948d3d9","019ce7a0-0965-7aa7-a556-174d32a8e773","","393","
                    <div class=""stimulus-container"">
                        <img src=""images/causal_sequence/coin_causal/coin_causal_1.png"" class=""exp-image"">
                        <div class=""question-area"">
                            <p style=""font-size: 20px; font-weight: bold; margin: 0;"">Is there a person in this image?</p>
                        </div>
                    </div>","0","main_causal_task","1","coin_causal","","","",""
"","","","","","html-keyboard-response","94","267390","0.0-94.0","BF33E0DF911A4B79BFB9ABD76F964C60","019ce7ab-bd20-7693-aa96-01a08948d3d9","019ce7a0-0965-7aa7-a556-174d32a8e773","","null","
                    <div class=""stimulus-container"">
                        <img src=""images/causal_sequence/coin_causal/coin_causal_2.png"" class=""exp-image"">
                        <div class=""question-area""></div> 
                    </div>","null","","","","","","",""
"","","","","","html-button-response","95","267766","0.0-95.0","BF33E0DF911A4B79BFB9ABD76F964C60","019ce7ab-bd20-7693-aa96-01a08948d3d9","019ce7a0-0965-7aa7-a556-174d32a8e773","","375","
                    <div class=""stimulus-container"">
                        <img src=""images/causal_sequence/coin_causal/coin_causal_2.png"" class=""exp-image"">
                        <div class=""question-area"">
                            <p style=""font-size: 20px; font-weight: bold; margin: 0;"">Is there a person in this image?</p>
                        </div>
                    </div>","0","main_causal_task","2","coin_causal","","","",""
"","","","","","html-keyboard-response","96","272769","0.0-96.0","BF33E0DF911A4B79BFB9ABD76F964C60","019ce7ab-bd20-7693-aa96-01a08948d3d9","019ce7a0-0965-7aa7-a556-174d32a8e773","","null","
                    <div class=""stimulus-container"">
                        <img src=""images/causal_sequence/coin_causal/coin_causal_3.png"" class=""exp-image"">
                        <div class=""question-area""></div> 
                    </div>","null","","","","","","",""
"","","","","","html-button-response","97","273344","0.0-97.0","BF33E0DF911A4B79BFB9ABD76F964C60","019ce7ab-bd20-7693-aa96-01a08948d3d9","019ce7a0-0965-7aa7-a556-174d32a8e773","","573","
                    <div class=""stimulus-container"">
                        <img src=""images/causal_sequence/coin_causal/coin_causal_3.png"" class=""exp-image"">
                        <div class=""question-area"">
                            <p style=""font-size: 20px; font-weight: bold; margin: 0;"">Is there a person in this image?</p>
                        </div>
                    </div>","0","main_causal_task","3","coin_causal","","","",""
"","","","","","html-keyboard-response","98","278347","0.0-98.0","BF33E0DF911A4B79BFB9ABD76F964C60","019ce7ab-bd20-7693-aa96-01a08948d3d9","019ce7a0-0965-7aa7-a556-174d32a8e773","","null","
                    <div class=""stimulus-container"">
                        <img src=""images/causal_sequence/coin_causal/coin_causal_4.png"" class=""exp-image"">
                        <div class=""question-area""></div> 
                    </div>","null","","","","","","",""
"","","","","","html-button-response","99","278795","0.0-99.0","BF33E0DF911A4B79BFB9ABD76F964C60","019ce7ab-bd20-7693-aa96-01a08948d3d9","019ce7a0-0965-7aa7-a556-174d32a8e773","","447","
                    <div class=""stimulus-container"">
                        <img src=""images/causal_sequence/coin_causal/coin_causal_4.png"" class=""exp-image"">
                        <div class=""question-area"">
                            <p style=""font-size: 20px; font-weight: bold; margin: 0;"">Is there a person in this image?</p>
                        </div>
                    </div>","0","main_causal_task","4","coin_causal","","","",""
"","","","","","html-keyboard-response","100","283798","0.0-100.0","BF33E0DF911A4B79BFB9ABD76F964C60","019ce7ab-bd20-7693-aa96-01a08948d3d9","019ce7a0-0965-7aa7-a556-174d32a8e773","","null","
                    <div class=""stimulus-container"">
                        <img src=""images/causal_sequence/coin_causal/coin_causal_5.png"" class=""exp-image"">
                        <div class=""question-area""></div> 
                    </div>","null","","","","","","",""
"","","","","","html-button-response","101","284325","0.0-101.0","BF33E0DF911A4B79BFB9ABD76F964C60","019ce7ab-bd20-7693-aa96-01a08948d3d9","019ce7a0-0965-7aa7-a556-174d32a8e773","","525","
                    <div class=""stimulus-container"">
                        <img src=""images/causal_sequence/coin_causal/coin_causal_5.png"" class=""exp-image"">
                        <div class=""question-area"">
                            <p style=""font-size: 20px; font-weight: bold; margin: 0;"">Is there a person in this image?</p>
                        </div>
                    </div>","0","main_causal_task","5","coin_causal","","","",""
"","","","","","html-keyboard-response","102","289328","0.0-102.0","BF33E0DF911A4B79BFB9ABD76F964C60","019ce7ab-bd20-7693-aa96-01a08948d3d9","019ce7a0-0965-7aa7-a556-174d32a8e773","","null","
                    <div class=""stimulus-container"">
                        <img src=""images/causal_sequence/coin_causal/coin_causal_6.png"" class=""exp-image"">
                        <div class=""question-area""></div> 
                    </div>","null","","","","","","",""
"","","","","","html-button-response","103","289754","0.0-103.0","BF33E0DF911A4B79BFB9ABD76F964C60","019ce7ab-bd20-7693-aa96-01a08948d3d9","019ce7a0-0965-7aa7-a556-174d32a8e773","","424","
                    <div class=""stimulus-container"">
                        <img src=""images/causal_sequence/coin_causal/coin_causal_6.png"" class=""exp-image"">
                        <div class=""question-area"">
                            <p style=""font-size: 20px; font-weight: bold; margin: 0;"">Is there a person in this image?</p>
                        </div>
                    </div>","0","main_causal_task","6","coin_causal","","","",""
"","","","","","html-keyboard-response","104","294757","0.0-104.0","BF33E0DF911A4B79BFB9ABD76F964C60","019ce7ab-bd20-7693-aa96-01a08948d3d9","019ce7a0-0965-7aa7-a556-174d32a8e773","","null","
                    <div class=""stimulus-container"">
                        <img src=""images/causal_sequence/coin_causal/coin_causal_7.png"" class=""exp-image"">
                        <div class=""question-area""></div> 
                    </div>","null","","","","","","",""
"","","","","","html-button-response","105","295901","0.0-105.0","BF33E0DF911A4B79BFB9ABD76F964C60","019ce7ab-bd20-7693-aa96-01a08948d3d9","019ce7a0-0965-7aa7-a556-174d32a8e773","","1142","
                    <div class=""stimulus-container"">
                        <img src=""images/causal_sequence/coin_causal/coin_causal_7.png"" class=""exp-image"">
                        <div class=""question-area"">
                            <p style=""font-size: 20px; font-weight: bold; margin: 0;"">Is there a person in this image?</p>
                        </div>
                    </div>","1","main_causal_task","7","coin_causal","","","",""
"","","","","","html-keyboard-response","106","300904","0.0-106.0","BF33E0DF911A4B79BFB9ABD76F964C60","019ce7ab-bd20-7693-aa96-01a08948d3d9","019ce7a0-0965-7aa7-a556-174d32a8e773","","null","
                    <div class=""stimulus-container"">
                        <img src=""images/causal_sequence/coin_causal/coin_causal_8.png"" class=""exp-image"">
                        <div class=""question-area""></div> 
                    </div>","null","","","","","","",""
"","","","","","html-button-response","107","301682","0.0-107.0","BF33E0DF911A4B79BFB9ABD76F964C60","019ce7ab-bd20-7693-aa96-01a08948d3d9","019ce7a0-0965-7aa7-a556-174d32a8e773","","777","
                    <div class=""stimulus-container"">
                        <img src=""images/causal_sequence/coin_causal/coin_causal_8.png"" class=""exp-image"">
                        <div class=""question-area"">
                            <p style=""font-size: 20px; font-weight: bold; margin: 0;"">Is there a person in this image?</p>
                        </div>
                    </div>","0","main_causal_task","8","coin_causal","","","",""
"","","","","","html-keyboard-response","108","306685","0.0-108.0","BF33E0DF911A4B79BFB9ABD76F964C60","019ce7ab-bd20-7693-aa96-01a08948d3d9","019ce7a0-0965-7aa7-a556-174d32a8e773","","null","
                    <div class=""stimulus-container"">
                        <img src=""images/causal_sequence/coin_causal/coin_causal_9.png"" class=""exp-image"">
                        <div class=""question-area""></div> 
                    </div>","null","","","","","","",""
"","","","","","html-button-response","109","307071","0.0-109.0","BF33E0DF911A4B79BFB9ABD76F964C60","019ce7ab-bd20-7693-aa96-01a08948d3d9","019ce7a0-0965-7aa7-a556-174d32a8e773","","385","
                    <div class=""stimulus-container"">
                        <img src=""images/causal_sequence/coin_causal/coin_causal_9.png"" class=""exp-image"">
                        <div class=""question-area"">
                            <p style=""font-size: 20px; font-weight: bold; margin: 0;"">Is there a person in this image?</p>
                        </div>
                    </div>","0","main_causal_task","9","coin_causal","","","",""
"","","","","","html-keyboard-response","110","308074","0.0-110.0","BF33E0DF911A4B79BFB9ABD76F964C60","019ce7ab-bd20-7693-aa96-01a08948d3d9","019ce7a0-0965-7aa7-a556-174d32a8e773","","null","<div style=""background-color: gray; width: 100vw; height: 100vh;""></div>","null","","","","","","",""
"","","","","","html-keyboard-response","111","313076","0.0-111.0","BF33E0DF911A4B79BFB9ABD76F964C60","019ce7ab-bd20-7693-aa96-01a08948d3d9","019ce7a0-0965-7aa7-a556-174d32a8e773","","null","
                    <div class=""stimulus-container"">
                        <img src=""images/causal_sequence/saving_a_cat_causal/saving_a_cat_causal_1.png"" class=""exp-image"">
                        <div class=""question-area""></div> 
                    </div>","null","","","","","","",""
"","","","","","html-button-response","112","313495","0.0-112.0","BF33E0DF911A4B79BFB9ABD76F964C60","019ce7ab-bd20-7693-aa96-01a08948d3d9","019ce7a0-0965-7aa7-a556-174d32a8e773","","417","
                    <div class=""stimulus-container"">
                        <img src=""images/causal_sequence/saving_a_cat_causal/saving_a_cat_causal_1.png"" class=""exp-image"">
                        <div class=""question-area"">
                            <p style=""font-size: 20px; font-weight: bold; margin: 0;"">Is there a person in this image?</p>
                        </div>
                    </div>","0","main_causal_task","1","saving_a_cat_causal","","","",""
"","","","","","html-keyboard-response","113","318497","0.0-113.0","BF33E0DF911A4B79BFB9ABD76F964C60","019ce7ab-bd20-7693-aa96-01a08948d3d9","019ce7a0-0965-7aa7-a556-174d32a8e773","","null","
                    <div class=""stimulus-container"">
                        <img src=""images/causal_sequence/saving_a_cat_causal/saving_a_cat_causal_2.png"" class=""exp-image"">
                        <div class=""question-area""></div> 
                    </div>","null","","","","","","",""
"","","","","","html-button-response","114","319470","0.0-114.0","BF33E0DF911A4B79BFB9ABD76F964C60","019ce7ab-bd20-7693-aa96-01a08948d3d9","019ce7a0-0965-7aa7-a556-174d32a8e773","","971","
                    <div class=""stimulus-container"">
                        <img src=""images/causal_sequence/saving_a_cat_causal/saving_a_cat_causal_2.png"" class=""exp-image"">
                        <div class=""question-area"">
                            <p style=""font-size: 20px; font-weight: bold; margin: 0;"">Is there a person in this image?</p>
                        </div>
                    </div>","0","main_causal_task","2","saving_a_cat_causal","","","",""
"","","","","","html-keyboard-response","115","324473","0.0-115.0","BF33E0DF911A4B79BFB9ABD76F964C60","019ce7ab-bd20-7693-aa96-01a08948d3d9","019ce7a0-0965-7aa7-a556-174d32a8e773","","null","
                    <div class=""stimulus-container"">
                        <img src=""images/causal_sequence/saving_a_cat_causal/saving_a_cat_causal_3.png"" class=""exp-image"">
                        <div class=""question-area""></div> 
                    </div>","null","","","","","","",""
"","","","","","html-button-response","116","324871","0.0-116.0","BF33E0DF911A4B79BFB9ABD76F964C60","019ce7ab-bd20-7693-aa96-01a08948d3d9","019ce7a0-0965-7aa7-a556-174d32a8e773","","397","
                    <div class=""stimulus-container"">
                        <img src=""images/causal_sequence/saving_a_cat_causal/saving_a_cat_causal_3.png"" class=""exp-image"">
                        <div class=""question-area"">
                            <p style=""font-size: 20px; font-weight: bold; margin: 0;"">Is there a person in this image?</p>
                        </div>
                    </div>","0","main_causal_task","3","saving_a_cat_causal","","","",""
"","","","","","html-keyboard-response","117","329874","0.0-117.0","BF33E0DF911A4B79BFB9ABD76F964C60","019ce7ab-bd20-7693-aa96-01a08948d3d9","019ce7a0-0965-7aa7-a556-174d32a8e773","","null","
                    <div class=""stimulus-container"">
                        <img src=""images/causal_sequence/saving_a_cat_causal/saving_a_cat_causal_4.png"" class=""exp-image"">
                        <div class=""question-area""></div> 
                    </div>","null","","","","","","",""
"","","","","","html-button-response","118","330332","0.0-118.0","BF33E0DF911A4B79BFB9ABD76F964C60","019ce7ab-bd20-7693-aa96-01a08948d3d9","019ce7a0-0965-7aa7-a556-174d32a8e773","","456","
                    <div class=""stimulus-container"">
                        <img src=""images/causal_sequence/saving_a_cat_causal/saving_a_cat_causal_4.png"" class=""exp-image"">
                        <div class=""question-area"">
                            <p style=""font-size: 20px; font-weight: bold; margin: 0;"">Is there a person in this image?</p>
                        </div>
                    </div>","0","main_causal_task","4","saving_a_cat_causal","","","",""
"","","","","","html-keyboard-response","119","335334","0.0-119.0","BF33E0DF911A4B79BFB9ABD76F964C60","019ce7ab-bd20-7693-aa96-01a08948d3d9","019ce7a0-0965-7aa7-a556-174d32a8e773","","null","
                    <div class=""stimulus-container"">
                        <img src=""images/causal_sequence/saving_a_cat_causal/saving_a_cat_causal_5.png"" class=""exp-image"">
                        <div class=""question-area""></div> 
                    </div>","null","","","","","","",""
"","","","","","html-button-response","120","335811","0.0-120.0","BF33E0DF911A4B79BFB9ABD76F964C60","019ce7ab-bd20-7693-aa96-01a08948d3d9","019ce7a0-0965-7aa7-a556-174d32a8e773","","475","
                    <div class=""stimulus-container"">
                        <img src=""images/causal_sequence/saving_a_cat_causal/saving_a_cat_causal_5.png"" class=""exp-image"">
                        <div class=""question-area"">
                            <p style=""font-size: 20px; font-weight: bold; margin: 0;"">Is there a person in this image?</p>
                        </div>
                    </div>","0","main_causal_task","5","saving_a_cat_causal","","","",""
"","","","","","html-keyboard-response","121","340814","0.0-121.0","BF33E0DF911A4B79BFB9ABD76F964C60","019ce7ab-bd20-7693-aa96-01a08948d3d9","019ce7a0-0965-7aa7-a556-174d32a8e773","","null","
                    <div class=""stimulus-container"">
                        <img src=""images/causal_sequence/saving_a_cat_causal/saving_a_cat_causal_6.png"" class=""exp-image"">
                        <div class=""question-area""></div> 
                    </div>","null","","","","","","",""
"","","","","","html-button-response","122","341232","0.0-122.0","BF33E0DF911A4B79BFB9ABD76F964C60","019ce7ab-bd20-7693-aa96-01a08948d3d9","019ce7a0-0965-7aa7-a556-174d32a8e773","","416","
                    <div class=""stimulus-container"">
                        <img src=""images/causal_sequence/saving_a_cat_causal/saving_a_cat_causal_6.png"" class=""exp-image"">
                        <div class=""question-area"">
                            <p style=""font-size: 20px; font-weight: bold; margin: 0;"">Is there a person in this image?</p>
                        </div>
                    </div>","0","main_causal_task","6","saving_a_cat_causal","","","",""
"","","","","","html-keyboard-response","123","346235","0.0-123.0","BF33E0DF911A4B79BFB9ABD76F964C60","019ce7ab-bd20-7693-aa96-01a08948d3d9","019ce7a0-0965-7aa7-a556-174d32a8e773","","null","
                    <div class=""stimulus-container"">
                        <img src=""images/causal_sequence/saving_a_cat_causal/saving_a_cat_causal_7.png"" class=""exp-image"">
                        <div class=""question-area""></div> 
                    </div>","null","","","","","","",""
"","","","","","html-button-response","124","346663","0.0-124.0","BF33E0DF911A4B79BFB9ABD76F964C60","019ce7ab-bd20-7693-aa96-01a08948d3d9","019ce7a0-0965-7aa7-a556-174d32a8e773","","426","
                    <div class=""stimulus-container"">
                        <img src=""images/causal_sequence/saving_a_cat_causal/saving_a_cat_causal_7.png"" class=""exp-image"">
                        <div class=""question-area"">
                            <p style=""font-size: 20px; font-weight: bold; margin: 0;"">Is there a person in this image?</p>
                        </div>
                    </div>","0","main_causal_task","7","saving_a_cat_causal","","","",""
"","","","","","html-keyboard-response","125","351666","0.0-125.0","BF33E0DF911A4B79BFB9ABD76F964C60","019ce7ab-bd20-7693-aa96-01a08948d3d9","019ce7a0-0965-7aa7-a556-174d32a8e773","","null","
                    <div class=""stimulus-container"">
                        <img src=""images/causal_sequence/saving_a_cat_causal/saving_a_cat_causal_8.png"" class=""exp-image"">
                        <div class=""question-area""></div> 
                    </div>","null","","","","","","",""
"","","","","","html-button-response","126","352103","0.0-126.0","BF33E0DF911A4B79BFB9ABD76F964C60","019ce7ab-bd20-7693-aa96-01a08948d3d9","019ce7a0-0965-7aa7-a556-174d32a8e773","","436","
                    <div class=""stimulus-container"">
                        <img src=""images/causal_sequence/saving_a_cat_causal/saving_a_cat_causal_8.png"" class=""exp-image"">
                        <div class=""question-area"">
                            <p style=""font-size: 20px; font-weight: bold; margin: 0;"">Is there a person in this image?</p>
                        </div>
                    </div>","0","main_causal_task","8","saving_a_cat_causal","","","",""
"","","","","","html-keyboard-response","127","357105","0.0-127.0","BF33E0DF911A4B79BFB9ABD76F964C60","019ce7ab-bd20-7693-aa96-01a08948d3d9","019ce7a0-0965-7aa7-a556-174d32a8e773","","null","
                    <div class=""stimulus-container"">
                        <img src=""images/causal_sequence/saving_a_cat_causal/saving_a_cat_causal_9.png"" class=""exp-image"">
                        <div class=""question-area""></div> 
                    </div>","null","","","","","","",""
"","","","","","html-button-response","128","357512","0.0-128.0","BF33E0DF911A4B79BFB9ABD76F964C60","019ce7ab-bd20-7693-aa96-01a08948d3d9","019ce7a0-0965-7aa7-a556-174d32a8e773","","405","
                    <div class=""stimulus-container"">
                        <img src=""images/causal_sequence/saving_a_cat_causal/saving_a_cat_causal_9.png"" class=""exp-image"">
                        <div class=""question-area"">
                            <p style=""font-size: 20px; font-weight: bold; margin: 0;"">Is there a person in this image?</p>
                        </div>
                    </div>","0","main_causal_task","9","saving_a_cat_causal","","","",""
"","","","","","instructions","129","370390","0.0-129.0","BF33E0DF911A4B79BFB9ABD76F964C60","019ce7ab-bd20-7693-aa96-01a08948d3d9","019ce7a0-0965-7aa7-a556-174d32a8e773","[{""page_index"":0,""viewing_time"":12877}]","12878","","","","","","","","",""
"","","","","","instructions","130","621424","0.0-130.0","BF33E0DF911A4B79BFB9ABD76F964C60","019ce7ab-bd20-7693-aa96-01a08948d3d9","019ce7a0-0965-7aa7-a556-174d32a8e773","[{""page_index"":0,""viewing_time"":68600}]","68600","","","","","","","","",""
"","","","","","html-keyboard-response","131","622427","0.0-131.0","BF33E0DF911A4B79BFB9ABD76F964C60","019ce7ab-bd20-7693-aa96-01a08948d3d9","019ce7a0-0965-7aa7-a556-174d32a8e773","","null","
        <div class=""stimulus-container"" style=""display: flex; align-items: center; justify-content: center; gap: 30px;"">
            <img src=""images/instructions/movie_1.png"" class=""exp-image"">
            <div style=""font-size: 40px; font-weight: bold; color: green; border: 5px solid green; padding: 25px; border-radius: 15px; background-color: #f0fff0;"">
                WORTH<br>$1
            </div>
        </div>
        <div class=""question-area""></div>","null","","","","","","",""
"","","","","","html-button-response","132","623869","0.0-132.0","BF33E0DF911A4B79BFB9ABD76F964C60","019ce7ab-bd20-7693-aa96-01a08948d3d9","019ce7a0-0965-7aa7-a556-174d32a8e773","","1440","
        <div class=""stimulus-container"" style=""display: flex; align-items: center; justify-content: center; gap: 30px;"">
            <img src=""images/instructions/movie_1.png"" class=""exp-image"">
            <div style=""font-size: 40px; font-weight: bold; color: green; border: 5px solid green; padding: 25px; border-radius: 15px; background-color: #f0fff0;"">
                WORTH<br>$1
            </div>
        </div>
        <div class=""question-area"">
            <p style=""font-size: 20px; font-weight: bold; margin: 0;"">Was there a person in this image?</p>
        </div>","0","","","","","","",""
"","","","","","instructions","133","625340","0.0-133.0","BF33E0DF911A4B79BFB9ABD76F964C60","019ce7ab-bd20-7693-aa96-01a08948d3d9","019ce7a0-0965-7aa7-a556-174d32a8e773","[{""page_index"":0,""viewing_time"":1470}]","1470","","","","","","","","",""
"","","","","","html-keyboard-response","134","635342","0.0-134.0","BF33E0DF911A4B79BFB9ABD76F964C60","019ce7ab-bd20-7693-aa96-01a08948d3d9","019ce7a0-0965-7aa7-a556-174d32a8e773","","null","
            <div class=""stimulus-container"" style=""display: flex; align-items: center; justify-content: center; gap: 30px;"">
                <img src=""images/causal_sequence/museum_causal/museum_causal_6.png"" class=""exp-image"">
                <div style=""font-size: 40px; font-weight: bold; color: green; border: 5px solid green; padding: 25px; border-radius: 15px; background-color: #f0fff0;"">
                    WORTH<br>$1
                </div>
            </div>
            <div class=""question-area""></div>","null","","","","","","",""
"","","","","","html-button-response","135","636844","0.0-135.0","BF33E0DF911A4B79BFB9ABD76F964C60","019ce7ab-bd20-7693-aa96-01a08948d3d9","019ce7a0-0965-7aa7-a556-174d32a8e773","","1500","
            <div class=""stimulus-container"" style=""display: flex; align-items: center; justify-content: center; gap: 30px;"">
                <img src=""images/causal_sequence/museum_causal/museum_causal_6.png"" class=""exp-image"">
                <div style=""font-size: 40px; font-weight: bold; color: green; border: 5px solid green; padding: 25px; border-radius: 15px; background-color: #f0fff0;"">
                    WORTH<br>$1
                </div>
            </div>
            <div class=""question-area"">
                <p style=""font-size: 20px; font-weight: bold; margin: 0;"">Was there a person in this image?</p>
            </div>","0","part2_value_learning","","museum_causal","6","","",""
"","","","","","html-keyboard-response","136","646847","0.0-136.0","BF33E0DF911A4B79BFB9ABD76F964C60","019ce7ab-bd20-7693-aa96-01a08948d3d9","019ce7a0-0965-7aa7-a556-174d32a8e773","","null","
            <div class=""stimulus-container"" style=""display: flex; align-items: center; justify-content: center; gap: 30px;"">
                <img src=""images/causal_sequence/coin_causal/coin_causal_6.png"" class=""exp-image"">
                <div style=""font-size: 40px; font-weight: bold; color: green; border: 5px solid green; padding: 25px; border-radius: 15px; background-color: #f0fff0;"">
                    WORTH<br>$1
                </div>
            </div>
            <div class=""question-area""></div>","null","","","","","","",""
"","","","","","html-button-response","137","647895","0.0-137.0","BF33E0DF911A4B79BFB9ABD76F964C60","019ce7ab-bd20-7693-aa96-01a08948d3d9","019ce7a0-0965-7aa7-a556-174d32a8e773","","1046","
            <div class=""stimulus-container"" style=""display: flex; align-items: center; justify-content: center; gap: 30px;"">
                <img src=""images/causal_sequence/coin_causal/coin_causal_6.png"" class=""exp-image"">
                <div style=""font-size: 40px; font-weight: bold; color: green; border: 5px solid green; padding: 25px; border-radius: 15px; background-color: #f0fff0;"">
                    WORTH<br>$1
                </div>
            </div>
            <div class=""question-area"">
                <p style=""font-size: 20px; font-weight: bold; margin: 0;"">Was there a person in this image?</p>
            </div>","0","part2_value_learning","","coin_causal","6","","",""
"","","","","","html-keyboard-response","138","657898","0.0-138.0","BF33E0DF911A4B79BFB9ABD76F964C60","019ce7ab-bd20-7693-aa96-01a08948d3d9","019ce7a0-0965-7aa7-a556-174d32a8e773","","null","
            <div class=""stimulus-container"" style=""display: flex; align-items: center; justify-content: center; gap: 30px;"">
                <img src=""images/causal_sequence/dog_causal/dog_causal_3.png"" class=""exp-image"">
                <div style=""font-size: 40px; font-weight: bold; color: green; border: 5px solid green; padding: 25px; border-radius: 15px; background-color: #f0fff0;"">
                    WORTH<br>$1
                </div>
            </div>
            <div class=""question-area""></div>","null","","","","","","",""
"","","","","","html-button-response","139","658697","0.0-139.0","BF33E0DF911A4B79BFB9ABD76F964C60","019ce7ab-bd20-7693-aa96-01a08948d3d9","019ce7a0-0965-7aa7-a556-174d32a8e773","","797","
            <div class=""stimulus-container"" style=""display: flex; align-items: center; justify-content: center; gap: 30px;"">
                <img src=""images/causal_sequence/dog_causal/dog_causal_3.png"" class=""exp-image"">
                <div style=""font-size: 40px; font-weight: bold; color: green; border: 5px solid green; padding: 25px; border-radius: 15px; background-color: #f0fff0;"">
                    WORTH<br>$1
                </div>
            </div>
            <div class=""question-area"">
                <p style=""font-size: 20px; font-weight: bold; margin: 0;"">Was there a person in this image?</p>
            </div>","0","part2_value_learning","","dog_causal","3","","",""
"","","","","","html-keyboard-response","140","668700","0.0-140.0","BF33E0DF911A4B79BFB9ABD76F964C60","019ce7ab-bd20-7693-aa96-01a08948d3d9","019ce7a0-0965-7aa7-a556-174d32a8e773","","null","
            <div class=""stimulus-container"" style=""display: flex; align-items: center; justify-content: center; gap: 30px;"">
                <img src=""images/causal_sequence/package_causal/package_causal_4.png"" class=""exp-image"">
                <div style=""font-size: 40px; font-weight: bold; color: green; border: 5px solid green; padding: 25px; border-radius: 15px; background-color: #f0fff0;"">
                    WORTH<br>$1
                </div>
            </div>
            <div class=""question-area""></div>","null","","","","","","",""
"","","","","","html-button-response","141","669396","0.0-141.0","BF33E0DF911A4B79BFB9ABD76F964C60","019ce7ab-bd20-7693-aa96-01a08948d3d9","019ce7a0-0965-7aa7-a556-174d32a8e773","","694","
            <div class=""stimulus-container"" style=""display: flex; align-items: center; justify-content: center; gap: 30px;"">
                <img src=""images/causal_sequence/package_causal/package_causal_4.png"" class=""exp-image"">
                <div style=""font-size: 40px; font-weight: bold; color: green; border: 5px solid green; padding: 25px; border-radius: 15px; background-color: #f0fff0;"">
                    WORTH<br>$1
                </div>
            </div>
            <div class=""question-area"">
                <p style=""font-size: 20px; font-weight: bold; margin: 0;"">Was there a person in this image?</p>
            </div>","1","part2_value_learning","","package_causal","4","","",""
"","","","","","html-keyboard-response","142","679399","0.0-142.0","BF33E0DF911A4B79BFB9ABD76F964C60","019ce7ab-bd20-7693-aa96-01a08948d3d9","019ce7a0-0965-7aa7-a556-174d32a8e773","","null","
            <div class=""stimulus-container"" style=""display: flex; align-items: center; justify-content: center; gap: 30px;"">
                <img src=""images/causal_sequence/the_performance_causal/the_performance_causal_3.png"" class=""exp-image"">
                <div style=""font-size: 40px; font-weight: bold; color: green; border: 5px solid green; padding: 25px; border-radius: 15px; background-color: #f0fff0;"">
                    WORTH<br>$1
                </div>
            </div>
            <div class=""question-area""></div>","null","","","","","","",""
"","","","","","html-button-response","143","679841","0.0-143.0","BF33E0DF911A4B79BFB9ABD76F964C60","019ce7ab-bd20-7693-aa96-01a08948d3d9","019ce7a0-0965-7aa7-a556-174d32a8e773","","441","
            <div class=""stimulus-container"" style=""display: flex; align-items: center; justify-content: center; gap: 30px;"">
                <img src=""images/causal_sequence/the_performance_causal/the_performance_causal_3.png"" class=""exp-image"">
                <div style=""font-size: 40px; font-weight: bold; color: green; border: 5px solid green; padding: 25px; border-radius: 15px; background-color: #f0fff0;"">
                    WORTH<br>$1
                </div>
            </div>
            <div class=""question-area"">
                <p style=""font-size: 20px; font-weight: bold; margin: 0;"">Was there a person in this image?</p>
            </div>","0","part2_value_learning","","the_performance_causal","3","","",""
"","","","","","html-keyboard-response","144","689844","0.0-144.0","BF33E0DF911A4B79BFB9ABD76F964C60","019ce7ab-bd20-7693-aa96-01a08948d3d9","019ce7a0-0965-7aa7-a556-174d32a8e773","","null","
            <div class=""stimulus-container"" style=""display: flex; align-items: center; justify-content: center; gap: 30px;"">
                <img src=""images/causal_sequence/saving_a_cat_causal/saving_a_cat_causal_4.png"" class=""exp-image"">
                <div style=""font-size: 40px; font-weight: bold; color: green; border: 5px solid green; padding: 25px; border-radius: 15px; background-color: #f0fff0;"">
                    WORTH<br>$1
                </div>
            </div>
            <div class=""question-area""></div>","null","","","","","","",""
"","","","","","html-button-response","145","690863","0.0-145.0","BF33E0DF911A4B79BFB9ABD76F964C60","019ce7ab-bd20-7693-aa96-01a08948d3d9","019ce7a0-0965-7aa7-a556-174d32a8e773","","1017","
            <div class=""stimulus-container"" style=""display: flex; align-items: center; justify-content: center; gap: 30px;"">
                <img src=""images/causal_sequence/saving_a_cat_causal/saving_a_cat_causal_4.png"" class=""exp-image"">
                <div style=""font-size: 40px; font-weight: bold; color: green; border: 5px solid green; padding: 25px; border-radius: 15px; background-color: #f0fff0;"">
                    WORTH<br>$1
                </div>
            </div>
            <div class=""question-area"">
                <p style=""font-size: 20px; font-weight: bold; margin: 0;"">Was there a person in this image?</p>
            </div>","0","part2_value_learning","","saving_a_cat_causal","4","","",""
"","","","","","instructions","146","696063","0.0-146.0","BF33E0DF911A4B79BFB9ABD76F964C60","019ce7ab-bd20-7693-aa96-01a08948d3d9","019ce7a0-0965-7aa7-a556-174d32a8e773","[{""page_index"":0,""viewing_time"":5198}]","5199","","","","","","","","",""
"","","","","","instructions","147","697313","0.0-147.0","BF33E0DF911A4B79BFB9ABD76F964C60","019ce7ab-bd20-7693-aa96-01a08948d3d9","019ce7a0-0965-7aa7-a556-174d32a8e773","[{""page_index"":0,""viewing_time"":1248}]","1249","","","","","","","","",""
"","","","","","html-keyboard-response","148","707316","0.0-148.0-0.0","BF33E0DF911A4B79BFB9ABD76F964C60","019ce7ab-bd20-7693-aa96-01a08948d3d9","019ce7a0-0965-7aa7-a556-174d32a8e773","","null","
                        <div style=""font-family: Arial; margin-bottom: 20px;""><h3>Which image is more valuable?</h3></div>
                        <div class=""stimulus-container"" style=""display: flex; width: 1100px; justify-content: center; gap: 50px;"">
                            <img src=""images/causal_sequence/museum_causal/museum_causal_8.png"" class=""exp-image"">
                            <img src=""images/causal_sequence/museum_causal/museum_causal_4.png"" class=""exp-image"">
                        </div>","null","","","","","","",""
"","","","","","html-button-response","149","708327","0.0-148.0-1.0","BF33E0DF911A4B79BFB9ABD76F964C60","019ce7ab-bd20-7693-aa96-01a08948d3d9","019ce7a0-0965-7aa7-a556-174d32a8e773","","1008","
                        <div style=""font-family: Arial; margin-bottom: 20px;""><h3>Which image is more valuable?</h3></div>
                        <div class=""stimulus-container"" style=""display: flex; width: 1100px; justify-content: center; gap: 50px;"">
                            <img src=""images/causal_sequence/museum_causal/museum_causal_8.png"" class=""exp-image"">
                            <img src=""images/causal_sequence/museum_causal/museum_causal_4.png"" class=""exp-image"">
                        </div>","0","part3_final_choice","","museum_causal","","6","8","2"
"","","","","","html-keyboard-response","150","718330","0.0-149.0-0.0","BF33E0DF911A4B79BFB9ABD76F964C60","019ce7ab-bd20-7693-aa96-01a08948d3d9","019ce7a0-0965-7aa7-a556-174d32a8e773","","null","
                        <div style=""font-family: Arial; margin-bottom: 20px;""><h3>Which image is more valuable?</h3></div>
                        <div class=""stimulus-container"" style=""display: flex; width: 1100px; justify-content: center; gap: 50px;"">
                            <img src=""images/causal_sequence/coin_causal/coin_causal_8.png"" class=""exp-image"">
                            <img src=""images/causal_sequence/coin_causal/coin_causal_4.png"" class=""exp-image"">
                        </div>","null","","","","","","",""
"","","","","","html-button-response","151","719404","0.0-149.0-1.0","BF33E0DF911A4B79BFB9ABD76F964C60","019ce7ab-bd20-7693-aa96-01a08948d3d9","019ce7a0-0965-7aa7-a556-174d32a8e773","","1072","
                        <div style=""font-family: Arial; margin-bottom: 20px;""><h3>Which image is more valuable?</h3></div>
                        <div class=""stimulus-container"" style=""display: flex; width: 1100px; justify-content: center; gap: 50px;"">
                            <img src=""images/causal_sequence/coin_causal/coin_causal_8.png"" class=""exp-image"">
                            <img src=""images/causal_sequence/coin_causal/coin_causal_4.png"" class=""exp-image"">
                        </div>","0","part3_final_choice","","coin_causal","","6","8","2"
"","","","","","html-keyboard-response","152","729406","0.0-150.0-0.0","BF33E0DF911A4B79BFB9ABD76F964C60","019ce7ab-bd20-7693-aa96-01a08948d3d9","019ce7a0-0965-7aa7-a556-174d32a8e773","","null","
                        <div style=""font-family: Arial; margin-bottom: 20px;""><h3>Which image is more valuable?</h3></div>
                        <div class=""stimulus-container"" style=""display: flex; width: 1100px; justify-content: center; gap: 50px;"">
                            <img src=""images/causal_sequence/dog_causal/dog_causal_1.png"" class=""exp-image"">
                            <img src=""images/causal_sequence/dog_causal/dog_causal_5.png"" class=""exp-image"">
                        </div>","null","","","","","","",""
"","","","","","html-button-response","153","730329","0.0-150.0-1.0","BF33E0DF911A4B79BFB9ABD76F964C60","019ce7ab-bd20-7693-aa96-01a08948d3d9","019ce7a0-0965-7aa7-a556-174d32a8e773","","922","
                        <div style=""font-family: Arial; margin-bottom: 20px;""><h3>Which image is more valuable?</h3></div>
                        <div class=""stimulus-container"" style=""display: flex; width: 1100px; justify-content: center; gap: 50px;"">
                            <img src=""images/causal_sequence/dog_causal/dog_causal_1.png"" class=""exp-image"">
                            <img src=""images/causal_sequence/dog_causal/dog_causal_5.png"" class=""exp-image"">
                        </div>","0","part3_final_choice","","dog_causal","","3","1","-2"
"","","","","","html-keyboard-response","154","740332","0.0-151.0-0.0","BF33E0DF911A4B79BFB9ABD76F964C60","019ce7ab-bd20-7693-aa96-01a08948d3d9","019ce7a0-0965-7aa7-a556-174d32a8e773","","null","
                        <div style=""font-family: Arial; margin-bottom: 20px;""><h3>Which image is more valuable?</h3></div>
                        <div class=""stimulus-container"" style=""display: flex; width: 1100px; justify-content: center; gap: 50px;"">
                            <img src=""images/causal_sequence/saving_a_cat_causal/saving_a_cat_causal_6.png"" class=""exp-image"">
                            <img src=""images/causal_sequence/saving_a_cat_causal/saving_a_cat_causal_2.png"" class=""exp-image"">
                        </div>","null","","","","","","",""
"","","","","","html-button-response","155","740778","0.0-151.0-1.0","BF33E0DF911A4B79BFB9ABD76F964C60","019ce7ab-bd20-7693-aa96-01a08948d3d9","019ce7a0-0965-7aa7-a556-174d32a8e773","","444","
                        <div style=""font-family: Arial; margin-bottom: 20px;""><h3>Which image is more valuable?</h3></div>
                        <div class=""stimulus-container"" style=""display: flex; width: 1100px; justify-content: center; gap: 50px;"">
                            <img src=""images/causal_sequence/saving_a_cat_causal/saving_a_cat_causal_6.png"" class=""exp-image"">
                            <img src=""images/causal_sequence/saving_a_cat_causal/saving_a_cat_causal_2.png"" class=""exp-image"">
                        </div>","0","part3_final_choice","","saving_a_cat_causal","","4","6","2"
"","","","","","html-keyboard-response","156","750781","0.0-152.0-0.0","BF33E0DF911A4B79BFB9ABD76F964C60","019ce7ab-bd20-7693-aa96-01a08948d3d9","019ce7a0-0965-7aa7-a556-174d32a8e773","","null","
                        <div style=""font-family: Arial; margin-bottom: 20px;""><h3>Which image is more valuable?</h3></div>
                        <div class=""stimulus-container"" style=""display: flex; width: 1100px; justify-content: center; gap: 50px;"">
                            <img src=""images/causal_sequence/the_performance_causal/the_performance_causal_1.png"" class=""exp-image"">
                            <img src=""images/causal_sequence/the_performance_causal/the_performance_causal_5.png"" class=""exp-image"">
                        </div>","null","","","","","","",""
"","","","","","html-button-response","157","751190","0.0-152.0-1.0","BF33E0DF911A4B79BFB9ABD76F964C60","019ce7ab-bd20-7693-aa96-01a08948d3d9","019ce7a0-0965-7aa7-a556-174d32a8e773","","407","
                        <div style=""font-family: Arial; margin-bottom: 20px;""><h3>Which image is more valuable?</h3></div>
                        <div class=""stimulus-container"" style=""display: flex; width: 1100px; justify-content: center; gap: 50px;"">
                            <img src=""images/causal_sequence/the_performance_causal/the_performance_causal_1.png"" class=""exp-image"">
                            <img src=""images/causal_sequence/the_performance_causal/the_performance_causal_5.png"" class=""exp-image"">
                        </div>","1","part3_final_choice","","the_performance_causal","","3","5","2"
"","","","","","html-keyboard-response","158","761192","0.0-153.0-0.0","BF33E0DF911A4B79BFB9ABD76F964C60","019ce7ab-bd20-7693-aa96-01a08948d3d9","019ce7a0-0965-7aa7-a556-174d32a8e773","","null","
                        <div style=""font-family: Arial; margin-bottom: 20px;""><h3>Which image is more valuable?</h3></div>
                        <div class=""stimulus-container"" style=""display: flex; width: 1100px; justify-content: center; gap: 50px;"">
                            <img src=""images/causal_sequence/package_causal/package_causal_2.png"" class=""exp-image"">
                            <img src=""images/causal_sequence/package_causal/package_causal_6.png"" class=""exp-image"">
                        </div>","null","","","","","","",""
"","","","","","html-button-response","159","761585","0.0-153.0-1.0","BF33E0DF911A4B79BFB9ABD76F964C60","019ce7ab-bd20-7693-aa96-01a08948d3d9","019ce7a0-0965-7aa7-a556-174d32a8e773","","391","
                        <div style=""font-family: Arial; margin-bottom: 20px;""><h3>Which image is more valuable?</h3></div>
                        <div class=""stimulus-container"" style=""display: flex; width: 1100px; justify-content: center; gap: 50px;"">
                            <img src=""images/causal_sequence/package_causal/package_causal_2.png"" class=""exp-image"">
                            <img src=""images/causal_sequence/package_causal/package_causal_6.png"" class=""exp-image"">
                        </div>","0","part3_final_choice","","package_causal","","4","2","-2"
"","","","","","survey-text","160","787292","0.0-154.0","BF33E0DF911A4B79BFB9ABD76F964C60","019ce7ab-bd20-7693-aa96-01a08948d3d9","019ce7a0-0965-7aa7-a556-174d32a8e773","","25698","","{""gender"":""FEMALE"",""age"":""23"",""decision_strategy"":""I picked which one seemed to have more going on in it"",""consistency_check"":""I used the same logic for all the pairs of images""}","demographics_and_strategy","","","","","",""
"","","","","","instructions","161","791873","0.0-155.0","BF33E0DF911A4B79BFB9ABD76F964C60","019ce7ab-bd20-7693-aa96-01a08948d3d9","019ce7a0-0965-7aa7-a556-174d32a8e773","[{""page_index"":0,""viewing_time"":4580}]","4581","","","","","","","","",""
