"success","timeout","failed_images","failed_audio","failed_video","trial_type","trial_index","time_elapsed","internal_node_id","view_history","rt","stimulus","response","task","folder","sequence_type","img_idx","value","version","comparison_type","block_story","block_info","left_path","right_path"
"true","false","[]","[]","[]","preload","0","4679","0.0-0.0","","","","","","","","","","","","","","",""
"","","","","","instructions","1","24380","0.0-1.0","[{""page_index"":0,""viewing_time"":19696}]","19696","","","","","","","","","","","","",""
"","","","","","instructions","2","29845","0.0-2.0","[{""page_index"":0,""viewing_time"":5461}]","5461","","","","","","","","","","","","",""
"true","","","","","fullscreen","3","32777","0.0-3.0","","1906","","","","","","","","","","","","",""
"","","","","","instructions","4","43561","0.0-4.0","[{""page_index"":0,""viewing_time"":10782}]","10782","","","","","","","","","","","","",""
"","","","","","html-keyboard-response","5","45567","0.0-5.0","","null","<div class=""transition-square""></div>","null","","","","","","","","","","",""
"","","","","","html-keyboard-response","6","50572","0.0-6.0","","null","<div class=""stimulus-container""><img src=""images_story_vs_info/info_2_1.png"" class=""exp-image""><div class=""question-area""></div></div>","null","","","","","","","","","","",""
"","","","","","html-button-response","7","53743","0.0-7.0","","null","<div class=""stimulus-container""><img src=""images_story_vs_info/info_2_1.png"" class=""exp-image""><div class=""question-area""><p style=""font-size: 20px; font-weight: bold; margin: 0;"">Is there a person in the description or image?</p></div></div>","null","observation","info_2","info","1","","","","","","",""
"","","","","","html-keyboard-response","8","58754","0.0-8.0","","null","<div class=""stimulus-container""><img src=""images_story_vs_info/info_2_2.png"" class=""exp-image""><div class=""question-area""></div></div>","null","","","","","","","","","","",""
"","","","","","html-button-response","9","60506","0.0-9.0","","1748","<div class=""stimulus-container""><img src=""images_story_vs_info/info_2_2.png"" class=""exp-image""><div class=""question-area""><p style=""font-size: 20px; font-weight: bold; margin: 0;"">Is there a person in the description or image?</p></div></div>","1","observation","info_2","info","2","","","","","","",""
"","","","","","html-keyboard-response","10","65519","0.0-10.0","","null","<div class=""stimulus-container""><img src=""images_story_vs_info/info_2_3.png"" class=""exp-image""><div class=""question-area""></div></div>","null","","","","","","","","","","",""
"","","","","","html-button-response","11","66830","0.0-11.0","","1310","<div class=""stimulus-container""><img src=""images_story_vs_info/info_2_3.png"" class=""exp-image""><div class=""question-area""><p style=""font-size: 20px; font-weight: bold; margin: 0;"">Is there a person in the description or image?</p></div></div>","1","observation","info_2","info","3","","","","","","",""
"","","","","","html-keyboard-response","12","71835","0.0-12.0","","null","<div class=""stimulus-container""><img src=""images_story_vs_info/info_2_4.png"" class=""exp-image""><div class=""question-area""></div></div>","null","","","","","","","","","","",""
"","","","","","html-button-response","13","72543","0.0-13.0","","697","<div class=""stimulus-container""><img src=""images_story_vs_info/info_2_4.png"" class=""exp-image""><div class=""question-area""><p style=""font-size: 20px; font-weight: bold; margin: 0;"">Is there a person in the description or image?</p></div></div>","1","observation","info_2","info","4","","","","","","",""
"","","","","","html-keyboard-response","14","77978","0.0-14.0","","null","<div class=""stimulus-container""><img src=""images_story_vs_info/info_2_5.png"" class=""exp-image""><div class=""question-area""></div></div>","null","","","","","","","","","","",""
"","","","","","html-button-response","15","78944","0.0-15.0","","959","<div class=""stimulus-container""><img src=""images_story_vs_info/info_2_5.png"" class=""exp-image""><div class=""question-area""><p style=""font-size: 20px; font-weight: bold; margin: 0;"">Is there a person in the description or image?</p></div></div>","1","observation","info_2","info","5","","","","","","",""
"","","","","","html-keyboard-response","16","80957","0.0-16.0","","null","<div class=""transition-square""></div>","null","","","","","","","","","","",""
"","","","","","html-keyboard-response","17","85972","0.0-17.0","","null","<div class=""stimulus-container""><img src=""images_story_vs_info/story_1_1.png"" class=""exp-image""><div class=""question-area""></div></div>","null","","","","","","","","","","",""
"","","","","","html-button-response","18","87949","0.0-18.0","","1973","<div class=""stimulus-container""><img src=""images_story_vs_info/story_1_1.png"" class=""exp-image""><div class=""question-area""><p style=""font-size: 20px; font-weight: bold; margin: 0;"">Is there a person in the description or image?</p></div></div>","1","observation","story_1","story","1","","","","","","",""
"","","","","","html-keyboard-response","19","93080","0.0-19.0","","null","<div class=""stimulus-container""><img src=""images_story_vs_info/story_1_2.png"" class=""exp-image""><div class=""question-area""></div></div>","null","","","","","","","","","","",""
"","","","","","html-button-response","20","94721","0.0-20.0","","1638","<div class=""stimulus-container""><img src=""images_story_vs_info/story_1_2.png"" class=""exp-image""><div class=""question-area""><p style=""font-size: 20px; font-weight: bold; margin: 0;"">Is there a person in the description or image?</p></div></div>","1","observation","story_1","story","2","","","","","","",""
"","","","","","html-keyboard-response","21","99737","0.0-21.0","","null","<div class=""stimulus-container""><img src=""images_story_vs_info/story_1_3.png"" class=""exp-image""><div class=""question-area""></div></div>","null","","","","","","","","","","",""
"","","","","","html-button-response","22","100529","0.0-22.0","","790","<div class=""stimulus-container""><img src=""images_story_vs_info/story_1_3.png"" class=""exp-image""><div class=""question-area""><p style=""font-size: 20px; font-weight: bold; margin: 0;"">Is there a person in the description or image?</p></div></div>","1","observation","story_1","story","3","","","","","","",""
"","","","","","html-keyboard-response","23","105542","0.0-23.0","","null","<div class=""stimulus-container""><img src=""images_story_vs_info/story_1_4.png"" class=""exp-image""><div class=""question-area""></div></div>","null","","","","","","","","","","",""
"","","","","","html-button-response","24","106854","0.0-24.0","","1308","<div class=""stimulus-container""><img src=""images_story_vs_info/story_1_4.png"" class=""exp-image""><div class=""question-area""><p style=""font-size: 20px; font-weight: bold; margin: 0;"">Is there a person in the description or image?</p></div></div>","1","observation","story_1","story","4","","","","","","",""
"","","","","","html-keyboard-response","25","111870","0.0-25.0","","null","<div class=""stimulus-container""><img src=""images_story_vs_info/story_1_5.png"" class=""exp-image""><div class=""question-area""></div></div>","null","","","","","","","","","","",""
"","","","","","html-button-response","26","112375","0.0-26.0","","503","<div class=""stimulus-container""><img src=""images_story_vs_info/story_1_5.png"" class=""exp-image""><div class=""question-area""><p style=""font-size: 20px; font-weight: bold; margin: 0;"">Is there a person in the description or image?</p></div></div>","1","observation","story_1","story","5","","","","","","",""
"","","","","","html-keyboard-response","27","114382","0.0-27.0","","null","<div class=""transition-square""></div>","null","","","","","","","","","","",""
"","","","","","html-keyboard-response","28","119389","0.0-28.0","","null","<div class=""stimulus-container""><img src=""images_story_vs_info/story_4_1.png"" class=""exp-image""><div class=""question-area""></div></div>","null","","","","","","","","","","",""
"","","","","","html-button-response","29","120331","0.0-29.0","","939","<div class=""stimulus-container""><img src=""images_story_vs_info/story_4_1.png"" class=""exp-image""><div class=""question-area""><p style=""font-size: 20px; font-weight: bold; margin: 0;"">Is there a person in the description or image?</p></div></div>","0","observation","story_4","story","1","","","","","","",""
"","","","","","html-keyboard-response","30","125417","0.0-30.0","","null","<div class=""stimulus-container""><img src=""images_story_vs_info/story_4_2.png"" class=""exp-image""><div class=""question-area""></div></div>","null","","","","","","","","","","",""
"","","","","","html-button-response","31","126455","0.0-31.0","","1037","<div class=""stimulus-container""><img src=""images_story_vs_info/story_4_2.png"" class=""exp-image""><div class=""question-area""><p style=""font-size: 20px; font-weight: bold; margin: 0;"">Is there a person in the description or image?</p></div></div>","0","observation","story_4","story","2","","","","","","",""
"","","","","","html-keyboard-response","32","131469","0.0-32.0","","null","<div class=""stimulus-container""><img src=""images_story_vs_info/story_4_3.png"" class=""exp-image""><div class=""question-area""></div></div>","null","","","","","","","","","","",""
"","","","","","html-button-response","33","132045","0.0-33.0","","573","<div class=""stimulus-container""><img src=""images_story_vs_info/story_4_3.png"" class=""exp-image""><div class=""question-area""><p style=""font-size: 20px; font-weight: bold; margin: 0;"">Is there a person in the description or image?</p></div></div>","0","observation","story_4","story","3","","","","","","",""
"","","","","","html-keyboard-response","34","137051","0.0-34.0","","null","<div class=""stimulus-container""><img src=""images_story_vs_info/story_4_4.png"" class=""exp-image""><div class=""question-area""></div></div>","null","","","","","","","","","","",""
"","","","","","html-button-response","35","137569","0.0-35.0","","518","<div class=""stimulus-container""><img src=""images_story_vs_info/story_4_4.png"" class=""exp-image""><div class=""question-area""><p style=""font-size: 20px; font-weight: bold; margin: 0;"">Is there a person in the description or image?</p></div></div>","0","observation","story_4","story","4","","","","","","",""
"","","","","","html-keyboard-response","36","142574","0.0-36.0","","null","<div class=""stimulus-container""><img src=""images_story_vs_info/story_4_5.png"" class=""exp-image""><div class=""question-area""></div></div>","null","","","","","","","","","","",""
"","","","","","html-button-response","37","143100","0.0-37.0","","524","<div class=""stimulus-container""><img src=""images_story_vs_info/story_4_5.png"" class=""exp-image""><div class=""question-area""><p style=""font-size: 20px; font-weight: bold; margin: 0;"">Is there a person in the description or image?</p></div></div>","0","observation","story_4","story","5","","","","","","",""
"","","","","","html-keyboard-response","38","145275","0.0-38.0","","null","<div class=""transition-square""></div>","null","","","","","","","","","","",""
"","","","","","html-keyboard-response","39","150280","0.0-39.0","","null","<div class=""stimulus-container""><img src=""images_story_vs_info/info_3_1.png"" class=""exp-image""><div class=""question-area""></div></div>","null","","","","","","","","","","",""
"","","","","","html-button-response","40","151798","0.0-40.0","","1516","<div class=""stimulus-container""><img src=""images_story_vs_info/info_3_1.png"" class=""exp-image""><div class=""question-area""><p style=""font-size: 20px; font-weight: bold; margin: 0;"">Is there a person in the description or image?</p></div></div>","1","observation","info_3","info","1","","","","","","",""
"","","","","","html-keyboard-response","41","156809","0.0-41.0","","null","<div class=""stimulus-container""><img src=""images_story_vs_info/info_3_2.png"" class=""exp-image""><div class=""question-area""></div></div>","null","","","","","","","","","","",""
"","","","","","html-button-response","42","158077","0.0-42.0","","1264","<div class=""stimulus-container""><img src=""images_story_vs_info/info_3_2.png"" class=""exp-image""><div class=""question-area""><p style=""font-size: 20px; font-weight: bold; margin: 0;"">Is there a person in the description or image?</p></div></div>","1","observation","info_3","info","2","","","","","","",""
"","","","","","html-keyboard-response","43","163091","0.0-43.0","","null","<div class=""stimulus-container""><img src=""images_story_vs_info/info_3_3.png"" class=""exp-image""><div class=""question-area""></div></div>","null","","","","","","","","","","",""
"","","","","","html-button-response","44","163834","0.0-44.0","","743","<div class=""stimulus-container""><img src=""images_story_vs_info/info_3_3.png"" class=""exp-image""><div class=""question-area""><p style=""font-size: 20px; font-weight: bold; margin: 0;"">Is there a person in the description or image?</p></div></div>","1","observation","info_3","info","3","","","","","","",""
"","","","","","html-keyboard-response","45","168849","0.0-45.0","","null","<div class=""stimulus-container""><img src=""images_story_vs_info/info_3_4.png"" class=""exp-image""><div class=""question-area""></div></div>","null","","","","","","","","","","",""
"","","","","","html-button-response","46","169358","0.0-46.0","","509","<div class=""stimulus-container""><img src=""images_story_vs_info/info_3_4.png"" class=""exp-image""><div class=""question-area""><p style=""font-size: 20px; font-weight: bold; margin: 0;"">Is there a person in the description or image?</p></div></div>","1","observation","info_3","info","4","","","","","","",""
"","","","","","html-keyboard-response","47","174501","0.0-47.0","","null","<div class=""stimulus-container""><img src=""images_story_vs_info/info_3_5.png"" class=""exp-image""><div class=""question-area""></div></div>","null","","","","","","","","","","",""
"","","","","","html-button-response","48","175099","0.0-48.0","","594","<div class=""stimulus-container""><img src=""images_story_vs_info/info_3_5.png"" class=""exp-image""><div class=""question-area""><p style=""font-size: 20px; font-weight: bold; margin: 0;"">Is there a person in the description or image?</p></div></div>","1","observation","info_3","info","5","","","","","","",""
"","","","","","instructions","49","202181","0.0-49.0","[{""page_index"":0,""viewing_time"":27079}]","27080","","","","","","","","","","","","",""
"","","","","","html-button-response","50","204201","0.0-50.0","","2018","<div class=""stimulus-container""><p style=""font-family:Arial; font-size:20px;"">The event is reaching its end...</p><img src=""images_story_vs_info/info_2_5.png"" class=""exp-image""></div>","0","","","","","","","","","","",""
"","","","","","html-button-response","51","224019","0.0-51.0","","19815","<div class=""stimulus-container""><p style=""font-family:Arial; font-size:20px;"">The outcome:</p><img src=""images_story_vs_info/info_2_6_a.png"" class=""exp-image""><div class=""value-tag val-high"">This outcome is worth: $100</div></div>","0","learning","info_2","","","$100","a","","","","",""
"","","","","","html-button-response","52","226114","0.0-52.0","","2093","<div class=""stimulus-container""><p style=""font-family:Arial; font-size:20px;"">The event is reaching its end...</p><img src=""images_story_vs_info/story_1_5.png"" class=""exp-image""></div>","0","","","","","","","","","","",""
"","","","","","html-button-response","53","233721","0.0-53.0","","7604","<div class=""stimulus-container""><p style=""font-family:Arial; font-size:20px;"">The outcome:</p><img src=""images_story_vs_info/story_1_6_a.png"" class=""exp-image""><div class=""value-tag val-high"">This outcome is worth: $100</div></div>","0","learning","story_1","","","$100","a","","","","",""
"","","","","","html-button-response","54","236538","0.0-54.0","","2815","<div class=""stimulus-container""><p style=""font-family:Arial; font-size:20px;"">The event is reaching its end...</p><img src=""images_story_vs_info/story_4_5.png"" class=""exp-image""></div>","0","","","","","","","","","","",""
"","","","","","html-button-response","55","243892","0.0-55.0","","7349","<div class=""stimulus-container""><p style=""font-family:Arial; font-size:20px;"">The outcome:</p><img src=""images_story_vs_info/story_4_6_b.png"" class=""exp-image""><div class=""value-tag val-low"">This outcome is worth: $0</div></div>","0","learning","story_4","","","$0","b","","","","",""
"","","","","","html-button-response","56","245313","0.0-56.0","","1418","<div class=""stimulus-container""><p style=""font-family:Arial; font-size:20px;"">The event is reaching its end...</p><img src=""images_story_vs_info/info_3_5.png"" class=""exp-image""></div>","0","","","","","","","","","","",""
"","","","","","html-button-response","57","252865","0.0-57.0","","7549","<div class=""stimulus-container""><p style=""font-family:Arial; font-size:20px;"">The outcome:</p><img src=""images_story_vs_info/info_3_6_b.png"" class=""exp-image""><div class=""value-tag val-low"">This outcome is worth: $0</div></div>","0","learning","info_3","","","$0","b","","","","",""
"","","","","","instructions","58","268658","0.0-58.0","[{""page_index"":0,""viewing_time"":15790}]","15790","","","","","","","","","","","","",""
"","","","","","html-button-response","59","288686","0.0-59.0","","20011","
                <div style=""font-family: Arial; margin-bottom: 20px;""><h3>Which image is worth <b>more money</b>?</h3></div>
                <div class=""stimulus-container"" style=""display: flex; flex-direction: row; width: 800px; justify-content: center; gap: 30px;"">
                    <img src=""images_story_vs_info/info_3_6_b.png"" class=""small-image"">
                    <img src=""images_story_vs_info/story_4_6_b.png"" class=""small-image"">
                </div>","0","choice_comparison","","","6","","","Neutral_Story_vs_Info","story_4","info_3","images_story_vs_info/info_3_6_b.png","images_story_vs_info/story_4_6_b.png"
"","","","","","html-button-response","60","295038","0.0-60.0","","6349","
                <div style=""font-family: Arial; margin-bottom: 20px;""><h3>Which image is worth <b>more money</b>?</h3></div>
                <div class=""stimulus-container"" style=""display: flex; flex-direction: row; width: 800px; justify-content: center; gap: 30px;"">
                    <img src=""images_story_vs_info/story_4_3.png"" class=""small-image"">
                    <img src=""images_story_vs_info/info_3_3.png"" class=""small-image"">
                </div>","0","choice_comparison","","","3","","","Neutral_Story_vs_Info","story_4","info_3","images_story_vs_info/story_4_3.png","images_story_vs_info/info_3_3.png"
"","","","","","html-button-response","61","297776","0.0-61.0","","2732","
                <div style=""font-family: Arial; margin-bottom: 20px;""><h3>Which image is worth <b>more money</b>?</h3></div>
                <div class=""stimulus-container"" style=""display: flex; flex-direction: row; width: 800px; justify-content: center; gap: 30px;"">
                    <img src=""images_story_vs_info/story_4_5.png"" class=""small-image"">
                    <img src=""images_story_vs_info/info_3_5.png"" class=""small-image"">
                </div>","1","choice_comparison","","","5","","","Neutral_Story_vs_Info","story_4","info_3","images_story_vs_info/story_4_5.png","images_story_vs_info/info_3_5.png"
"","","","","","html-button-response","62","300348","0.0-62.0","","2569","
                <div style=""font-family: Arial; margin-bottom: 20px;""><h3>Which image is worth <b>more money</b>?</h3></div>
                <div class=""stimulus-container"" style=""display: flex; flex-direction: row; width: 800px; justify-content: center; gap: 30px;"">
                    <img src=""images_story_vs_info/story_4_4.png"" class=""small-image"">
                    <img src=""images_story_vs_info/info_3_4.png"" class=""small-image"">
                </div>","0","choice_comparison","","","4","","","Neutral_Story_vs_Info","story_4","info_3","images_story_vs_info/story_4_4.png","images_story_vs_info/info_3_4.png"
"","","","","","html-button-response","63","302118","0.0-63.0","","1767","
                <div style=""font-family: Arial; margin-bottom: 20px;""><h3>Which image is worth <b>more money</b>?</h3></div>
                <div class=""stimulus-container"" style=""display: flex; flex-direction: row; width: 800px; justify-content: center; gap: 30px;"">
                    <img src=""images_story_vs_info/story_4_1.png"" class=""small-image"">
                    <img src=""images_story_vs_info/info_3_1.png"" class=""small-image"">
                </div>","0","choice_comparison","","","1","","","Neutral_Story_vs_Info","story_4","info_3","images_story_vs_info/story_4_1.png","images_story_vs_info/info_3_1.png"
"","","","","","html-button-response","64","303575","0.0-64.0","","1453","
                <div style=""font-family: Arial; margin-bottom: 20px;""><h3>Which image is worth <b>more money</b>?</h3></div>
                <div class=""stimulus-container"" style=""display: flex; flex-direction: row; width: 800px; justify-content: center; gap: 30px;"">
                    <img src=""images_story_vs_info/story_4_2.png"" class=""small-image"">
                    <img src=""images_story_vs_info/info_3_2.png"" class=""small-image"">
                </div>","0","choice_comparison","","","2","","","Neutral_Story_vs_Info","story_4","info_3","images_story_vs_info/story_4_2.png","images_story_vs_info/info_3_2.png"
"","","","","","html-button-response","65","306698","0.0-65.0","","3120","
                <div style=""font-family: Arial; margin-bottom: 20px;""><h3>Which image is worth <b>more money</b>?</h3></div>
                <div class=""stimulus-container"" style=""display: flex; flex-direction: row; width: 800px; justify-content: center; gap: 30px;"">
                    <img src=""images_story_vs_info/story_1_6_b.png"" class=""small-image"">
                    <img src=""images_story_vs_info/info_2_6_b.png"" class=""small-image"">
                </div>","1","choice_comparison","","","6","","","Valuable_Story_vs_Info","story_1","info_2","images_story_vs_info/story_1_6_b.png","images_story_vs_info/info_2_6_b.png"
"","","","","","html-button-response","66","308422","0.0-66.0","","1721","
                <div style=""font-family: Arial; margin-bottom: 20px;""><h3>Which image is worth <b>more money</b>?</h3></div>
                <div class=""stimulus-container"" style=""display: flex; flex-direction: row; width: 800px; justify-content: center; gap: 30px;"">
                    <img src=""images_story_vs_info/info_2_2.png"" class=""small-image"">
                    <img src=""images_story_vs_info/story_1_2.png"" class=""small-image"">
                </div>","0","choice_comparison","","","2","","","Valuable_Story_vs_Info","story_1","info_2","images_story_vs_info/info_2_2.png","images_story_vs_info/story_1_2.png"
"","","","","","html-button-response","67","310526","0.0-67.0","","2101","
                <div style=""font-family: Arial; margin-bottom: 20px;""><h3>Which image is worth <b>more money</b>?</h3></div>
                <div class=""stimulus-container"" style=""display: flex; flex-direction: row; width: 800px; justify-content: center; gap: 30px;"">
                    <img src=""images_story_vs_info/story_1_3.png"" class=""small-image"">
                    <img src=""images_story_vs_info/info_2_3.png"" class=""small-image"">
                </div>","0","choice_comparison","","","3","","","Valuable_Story_vs_Info","story_1","info_2","images_story_vs_info/story_1_3.png","images_story_vs_info/info_2_3.png"
"","","","","","html-button-response","68","311947","0.0-68.0","","1417","
                <div style=""font-family: Arial; margin-bottom: 20px;""><h3>Which image is worth <b>more money</b>?</h3></div>
                <div class=""stimulus-container"" style=""display: flex; flex-direction: row; width: 800px; justify-content: center; gap: 30px;"">
                    <img src=""images_story_vs_info/story_1_1.png"" class=""small-image"">
                    <img src=""images_story_vs_info/info_2_1.png"" class=""small-image"">
                </div>","0","choice_comparison","","","1","","","Valuable_Story_vs_Info","story_1","info_2","images_story_vs_info/story_1_1.png","images_story_vs_info/info_2_1.png"
"","","","","","html-button-response","69","314374","0.0-69.0","","2424","
                <div style=""font-family: Arial; margin-bottom: 20px;""><h3>Which image is worth <b>more money</b>?</h3></div>
                <div class=""stimulus-container"" style=""display: flex; flex-direction: row; width: 800px; justify-content: center; gap: 30px;"">
                    <img src=""images_story_vs_info/story_1_4.png"" class=""small-image"">
                    <img src=""images_story_vs_info/info_2_4.png"" class=""small-image"">
                </div>","1","choice_comparison","","","4","","","Valuable_Story_vs_Info","story_1","info_2","images_story_vs_info/story_1_4.png","images_story_vs_info/info_2_4.png"
"","","","","","html-button-response","70","315855","0.0-70.0","","1477","
                <div style=""font-family: Arial; margin-bottom: 20px;""><h3>Which image is worth <b>more money</b>?</h3></div>
                <div class=""stimulus-container"" style=""display: flex; flex-direction: row; width: 800px; justify-content: center; gap: 30px;"">
                    <img src=""images_story_vs_info/story_1_5.png"" class=""small-image"">
                    <img src=""images_story_vs_info/info_2_5.png"" class=""small-image"">
                </div>","0","choice_comparison","","","5","","","Valuable_Story_vs_Info","story_1","info_2","images_story_vs_info/story_1_5.png","images_story_vs_info/info_2_5.png"
"","","","","","survey-text","71","426343","0.0-71.0","","110219","","{""choice_strategy"":""I just picked the image that had the most complexity. "",""gender"":""Male"",""age"":""34""}","","","","","","","","","","",""
"","","","","","instructions","72","433718","0.0-72.0","[{""page_index"":0,""viewing_time"":7372}]","7372","","","","","","","","","","","","",""
