"success","timeout","failed_images","failed_audio","failed_video","trial_type","trial_index","time_elapsed","internal_node_id","subject_id","study_id","session_id","view_history","rt","stimulus","response","task","image_index","folder","sequence_type","presentation_order","valuable_image_index","reward_type","chosen_image_index","target_X","correct_choice"
"true","false","[]","[]","[]","preload","0","10113","0.0-0.0","84D9F26CEE2E439C8DF233F032D8399F","019cf9a0-59ab-7314-903d-0f09cba5d833","019cf99d-e445-78ae-88d0-91fe39b758eb","","","","","","","","","","","","","",""
"","","","","","instructions","1","18927","0.0-1.0","84D9F26CEE2E439C8DF233F032D8399F","019cf9a0-59ab-7314-903d-0f09cba5d833","019cf99d-e445-78ae-88d0-91fe39b758eb","[{""page_index"":0,""viewing_time"":8812}]","8813","","","","","","","","","","","",""
"","","","","","instructions","2","65942","0.0-2.0","84D9F26CEE2E439C8DF233F032D8399F","019cf9a0-59ab-7314-903d-0f09cba5d833","019cf99d-e445-78ae-88d0-91fe39b758eb","[{""page_index"":0,""viewing_time"":47011}]","47011","","","","","","","","","","","",""
"true","","","","","fullscreen","3","70953","0.0-3.0","84D9F26CEE2E439C8DF233F032D8399F","019cf9a0-59ab-7314-903d-0f09cba5d833","019cf99d-e445-78ae-88d0-91fe39b758eb","","4006","","","","","","","","","","","",""
"","","","","","instructions","4","83285","0.0-4.0","84D9F26CEE2E439C8DF233F032D8399F","019cf9a0-59ab-7314-903d-0f09cba5d833","019cf99d-e445-78ae-88d0-91fe39b758eb","[{""page_index"":0,""viewing_time"":12330}]","12331","","","","","","","","","","","",""
"","","","","","instructions","5","93600","0.0-5.0","84D9F26CEE2E439C8DF233F032D8399F","019cf9a0-59ab-7314-903d-0f09cba5d833","019cf99d-e445-78ae-88d0-91fe39b758eb","[{""page_index"":0,""viewing_time"":10312}]","10312","","","","","","","","","","","",""
"","","","","","html-keyboard-response","6","97604","0.0-6.0","84D9F26CEE2E439C8DF233F032D8399F","019cf9a0-59ab-7314-903d-0f09cba5d833","019cf99d-e445-78ae-88d0-91fe39b758eb","","null","
                <div class=""stimulus-container"">
                    <img src=""images/instructions/movie_1.png"" class=""exp-image"">
                    <div class=""question-area""></div> 
                </div>","null","","","","","","","","","",""
"","","","","","html-button-response","7","99916","0.0-7.0","84D9F26CEE2E439C8DF233F032D8399F","019cf9a0-59ab-7314-903d-0f09cba5d833","019cf99d-e445-78ae-88d0-91fe39b758eb","","2308","
                <div class=""stimulus-container"">
                    <img src=""images/instructions/movie_1.png"" class=""exp-image"">
                    <div class=""question-area"">
                        <p style=""font-size: 20px; font-weight: bold; margin: 0;"">Was there a person in this image?</p>
                    </div>
                </div>","0","example_question","1","","","","","","","",""
"","","","","","html-keyboard-response","8","103919","0.0-8.0","84D9F26CEE2E439C8DF233F032D8399F","019cf9a0-59ab-7314-903d-0f09cba5d833","019cf99d-e445-78ae-88d0-91fe39b758eb","","null","
                <div class=""stimulus-container"">
                    <img src=""images/instructions/movie_2.png"" class=""exp-image"">
                    <div class=""question-area""></div> 
                </div>","null","","","","","","","","","",""
"","","","","","html-button-response","9","105288","0.0-9.0","84D9F26CEE2E439C8DF233F032D8399F","019cf9a0-59ab-7314-903d-0f09cba5d833","019cf99d-e445-78ae-88d0-91fe39b758eb","","1366","
                <div class=""stimulus-container"">
                    <img src=""images/instructions/movie_2.png"" class=""exp-image"">
                    <div class=""question-area"">
                        <p style=""font-size: 20px; font-weight: bold; margin: 0;"">Was there a person in this image?</p>
                    </div>
                </div>","0","example_question","2","","","","","","","",""
"","","","","","html-keyboard-response","10","109291","0.0-10.0","84D9F26CEE2E439C8DF233F032D8399F","019cf9a0-59ab-7314-903d-0f09cba5d833","019cf99d-e445-78ae-88d0-91fe39b758eb","","null","
                <div class=""stimulus-container"">
                    <img src=""images/instructions/movie_3.png"" class=""exp-image"">
                    <div class=""question-area""></div> 
                </div>","null","","","","","","","","","",""
"","","","","","html-button-response","11","109920","0.0-11.0","84D9F26CEE2E439C8DF233F032D8399F","019cf9a0-59ab-7314-903d-0f09cba5d833","019cf99d-e445-78ae-88d0-91fe39b758eb","","625","
                <div class=""stimulus-container"">
                    <img src=""images/instructions/movie_3.png"" class=""exp-image"">
                    <div class=""question-area"">
                        <p style=""font-size: 20px; font-weight: bold; margin: 0;"">Was there a person in this image?</p>
                    </div>
                </div>","0","example_question","3","","","","","","","",""
"","","","","","html-keyboard-response","12","113922","0.0-12.0","84D9F26CEE2E439C8DF233F032D8399F","019cf9a0-59ab-7314-903d-0f09cba5d833","019cf99d-e445-78ae-88d0-91fe39b758eb","","null","
                <div class=""stimulus-container"">
                    <img src=""images/instructions/movie_4.png"" class=""exp-image"">
                    <div class=""question-area""></div> 
                </div>","null","","","","","","","","","",""
"","","","","","html-button-response","13","114551","0.0-13.0","84D9F26CEE2E439C8DF233F032D8399F","019cf9a0-59ab-7314-903d-0f09cba5d833","019cf99d-e445-78ae-88d0-91fe39b758eb","","626","
                <div class=""stimulus-container"">
                    <img src=""images/instructions/movie_4.png"" class=""exp-image"">
                    <div class=""question-area"">
                        <p style=""font-size: 20px; font-weight: bold; margin: 0;"">Was there a person in this image?</p>
                    </div>
                </div>","0","example_question","4","","","","","","","",""
"","","","","","instructions","14","116393","0.0-14.0","84D9F26CEE2E439C8DF233F032D8399F","019cf9a0-59ab-7314-903d-0f09cba5d833","019cf99d-e445-78ae-88d0-91fe39b758eb","[{""page_index"":0,""viewing_time"":1841}]","1841","","","","","","","","","","","",""
"","","","","","instructions","15","121638","0.0-15.0","84D9F26CEE2E439C8DF233F032D8399F","019cf9a0-59ab-7314-903d-0f09cba5d833","019cf99d-e445-78ae-88d0-91fe39b758eb","[{""page_index"":0,""viewing_time"":5243}]","5244","","","","","","","","","","","",""
"","","","","","html-keyboard-response","16","126640","0.0-16.0","84D9F26CEE2E439C8DF233F032D8399F","019cf9a0-59ab-7314-903d-0f09cba5d833","019cf99d-e445-78ae-88d0-91fe39b758eb","","null","<div style=""background-color: white; width: 100vw; height: 100vh;""></div>","null","","","","","","","","","",""
"","","","","","html-keyboard-response","17","127642","0.0-17.0","84D9F26CEE2E439C8DF233F032D8399F","019cf9a0-59ab-7314-903d-0f09cba5d833","019cf99d-e445-78ae-88d0-91fe39b758eb","","null","
                <div class=""stimulus-container"">
                    <img src=""images/causal_sequence/museum_causal/museum_causal_2.png"" class=""exp-image"">
                    <div class=""question-area""></div> 
                </div>","null","","","","","","","","","",""
"","","","","","html-button-response","18","130645","0.0-18.0","84D9F26CEE2E439C8DF233F032D8399F","019cf9a0-59ab-7314-903d-0f09cba5d833","019cf99d-e445-78ae-88d0-91fe39b758eb","","null","
                <div class=""stimulus-container"">
                    <img src=""images/causal_sequence/museum_causal/museum_causal_2.png"" class=""exp-image"">
                    <div class=""question-area"">
                        <p style=""font-size: 20px; font-weight: bold; margin: 0;"">Is there a person in this image?</p>
                    </div>
                </div>","null","main_experiment_trial","2","museum_causal","causal_sequence","randomized","","","","",""
"","","","","","html-keyboard-response","19","131647","0.0-19.0","84D9F26CEE2E439C8DF233F032D8399F","019cf9a0-59ab-7314-903d-0f09cba5d833","019cf99d-e445-78ae-88d0-91fe39b758eb","","null","
                <div class=""stimulus-container"">
                    <img src=""images/causal_sequence/museum_causal/museum_causal_3.png"" class=""exp-image"">
                    <div class=""question-area""></div> 
                </div>","null","","","","","","","","","",""
"","","","","","html-button-response","20","133186","0.0-20.0","84D9F26CEE2E439C8DF233F032D8399F","019cf9a0-59ab-7314-903d-0f09cba5d833","019cf99d-e445-78ae-88d0-91fe39b758eb","","1536","
                <div class=""stimulus-container"">
                    <img src=""images/causal_sequence/museum_causal/museum_causal_3.png"" class=""exp-image"">
                    <div class=""question-area"">
                        <p style=""font-size: 20px; font-weight: bold; margin: 0;"">Is there a person in this image?</p>
                    </div>
                </div>","0","main_experiment_trial","3","museum_causal","causal_sequence","randomized","","","","",""
"","","","","","html-keyboard-response","21","134189","0.0-21.0","84D9F26CEE2E439C8DF233F032D8399F","019cf9a0-59ab-7314-903d-0f09cba5d833","019cf99d-e445-78ae-88d0-91fe39b758eb","","null","
                <div class=""stimulus-container"">
                    <img src=""images/causal_sequence/museum_causal/museum_causal_9.png"" class=""exp-image"">
                    <div class=""question-area""></div> 
                </div>","null","","","","","","","","","",""
"","","","","","html-button-response","22","135524","0.0-22.0","84D9F26CEE2E439C8DF233F032D8399F","019cf9a0-59ab-7314-903d-0f09cba5d833","019cf99d-e445-78ae-88d0-91fe39b758eb","","1332","
                <div class=""stimulus-container"">
                    <img src=""images/causal_sequence/museum_causal/museum_causal_9.png"" class=""exp-image"">
                    <div class=""question-area"">
                        <p style=""font-size: 20px; font-weight: bold; margin: 0;"">Is there a person in this image?</p>
                    </div>
                </div>","1","main_experiment_trial","9","museum_causal","causal_sequence","randomized","","","","",""
"","","","","","html-keyboard-response","23","136526","0.0-23.0","84D9F26CEE2E439C8DF233F032D8399F","019cf9a0-59ab-7314-903d-0f09cba5d833","019cf99d-e445-78ae-88d0-91fe39b758eb","","null","
                <div class=""stimulus-container"">
                    <img src=""images/causal_sequence/museum_causal/museum_causal_8.png"" class=""exp-image"">
                    <div class=""question-area""></div> 
                </div>","null","","","","","","","","","",""
"","","","","","html-button-response","24","137609","0.0-24.0","84D9F26CEE2E439C8DF233F032D8399F","019cf9a0-59ab-7314-903d-0f09cba5d833","019cf99d-e445-78ae-88d0-91fe39b758eb","","1079","
                <div class=""stimulus-container"">
                    <img src=""images/causal_sequence/museum_causal/museum_causal_8.png"" class=""exp-image"">
                    <div class=""question-area"">
                        <p style=""font-size: 20px; font-weight: bold; margin: 0;"">Is there a person in this image?</p>
                    </div>
                </div>","0","main_experiment_trial","8","museum_causal","causal_sequence","randomized","","","","",""
"","","","","","html-keyboard-response","25","138611","0.0-25.0","84D9F26CEE2E439C8DF233F032D8399F","019cf9a0-59ab-7314-903d-0f09cba5d833","019cf99d-e445-78ae-88d0-91fe39b758eb","","null","
                <div class=""stimulus-container"">
                    <img src=""images/causal_sequence/museum_causal/museum_causal_6.png"" class=""exp-image"">
                    <div class=""question-area""></div> 
                </div>","null","","","","","","","","","",""
"","","","","","html-button-response","26","139232","0.0-26.0","84D9F26CEE2E439C8DF233F032D8399F","019cf9a0-59ab-7314-903d-0f09cba5d833","019cf99d-e445-78ae-88d0-91fe39b758eb","","618","
                <div class=""stimulus-container"">
                    <img src=""images/causal_sequence/museum_causal/museum_causal_6.png"" class=""exp-image"">
                    <div class=""question-area"">
                        <p style=""font-size: 20px; font-weight: bold; margin: 0;"">Is there a person in this image?</p>
                    </div>
                </div>","0","main_experiment_trial","6","museum_causal","causal_sequence","randomized","","","","",""
"","","","","","html-keyboard-response","27","140234","0.0-27.0","84D9F26CEE2E439C8DF233F032D8399F","019cf9a0-59ab-7314-903d-0f09cba5d833","019cf99d-e445-78ae-88d0-91fe39b758eb","","null","
                <div class=""stimulus-container"">
                    <img src=""images/causal_sequence/museum_causal/museum_causal_1.png"" class=""exp-image"">
                    <div class=""question-area""></div> 
                </div>","null","","","","","","","","","",""
"","","","","","html-button-response","28","140875","0.0-28.0","84D9F26CEE2E439C8DF233F032D8399F","019cf9a0-59ab-7314-903d-0f09cba5d833","019cf99d-e445-78ae-88d0-91fe39b758eb","","638","
                <div class=""stimulus-container"">
                    <img src=""images/causal_sequence/museum_causal/museum_causal_1.png"" class=""exp-image"">
                    <div class=""question-area"">
                        <p style=""font-size: 20px; font-weight: bold; margin: 0;"">Is there a person in this image?</p>
                    </div>
                </div>","0","main_experiment_trial","1","museum_causal","causal_sequence","randomized","","","","",""
"","","","","","html-keyboard-response","29","141877","0.0-29.0","84D9F26CEE2E439C8DF233F032D8399F","019cf9a0-59ab-7314-903d-0f09cba5d833","019cf99d-e445-78ae-88d0-91fe39b758eb","","null","
                <div class=""stimulus-container"">
                    <img src=""images/causal_sequence/museum_causal/museum_causal_7.png"" class=""exp-image"">
                    <div class=""question-area""></div> 
                </div>","null","","","","","","","","","",""
"","","","","","html-button-response","30","142480","0.0-30.0","84D9F26CEE2E439C8DF233F032D8399F","019cf9a0-59ab-7314-903d-0f09cba5d833","019cf99d-e445-78ae-88d0-91fe39b758eb","","601","
                <div class=""stimulus-container"">
                    <img src=""images/causal_sequence/museum_causal/museum_causal_7.png"" class=""exp-image"">
                    <div class=""question-area"">
                        <p style=""font-size: 20px; font-weight: bold; margin: 0;"">Is there a person in this image?</p>
                    </div>
                </div>","1","main_experiment_trial","7","museum_causal","causal_sequence","randomized","","","","",""
"","","","","","html-keyboard-response","31","143482","0.0-31.0","84D9F26CEE2E439C8DF233F032D8399F","019cf9a0-59ab-7314-903d-0f09cba5d833","019cf99d-e445-78ae-88d0-91fe39b758eb","","null","
                <div class=""stimulus-container"">
                    <img src=""images/causal_sequence/museum_causal/museum_causal_5.png"" class=""exp-image"">
                    <div class=""question-area""></div> 
                </div>","null","","","","","","","","","",""
"","","","","","html-button-response","32","144152","0.0-32.0","84D9F26CEE2E439C8DF233F032D8399F","019cf9a0-59ab-7314-903d-0f09cba5d833","019cf99d-e445-78ae-88d0-91fe39b758eb","","667","
                <div class=""stimulus-container"">
                    <img src=""images/causal_sequence/museum_causal/museum_causal_5.png"" class=""exp-image"">
                    <div class=""question-area"">
                        <p style=""font-size: 20px; font-weight: bold; margin: 0;"">Is there a person in this image?</p>
                    </div>
                </div>","0","main_experiment_trial","5","museum_causal","causal_sequence","randomized","","","","",""
"","","","","","html-keyboard-response","33","145154","0.0-33.0","84D9F26CEE2E439C8DF233F032D8399F","019cf9a0-59ab-7314-903d-0f09cba5d833","019cf99d-e445-78ae-88d0-91fe39b758eb","","null","
                <div class=""stimulus-container"">
                    <img src=""images/causal_sequence/museum_causal/museum_causal_ten.png"" class=""exp-image"">
                    <div class=""question-area""></div> 
                </div>","null","","","","","","","","","",""
"","","","","","html-button-response","34","145747","0.0-34.0","84D9F26CEE2E439C8DF233F032D8399F","019cf9a0-59ab-7314-903d-0f09cba5d833","019cf99d-e445-78ae-88d0-91fe39b758eb","","590","
                <div class=""stimulus-container"">
                    <img src=""images/causal_sequence/museum_causal/museum_causal_ten.png"" class=""exp-image"">
                    <div class=""question-area"">
                        <p style=""font-size: 20px; font-weight: bold; margin: 0;"">Is there a person in this image?</p>
                    </div>
                </div>","0","main_experiment_trial","ten","museum_causal","causal_sequence","randomized","","","","",""
"","","","","","html-keyboard-response","35","146749","0.0-35.0","84D9F26CEE2E439C8DF233F032D8399F","019cf9a0-59ab-7314-903d-0f09cba5d833","019cf99d-e445-78ae-88d0-91fe39b758eb","","null","
                <div class=""stimulus-container"">
                    <img src=""images/causal_sequence/museum_causal/museum_causal_4.png"" class=""exp-image"">
                    <div class=""question-area""></div> 
                </div>","null","","","","","","","","","",""
"","","","","","html-button-response","36","147272","0.0-36.0","84D9F26CEE2E439C8DF233F032D8399F","019cf9a0-59ab-7314-903d-0f09cba5d833","019cf99d-e445-78ae-88d0-91fe39b758eb","","520","
                <div class=""stimulus-container"">
                    <img src=""images/causal_sequence/museum_causal/museum_causal_4.png"" class=""exp-image"">
                    <div class=""question-area"">
                        <p style=""font-size: 20px; font-weight: bold; margin: 0;"">Is there a person in this image?</p>
                    </div>
                </div>","1","main_experiment_trial","4","museum_causal","causal_sequence","randomized","","","","",""
"","","","","","html-keyboard-response","37","152273","0.0-37.0","84D9F26CEE2E439C8DF233F032D8399F","019cf9a0-59ab-7314-903d-0f09cba5d833","019cf99d-e445-78ae-88d0-91fe39b758eb","","null","<div style=""background-color: white; width: 100vw; height: 100vh;""></div>","null","","","","","","","","","",""
"","","","","","html-keyboard-response","38","153275","0.0-38.0","84D9F26CEE2E439C8DF233F032D8399F","019cf9a0-59ab-7314-903d-0f09cba5d833","019cf99d-e445-78ae-88d0-91fe39b758eb","","null","
                <div class=""stimulus-container"">
                    <img src=""images/causal_sequence/dog_causal/dog_causal_7.png"" class=""exp-image"">
                    <div class=""question-area""></div> 
                </div>","null","","","","","","","","","",""
"","","","","","html-button-response","39","154246","0.0-39.0","84D9F26CEE2E439C8DF233F032D8399F","019cf9a0-59ab-7314-903d-0f09cba5d833","019cf99d-e445-78ae-88d0-91fe39b758eb","","969","
                <div class=""stimulus-container"">
                    <img src=""images/causal_sequence/dog_causal/dog_causal_7.png"" class=""exp-image"">
                    <div class=""question-area"">
                        <p style=""font-size: 20px; font-weight: bold; margin: 0;"">Is there a person in this image?</p>
                    </div>
                </div>","0","main_experiment_trial","7","dog_causal","causal_sequence","randomized","","","","",""
"","","","","","html-keyboard-response","40","155248","0.0-40.0","84D9F26CEE2E439C8DF233F032D8399F","019cf9a0-59ab-7314-903d-0f09cba5d833","019cf99d-e445-78ae-88d0-91fe39b758eb","","null","
                <div class=""stimulus-container"">
                    <img src=""images/causal_sequence/dog_causal/dog_causal_3.png"" class=""exp-image"">
                    <div class=""question-area""></div> 
                </div>","null","","","","","","","","","",""
"","","","","","html-button-response","41","155790","0.0-41.0","84D9F26CEE2E439C8DF233F032D8399F","019cf9a0-59ab-7314-903d-0f09cba5d833","019cf99d-e445-78ae-88d0-91fe39b758eb","","539","
                <div class=""stimulus-container"">
                    <img src=""images/causal_sequence/dog_causal/dog_causal_3.png"" class=""exp-image"">
                    <div class=""question-area"">
                        <p style=""font-size: 20px; font-weight: bold; margin: 0;"">Is there a person in this image?</p>
                    </div>
                </div>","0","main_experiment_trial","3","dog_causal","causal_sequence","randomized","","","","",""
"","","","","","html-keyboard-response","42","156793","0.0-42.0","84D9F26CEE2E439C8DF233F032D8399F","019cf9a0-59ab-7314-903d-0f09cba5d833","019cf99d-e445-78ae-88d0-91fe39b758eb","","null","
                <div class=""stimulus-container"">
                    <img src=""images/causal_sequence/dog_causal/dog_causal_9.png"" class=""exp-image"">
                    <div class=""question-area""></div> 
                </div>","null","","","","","","","","","",""
"","","","","","html-button-response","43","157576","0.0-43.0","84D9F26CEE2E439C8DF233F032D8399F","019cf9a0-59ab-7314-903d-0f09cba5d833","019cf99d-e445-78ae-88d0-91fe39b758eb","","781","
                <div class=""stimulus-container"">
                    <img src=""images/causal_sequence/dog_causal/dog_causal_9.png"" class=""exp-image"">
                    <div class=""question-area"">
                        <p style=""font-size: 20px; font-weight: bold; margin: 0;"">Is there a person in this image?</p>
                    </div>
                </div>","0","main_experiment_trial","9","dog_causal","causal_sequence","randomized","","","","",""
"","","","","","html-keyboard-response","44","158578","0.0-44.0","84D9F26CEE2E439C8DF233F032D8399F","019cf9a0-59ab-7314-903d-0f09cba5d833","019cf99d-e445-78ae-88d0-91fe39b758eb","","null","
                <div class=""stimulus-container"">
                    <img src=""images/causal_sequence/dog_causal/dog_causal_4.png"" class=""exp-image"">
                    <div class=""question-area""></div> 
                </div>","null","","","","","","","","","",""
"","","","","","html-button-response","45","159128","0.0-45.0","84D9F26CEE2E439C8DF233F032D8399F","019cf9a0-59ab-7314-903d-0f09cba5d833","019cf99d-e445-78ae-88d0-91fe39b758eb","","547","
                <div class=""stimulus-container"">
                    <img src=""images/causal_sequence/dog_causal/dog_causal_4.png"" class=""exp-image"">
                    <div class=""question-area"">
                        <p style=""font-size: 20px; font-weight: bold; margin: 0;"">Is there a person in this image?</p>
                    </div>
                </div>","0","main_experiment_trial","4","dog_causal","causal_sequence","randomized","","","","",""
"","","","","","html-keyboard-response","46","160130","0.0-46.0","84D9F26CEE2E439C8DF233F032D8399F","019cf9a0-59ab-7314-903d-0f09cba5d833","019cf99d-e445-78ae-88d0-91fe39b758eb","","null","
                <div class=""stimulus-container"">
                    <img src=""images/causal_sequence/dog_causal/dog_causal_6.png"" class=""exp-image"">
                    <div class=""question-area""></div> 
                </div>","null","","","","","","","","","",""
"","","","","","html-button-response","47","160672","0.0-47.0","84D9F26CEE2E439C8DF233F032D8399F","019cf9a0-59ab-7314-903d-0f09cba5d833","019cf99d-e445-78ae-88d0-91fe39b758eb","","540","
                <div class=""stimulus-container"">
                    <img src=""images/causal_sequence/dog_causal/dog_causal_6.png"" class=""exp-image"">
                    <div class=""question-area"">
                        <p style=""font-size: 20px; font-weight: bold; margin: 0;"">Is there a person in this image?</p>
                    </div>
                </div>","0","main_experiment_trial","6","dog_causal","causal_sequence","randomized","","","","",""
"","","","","","html-keyboard-response","48","161674","0.0-48.0","84D9F26CEE2E439C8DF233F032D8399F","019cf9a0-59ab-7314-903d-0f09cba5d833","019cf99d-e445-78ae-88d0-91fe39b758eb","","null","
                <div class=""stimulus-container"">
                    <img src=""images/causal_sequence/dog_causal/dog_causal_2.png"" class=""exp-image"">
                    <div class=""question-area""></div> 
                </div>","null","","","","","","","","","",""
"","","","","","html-button-response","49","162157","0.0-49.0","84D9F26CEE2E439C8DF233F032D8399F","019cf9a0-59ab-7314-903d-0f09cba5d833","019cf99d-e445-78ae-88d0-91fe39b758eb","","480","
                <div class=""stimulus-container"">
                    <img src=""images/causal_sequence/dog_causal/dog_causal_2.png"" class=""exp-image"">
                    <div class=""question-area"">
                        <p style=""font-size: 20px; font-weight: bold; margin: 0;"">Is there a person in this image?</p>
                    </div>
                </div>","0","main_experiment_trial","2","dog_causal","causal_sequence","randomized","","","","",""
"","","","","","html-keyboard-response","50","163159","0.0-50.0","84D9F26CEE2E439C8DF233F032D8399F","019cf9a0-59ab-7314-903d-0f09cba5d833","019cf99d-e445-78ae-88d0-91fe39b758eb","","null","
                <div class=""stimulus-container"">
                    <img src=""images/causal_sequence/dog_causal/dog_causal_5.png"" class=""exp-image"">
                    <div class=""question-area""></div> 
                </div>","null","","","","","","","","","",""
"","","","","","html-button-response","51","163679","0.0-51.0","84D9F26CEE2E439C8DF233F032D8399F","019cf9a0-59ab-7314-903d-0f09cba5d833","019cf99d-e445-78ae-88d0-91fe39b758eb","","517","
                <div class=""stimulus-container"">
                    <img src=""images/causal_sequence/dog_causal/dog_causal_5.png"" class=""exp-image"">
                    <div class=""question-area"">
                        <p style=""font-size: 20px; font-weight: bold; margin: 0;"">Is there a person in this image?</p>
                    </div>
                </div>","0","main_experiment_trial","5","dog_causal","causal_sequence","randomized","","","","",""
"","","","","","html-keyboard-response","52","164681","0.0-52.0","84D9F26CEE2E439C8DF233F032D8399F","019cf9a0-59ab-7314-903d-0f09cba5d833","019cf99d-e445-78ae-88d0-91fe39b758eb","","null","
                <div class=""stimulus-container"">
                    <img src=""images/causal_sequence/dog_causal/dog_causal_ten.png"" class=""exp-image"">
                    <div class=""question-area""></div> 
                </div>","null","","","","","","","","","",""
"","","","","","html-button-response","53","165162","0.0-53.0","84D9F26CEE2E439C8DF233F032D8399F","019cf9a0-59ab-7314-903d-0f09cba5d833","019cf99d-e445-78ae-88d0-91fe39b758eb","","478","
                <div class=""stimulus-container"">
                    <img src=""images/causal_sequence/dog_causal/dog_causal_ten.png"" class=""exp-image"">
                    <div class=""question-area"">
                        <p style=""font-size: 20px; font-weight: bold; margin: 0;"">Is there a person in this image?</p>
                    </div>
                </div>","0","main_experiment_trial","ten","dog_causal","causal_sequence","randomized","","","","",""
"","","","","","html-keyboard-response","54","166165","0.0-54.0","84D9F26CEE2E439C8DF233F032D8399F","019cf9a0-59ab-7314-903d-0f09cba5d833","019cf99d-e445-78ae-88d0-91fe39b758eb","","null","
                <div class=""stimulus-container"">
                    <img src=""images/causal_sequence/dog_causal/dog_causal_8.png"" class=""exp-image"">
                    <div class=""question-area""></div> 
                </div>","null","","","","","","","","","",""
"","","","","","html-button-response","55","166596","0.0-55.0","84D9F26CEE2E439C8DF233F032D8399F","019cf9a0-59ab-7314-903d-0f09cba5d833","019cf99d-e445-78ae-88d0-91fe39b758eb","","429","
                <div class=""stimulus-container"">
                    <img src=""images/causal_sequence/dog_causal/dog_causal_8.png"" class=""exp-image"">
                    <div class=""question-area"">
                        <p style=""font-size: 20px; font-weight: bold; margin: 0;"">Is there a person in this image?</p>
                    </div>
                </div>","0","main_experiment_trial","8","dog_causal","causal_sequence","randomized","","","","",""
"","","","","","html-keyboard-response","56","167598","0.0-56.0","84D9F26CEE2E439C8DF233F032D8399F","019cf9a0-59ab-7314-903d-0f09cba5d833","019cf99d-e445-78ae-88d0-91fe39b758eb","","null","
                <div class=""stimulus-container"">
                    <img src=""images/causal_sequence/dog_causal/dog_causal_1.png"" class=""exp-image"">
                    <div class=""question-area""></div> 
                </div>","null","","","","","","","","","",""
"","","","","","html-button-response","57","168321","0.0-57.0","84D9F26CEE2E439C8DF233F032D8399F","019cf9a0-59ab-7314-903d-0f09cba5d833","019cf99d-e445-78ae-88d0-91fe39b758eb","","720","
                <div class=""stimulus-container"">
                    <img src=""images/causal_sequence/dog_causal/dog_causal_1.png"" class=""exp-image"">
                    <div class=""question-area"">
                        <p style=""font-size: 20px; font-weight: bold; margin: 0;"">Is there a person in this image?</p>
                    </div>
                </div>","0","main_experiment_trial","1","dog_causal","causal_sequence","randomized","","","","",""
"","","","","","html-keyboard-response","58","173323","0.0-58.0","84D9F26CEE2E439C8DF233F032D8399F","019cf9a0-59ab-7314-903d-0f09cba5d833","019cf99d-e445-78ae-88d0-91fe39b758eb","","null","<div style=""background-color: white; width: 100vw; height: 100vh;""></div>","null","","","","","","","","","",""
"","","","","","html-keyboard-response","59","174324","0.0-59.0","84D9F26CEE2E439C8DF233F032D8399F","019cf9a0-59ab-7314-903d-0f09cba5d833","019cf99d-e445-78ae-88d0-91fe39b758eb","","null","
                <div class=""stimulus-container"">
                    <img src=""images/semantic_sequence/housework_semantic/housework_semantic_5.png"" class=""exp-image"">
                    <div class=""question-area""></div> 
                </div>","null","","","","","","","","","",""
"","","","","","html-button-response","60","174916","0.0-60.0","84D9F26CEE2E439C8DF233F032D8399F","019cf9a0-59ab-7314-903d-0f09cba5d833","019cf99d-e445-78ae-88d0-91fe39b758eb","","589","
                <div class=""stimulus-container"">
                    <img src=""images/semantic_sequence/housework_semantic/housework_semantic_5.png"" class=""exp-image"">
                    <div class=""question-area"">
                        <p style=""font-size: 20px; font-weight: bold; margin: 0;"">Is there a person in this image?</p>
                    </div>
                </div>","0","main_experiment_trial","5","housework_semantic","semantic_sequence","randomized","","","","",""
"","","","","","html-keyboard-response","61","175918","0.0-61.0","84D9F26CEE2E439C8DF233F032D8399F","019cf9a0-59ab-7314-903d-0f09cba5d833","019cf99d-e445-78ae-88d0-91fe39b758eb","","null","
                <div class=""stimulus-container"">
                    <img src=""images/semantic_sequence/housework_semantic/housework_semantic_8.png"" class=""exp-image"">
                    <div class=""question-area""></div> 
                </div>","null","","","","","","","","","",""
"","","","","","html-button-response","62","176509","0.0-62.0","84D9F26CEE2E439C8DF233F032D8399F","019cf9a0-59ab-7314-903d-0f09cba5d833","019cf99d-e445-78ae-88d0-91fe39b758eb","","589","
                <div class=""stimulus-container"">
                    <img src=""images/semantic_sequence/housework_semantic/housework_semantic_8.png"" class=""exp-image"">
                    <div class=""question-area"">
                        <p style=""font-size: 20px; font-weight: bold; margin: 0;"">Is there a person in this image?</p>
                    </div>
                </div>","0","main_experiment_trial","8","housework_semantic","semantic_sequence","randomized","","","","",""
"","","","","","html-keyboard-response","63","177511","0.0-63.0","84D9F26CEE2E439C8DF233F032D8399F","019cf9a0-59ab-7314-903d-0f09cba5d833","019cf99d-e445-78ae-88d0-91fe39b758eb","","null","
                <div class=""stimulus-container"">
                    <img src=""images/semantic_sequence/housework_semantic/housework_semantic_9.png"" class=""exp-image"">
                    <div class=""question-area""></div> 
                </div>","null","","","","","","","","","",""
"","","","","","html-button-response","64","177973","0.0-64.0","84D9F26CEE2E439C8DF233F032D8399F","019cf9a0-59ab-7314-903d-0f09cba5d833","019cf99d-e445-78ae-88d0-91fe39b758eb","","459","
                <div class=""stimulus-container"">
                    <img src=""images/semantic_sequence/housework_semantic/housework_semantic_9.png"" class=""exp-image"">
                    <div class=""question-area"">
                        <p style=""font-size: 20px; font-weight: bold; margin: 0;"">Is there a person in this image?</p>
                    </div>
                </div>","0","main_experiment_trial","9","housework_semantic","semantic_sequence","randomized","","","","",""
"","","","","","html-keyboard-response","65","178975","0.0-65.0","84D9F26CEE2E439C8DF233F032D8399F","019cf9a0-59ab-7314-903d-0f09cba5d833","019cf99d-e445-78ae-88d0-91fe39b758eb","","null","
                <div class=""stimulus-container"">
                    <img src=""images/semantic_sequence/housework_semantic/housework_semantic_4.png"" class=""exp-image"">
                    <div class=""question-area""></div> 
                </div>","null","","","","","","","","","",""
"","","","","","html-button-response","66","179408","0.0-66.0","84D9F26CEE2E439C8DF233F032D8399F","019cf9a0-59ab-7314-903d-0f09cba5d833","019cf99d-e445-78ae-88d0-91fe39b758eb","","430","
                <div class=""stimulus-container"">
                    <img src=""images/semantic_sequence/housework_semantic/housework_semantic_4.png"" class=""exp-image"">
                    <div class=""question-area"">
                        <p style=""font-size: 20px; font-weight: bold; margin: 0;"">Is there a person in this image?</p>
                    </div>
                </div>","0","main_experiment_trial","4","housework_semantic","semantic_sequence","randomized","","","","",""
"","","","","","html-keyboard-response","67","180410","0.0-67.0","84D9F26CEE2E439C8DF233F032D8399F","019cf9a0-59ab-7314-903d-0f09cba5d833","019cf99d-e445-78ae-88d0-91fe39b758eb","","null","
                <div class=""stimulus-container"">
                    <img src=""images/semantic_sequence/housework_semantic/housework_semantic_7.png"" class=""exp-image"">
                    <div class=""question-area""></div> 
                </div>","null","","","","","","","","","",""
"","","","","","html-button-response","68","182223","0.0-68.0","84D9F26CEE2E439C8DF233F032D8399F","019cf9a0-59ab-7314-903d-0f09cba5d833","019cf99d-e445-78ae-88d0-91fe39b758eb","","1810","
                <div class=""stimulus-container"">
                    <img src=""images/semantic_sequence/housework_semantic/housework_semantic_7.png"" class=""exp-image"">
                    <div class=""question-area"">
                        <p style=""font-size: 20px; font-weight: bold; margin: 0;"">Is there a person in this image?</p>
                    </div>
                </div>","0","main_experiment_trial","7","housework_semantic","semantic_sequence","randomized","","","","",""
"","","","","","html-keyboard-response","69","183225","0.0-69.0","84D9F26CEE2E439C8DF233F032D8399F","019cf9a0-59ab-7314-903d-0f09cba5d833","019cf99d-e445-78ae-88d0-91fe39b758eb","","null","
                <div class=""stimulus-container"">
                    <img src=""images/semantic_sequence/housework_semantic/housework_semantic_3.png"" class=""exp-image"">
                    <div class=""question-area""></div> 
                </div>","null","","","","","","","","","",""
"","","","","","html-button-response","70","183606","0.0-70.0","84D9F26CEE2E439C8DF233F032D8399F","019cf9a0-59ab-7314-903d-0f09cba5d833","019cf99d-e445-78ae-88d0-91fe39b758eb","","377","
                <div class=""stimulus-container"">
                    <img src=""images/semantic_sequence/housework_semantic/housework_semantic_3.png"" class=""exp-image"">
                    <div class=""question-area"">
                        <p style=""font-size: 20px; font-weight: bold; margin: 0;"">Is there a person in this image?</p>
                    </div>
                </div>","0","main_experiment_trial","3","housework_semantic","semantic_sequence","randomized","","","","",""
"","","","","","html-keyboard-response","71","184608","0.0-71.0","84D9F26CEE2E439C8DF233F032D8399F","019cf9a0-59ab-7314-903d-0f09cba5d833","019cf99d-e445-78ae-88d0-91fe39b758eb","","null","
                <div class=""stimulus-container"">
                    <img src=""images/semantic_sequence/housework_semantic/housework_semantic_6.png"" class=""exp-image"">
                    <div class=""question-area""></div> 
                </div>","null","","","","","","","","","",""
"","","","","","html-button-response","72","185018","0.0-72.0","84D9F26CEE2E439C8DF233F032D8399F","019cf9a0-59ab-7314-903d-0f09cba5d833","019cf99d-e445-78ae-88d0-91fe39b758eb","","408","
                <div class=""stimulus-container"">
                    <img src=""images/semantic_sequence/housework_semantic/housework_semantic_6.png"" class=""exp-image"">
                    <div class=""question-area"">
                        <p style=""font-size: 20px; font-weight: bold; margin: 0;"">Is there a person in this image?</p>
                    </div>
                </div>","0","main_experiment_trial","6","housework_semantic","semantic_sequence","randomized","","","","",""
"","","","","","html-keyboard-response","73","186021","0.0-73.0","84D9F26CEE2E439C8DF233F032D8399F","019cf9a0-59ab-7314-903d-0f09cba5d833","019cf99d-e445-78ae-88d0-91fe39b758eb","","null","
                <div class=""stimulus-container"">
                    <img src=""images/semantic_sequence/housework_semantic/housework_semantic_1.png"" class=""exp-image"">
                    <div class=""question-area""></div> 
                </div>","null","","","","","","","","","",""
"","","","","","html-button-response","74","186732","0.0-74.0","84D9F26CEE2E439C8DF233F032D8399F","019cf9a0-59ab-7314-903d-0f09cba5d833","019cf99d-e445-78ae-88d0-91fe39b758eb","","709","
                <div class=""stimulus-container"">
                    <img src=""images/semantic_sequence/housework_semantic/housework_semantic_1.png"" class=""exp-image"">
                    <div class=""question-area"">
                        <p style=""font-size: 20px; font-weight: bold; margin: 0;"">Is there a person in this image?</p>
                    </div>
                </div>","0","main_experiment_trial","1","housework_semantic","semantic_sequence","randomized","","","","",""
"","","","","","html-keyboard-response","75","187735","0.0-75.0","84D9F26CEE2E439C8DF233F032D8399F","019cf9a0-59ab-7314-903d-0f09cba5d833","019cf99d-e445-78ae-88d0-91fe39b758eb","","null","
                <div class=""stimulus-container"">
                    <img src=""images/semantic_sequence/housework_semantic/housework_semantic_2.png"" class=""exp-image"">
                    <div class=""question-area""></div> 
                </div>","null","","","","","","","","","",""
"","","","","","html-button-response","76","188246","0.0-76.0","84D9F26CEE2E439C8DF233F032D8399F","019cf9a0-59ab-7314-903d-0f09cba5d833","019cf99d-e445-78ae-88d0-91fe39b758eb","","508","
                <div class=""stimulus-container"">
                    <img src=""images/semantic_sequence/housework_semantic/housework_semantic_2.png"" class=""exp-image"">
                    <div class=""question-area"">
                        <p style=""font-size: 20px; font-weight: bold; margin: 0;"">Is there a person in this image?</p>
                    </div>
                </div>","0","main_experiment_trial","2","housework_semantic","semantic_sequence","randomized","","","","",""
"","","","","","html-keyboard-response","77","189248","0.0-77.0","84D9F26CEE2E439C8DF233F032D8399F","019cf9a0-59ab-7314-903d-0f09cba5d833","019cf99d-e445-78ae-88d0-91fe39b758eb","","null","
                <div class=""stimulus-container"">
                    <img src=""images/semantic_sequence/housework_semantic/housework_semantic_ten.png"" class=""exp-image"">
                    <div class=""question-area""></div> 
                </div>","null","","","","","","","","","",""
"","","","","","html-button-response","78","189730","0.0-78.0","84D9F26CEE2E439C8DF233F032D8399F","019cf9a0-59ab-7314-903d-0f09cba5d833","019cf99d-e445-78ae-88d0-91fe39b758eb","","480","
                <div class=""stimulus-container"">
                    <img src=""images/semantic_sequence/housework_semantic/housework_semantic_ten.png"" class=""exp-image"">
                    <div class=""question-area"">
                        <p style=""font-size: 20px; font-weight: bold; margin: 0;"">Is there a person in this image?</p>
                    </div>
                </div>","0","main_experiment_trial","ten","housework_semantic","semantic_sequence","randomized","","","","",""
"","","","","","html-keyboard-response","79","194732","0.0-79.0","84D9F26CEE2E439C8DF233F032D8399F","019cf9a0-59ab-7314-903d-0f09cba5d833","019cf99d-e445-78ae-88d0-91fe39b758eb","","null","<div style=""background-color: white; width: 100vw; height: 100vh;""></div>","null","","","","","","","","","",""
"","","","","","html-keyboard-response","80","195734","0.0-80.0","84D9F26CEE2E439C8DF233F032D8399F","019cf9a0-59ab-7314-903d-0f09cba5d833","019cf99d-e445-78ae-88d0-91fe39b758eb","","null","
                <div class=""stimulus-container"">
                    <img src=""images/causal_sequence/the_performance_causal/the_performance_causal_7.png"" class=""exp-image"">
                    <div class=""question-area""></div> 
                </div>","null","","","","","","","","","",""
"","","","","","html-button-response","81","196527","0.0-81.0","84D9F26CEE2E439C8DF233F032D8399F","019cf9a0-59ab-7314-903d-0f09cba5d833","019cf99d-e445-78ae-88d0-91fe39b758eb","","791","
                <div class=""stimulus-container"">
                    <img src=""images/causal_sequence/the_performance_causal/the_performance_causal_7.png"" class=""exp-image"">
                    <div class=""question-area"">
                        <p style=""font-size: 20px; font-weight: bold; margin: 0;"">Is there a person in this image?</p>
                    </div>
                </div>","0","main_experiment_trial","7","the_performance_causal","causal_sequence","randomized","","","","",""
"","","","","","html-keyboard-response","82","197529","0.0-82.0","84D9F26CEE2E439C8DF233F032D8399F","019cf9a0-59ab-7314-903d-0f09cba5d833","019cf99d-e445-78ae-88d0-91fe39b758eb","","null","
                <div class=""stimulus-container"">
                    <img src=""images/causal_sequence/the_performance_causal/the_performance_causal_1.png"" class=""exp-image"">
                    <div class=""question-area""></div> 
                </div>","null","","","","","","","","","",""
"","","","","","html-button-response","83","198030","0.0-83.0","84D9F26CEE2E439C8DF233F032D8399F","019cf9a0-59ab-7314-903d-0f09cba5d833","019cf99d-e445-78ae-88d0-91fe39b758eb","","498","
                <div class=""stimulus-container"">
                    <img src=""images/causal_sequence/the_performance_causal/the_performance_causal_1.png"" class=""exp-image"">
                    <div class=""question-area"">
                        <p style=""font-size: 20px; font-weight: bold; margin: 0;"">Is there a person in this image?</p>
                    </div>
                </div>","0","main_experiment_trial","1","the_performance_causal","causal_sequence","randomized","","","","",""
"","","","","","html-keyboard-response","84","199032","0.0-84.0","84D9F26CEE2E439C8DF233F032D8399F","019cf9a0-59ab-7314-903d-0f09cba5d833","019cf99d-e445-78ae-88d0-91fe39b758eb","","null","
                <div class=""stimulus-container"">
                    <img src=""images/causal_sequence/the_performance_causal/the_performance_causal_8.png"" class=""exp-image"">
                    <div class=""question-area""></div> 
                </div>","null","","","","","","","","","",""
"","","","","","html-button-response","85","199474","0.0-85.0","84D9F26CEE2E439C8DF233F032D8399F","019cf9a0-59ab-7314-903d-0f09cba5d833","019cf99d-e445-78ae-88d0-91fe39b758eb","","439","
                <div class=""stimulus-container"">
                    <img src=""images/causal_sequence/the_performance_causal/the_performance_causal_8.png"" class=""exp-image"">
                    <div class=""question-area"">
                        <p style=""font-size: 20px; font-weight: bold; margin: 0;"">Is there a person in this image?</p>
                    </div>
                </div>","0","main_experiment_trial","8","the_performance_causal","causal_sequence","randomized","","","","",""
"","","","","","html-keyboard-response","86","200477","0.0-86.0","84D9F26CEE2E439C8DF233F032D8399F","019cf9a0-59ab-7314-903d-0f09cba5d833","019cf99d-e445-78ae-88d0-91fe39b758eb","","null","
                <div class=""stimulus-container"">
                    <img src=""images/causal_sequence/the_performance_causal/the_performance_causal_9.png"" class=""exp-image"">
                    <div class=""question-area""></div> 
                </div>","null","","","","","","","","","",""
"","","","","","html-button-response","87","200866","0.0-87.0","84D9F26CEE2E439C8DF233F032D8399F","019cf9a0-59ab-7314-903d-0f09cba5d833","019cf99d-e445-78ae-88d0-91fe39b758eb","","386","
                <div class=""stimulus-container"">
                    <img src=""images/causal_sequence/the_performance_causal/the_performance_causal_9.png"" class=""exp-image"">
                    <div class=""question-area"">
                        <p style=""font-size: 20px; font-weight: bold; margin: 0;"">Is there a person in this image?</p>
                    </div>
                </div>","0","main_experiment_trial","9","the_performance_causal","causal_sequence","randomized","","","","",""
"","","","","","html-keyboard-response","88","201869","0.0-88.0","84D9F26CEE2E439C8DF233F032D8399F","019cf9a0-59ab-7314-903d-0f09cba5d833","019cf99d-e445-78ae-88d0-91fe39b758eb","","null","
                <div class=""stimulus-container"">
                    <img src=""images/causal_sequence/the_performance_causal/the_performance_causal_5.png"" class=""exp-image"">
                    <div class=""question-area""></div> 
                </div>","null","","","","","","","","","",""
"","","","","","html-button-response","89","202277","0.0-89.0","84D9F26CEE2E439C8DF233F032D8399F","019cf9a0-59ab-7314-903d-0f09cba5d833","019cf99d-e445-78ae-88d0-91fe39b758eb","","406","
                <div class=""stimulus-container"">
                    <img src=""images/causal_sequence/the_performance_causal/the_performance_causal_5.png"" class=""exp-image"">
                    <div class=""question-area"">
                        <p style=""font-size: 20px; font-weight: bold; margin: 0;"">Is there a person in this image?</p>
                    </div>
                </div>","0","main_experiment_trial","5","the_performance_causal","causal_sequence","randomized","","","","",""
"","","","","","html-keyboard-response","90","203278","0.0-90.0","84D9F26CEE2E439C8DF233F032D8399F","019cf9a0-59ab-7314-903d-0f09cba5d833","019cf99d-e445-78ae-88d0-91fe39b758eb","","null","
                <div class=""stimulus-container"">
                    <img src=""images/causal_sequence/the_performance_causal/the_performance_causal_ten.png"" class=""exp-image"">
                    <div class=""question-area""></div> 
                </div>","null","","","","","","","","","",""
"","","","","","html-button-response","91","203724","0.0-91.0","84D9F26CEE2E439C8DF233F032D8399F","019cf9a0-59ab-7314-903d-0f09cba5d833","019cf99d-e445-78ae-88d0-91fe39b758eb","","442","
                <div class=""stimulus-container"">
                    <img src=""images/causal_sequence/the_performance_causal/the_performance_causal_ten.png"" class=""exp-image"">
                    <div class=""question-area"">
                        <p style=""font-size: 20px; font-weight: bold; margin: 0;"">Is there a person in this image?</p>
                    </div>
                </div>","0","main_experiment_trial","ten","the_performance_causal","causal_sequence","randomized","","","","",""
"","","","","","html-keyboard-response","92","204726","0.0-92.0","84D9F26CEE2E439C8DF233F032D8399F","019cf9a0-59ab-7314-903d-0f09cba5d833","019cf99d-e445-78ae-88d0-91fe39b758eb","","null","
                <div class=""stimulus-container"">
                    <img src=""images/causal_sequence/the_performance_causal/the_performance_causal_3.png"" class=""exp-image"">
                    <div class=""question-area""></div> 
                </div>","null","","","","","","","","","",""
"","","","","","html-button-response","93","205196","0.0-93.0","84D9F26CEE2E439C8DF233F032D8399F","019cf9a0-59ab-7314-903d-0f09cba5d833","019cf99d-e445-78ae-88d0-91fe39b758eb","","467","
                <div class=""stimulus-container"">
                    <img src=""images/causal_sequence/the_performance_causal/the_performance_causal_3.png"" class=""exp-image"">
                    <div class=""question-area"">
                        <p style=""font-size: 20px; font-weight: bold; margin: 0;"">Is there a person in this image?</p>
                    </div>
                </div>","0","main_experiment_trial","3","the_performance_causal","causal_sequence","randomized","","","","",""
"","","","","","html-keyboard-response","94","206198","0.0-94.0","84D9F26CEE2E439C8DF233F032D8399F","019cf9a0-59ab-7314-903d-0f09cba5d833","019cf99d-e445-78ae-88d0-91fe39b758eb","","null","
                <div class=""stimulus-container"">
                    <img src=""images/causal_sequence/the_performance_causal/the_performance_causal_4.png"" class=""exp-image"">
                    <div class=""question-area""></div> 
                </div>","null","","","","","","","","","",""
"","","","","","html-button-response","95","206790","0.0-95.0","84D9F26CEE2E439C8DF233F032D8399F","019cf9a0-59ab-7314-903d-0f09cba5d833","019cf99d-e445-78ae-88d0-91fe39b758eb","","589","
                <div class=""stimulus-container"">
                    <img src=""images/causal_sequence/the_performance_causal/the_performance_causal_4.png"" class=""exp-image"">
                    <div class=""question-area"">
                        <p style=""font-size: 20px; font-weight: bold; margin: 0;"">Is there a person in this image?</p>
                    </div>
                </div>","0","main_experiment_trial","4","the_performance_causal","causal_sequence","randomized","","","","",""
"","","","","","html-keyboard-response","96","207793","0.0-96.0","84D9F26CEE2E439C8DF233F032D8399F","019cf9a0-59ab-7314-903d-0f09cba5d833","019cf99d-e445-78ae-88d0-91fe39b758eb","","null","
                <div class=""stimulus-container"">
                    <img src=""images/causal_sequence/the_performance_causal/the_performance_causal_6.png"" class=""exp-image"">
                    <div class=""question-area""></div> 
                </div>","null","","","","","","","","","",""
"","","","","","html-button-response","97","208513","0.0-97.0","84D9F26CEE2E439C8DF233F032D8399F","019cf9a0-59ab-7314-903d-0f09cba5d833","019cf99d-e445-78ae-88d0-91fe39b758eb","","718","
                <div class=""stimulus-container"">
                    <img src=""images/causal_sequence/the_performance_causal/the_performance_causal_6.png"" class=""exp-image"">
                    <div class=""question-area"">
                        <p style=""font-size: 20px; font-weight: bold; margin: 0;"">Is there a person in this image?</p>
                    </div>
                </div>","0","main_experiment_trial","6","the_performance_causal","causal_sequence","randomized","","","","",""
"","","","","","html-keyboard-response","98","209516","0.0-98.0","84D9F26CEE2E439C8DF233F032D8399F","019cf9a0-59ab-7314-903d-0f09cba5d833","019cf99d-e445-78ae-88d0-91fe39b758eb","","null","
                <div class=""stimulus-container"">
                    <img src=""images/causal_sequence/the_performance_causal/the_performance_causal_2.png"" class=""exp-image"">
                    <div class=""question-area""></div> 
                </div>","null","","","","","","","","","",""
"","","","","","html-button-response","99","209936","0.0-99.0","84D9F26CEE2E439C8DF233F032D8399F","019cf9a0-59ab-7314-903d-0f09cba5d833","019cf99d-e445-78ae-88d0-91fe39b758eb","","417","
                <div class=""stimulus-container"">
                    <img src=""images/causal_sequence/the_performance_causal/the_performance_causal_2.png"" class=""exp-image"">
                    <div class=""question-area"">
                        <p style=""font-size: 20px; font-weight: bold; margin: 0;"">Is there a person in this image?</p>
                    </div>
                </div>","0","main_experiment_trial","2","the_performance_causal","causal_sequence","randomized","","","","",""
"","","","","","html-keyboard-response","100","214938","0.0-100.0","84D9F26CEE2E439C8DF233F032D8399F","019cf9a0-59ab-7314-903d-0f09cba5d833","019cf99d-e445-78ae-88d0-91fe39b758eb","","null","<div style=""background-color: white; width: 100vw; height: 100vh;""></div>","null","","","","","","","","","",""
"","","","","","html-keyboard-response","101","215940","0.0-101.0","84D9F26CEE2E439C8DF233F032D8399F","019cf9a0-59ab-7314-903d-0f09cba5d833","019cf99d-e445-78ae-88d0-91fe39b758eb","","null","
                <div class=""stimulus-container"">
                    <img src=""images/causal_sequence/package_causal/package_causal_ten.png"" class=""exp-image"">
                    <div class=""question-area""></div> 
                </div>","null","","","","","","","","","",""
"","","","","","html-button-response","102","216412","0.0-102.0","84D9F26CEE2E439C8DF233F032D8399F","019cf9a0-59ab-7314-903d-0f09cba5d833","019cf99d-e445-78ae-88d0-91fe39b758eb","","469","
                <div class=""stimulus-container"">
                    <img src=""images/causal_sequence/package_causal/package_causal_ten.png"" class=""exp-image"">
                    <div class=""question-area"">
                        <p style=""font-size: 20px; font-weight: bold; margin: 0;"">Is there a person in this image?</p>
                    </div>
                </div>","0","main_experiment_trial","ten","package_causal","causal_sequence","randomized","","","","",""
"","","","","","html-keyboard-response","103","217414","0.0-103.0","84D9F26CEE2E439C8DF233F032D8399F","019cf9a0-59ab-7314-903d-0f09cba5d833","019cf99d-e445-78ae-88d0-91fe39b758eb","","null","
                <div class=""stimulus-container"">
                    <img src=""images/causal_sequence/package_causal/package_causal_2.png"" class=""exp-image"">
                    <div class=""question-area""></div> 
                </div>","null","","","","","","","","","",""
"","","","","","html-button-response","104","218225","0.0-104.0","84D9F26CEE2E439C8DF233F032D8399F","019cf9a0-59ab-7314-903d-0f09cba5d833","019cf99d-e445-78ae-88d0-91fe39b758eb","","809","
                <div class=""stimulus-container"">
                    <img src=""images/causal_sequence/package_causal/package_causal_2.png"" class=""exp-image"">
                    <div class=""question-area"">
                        <p style=""font-size: 20px; font-weight: bold; margin: 0;"">Is there a person in this image?</p>
                    </div>
                </div>","0","main_experiment_trial","2","package_causal","causal_sequence","randomized","","","","",""
"","","","","","html-keyboard-response","105","219227","0.0-105.0","84D9F26CEE2E439C8DF233F032D8399F","019cf9a0-59ab-7314-903d-0f09cba5d833","019cf99d-e445-78ae-88d0-91fe39b758eb","","null","
                <div class=""stimulus-container"">
                    <img src=""images/causal_sequence/package_causal/package_causal_3.png"" class=""exp-image"">
                    <div class=""question-area""></div> 
                </div>","null","","","","","","","","","",""
"","","","","","html-button-response","106","219649","0.0-106.0","84D9F26CEE2E439C8DF233F032D8399F","019cf9a0-59ab-7314-903d-0f09cba5d833","019cf99d-e445-78ae-88d0-91fe39b758eb","","419","
                <div class=""stimulus-container"">
                    <img src=""images/causal_sequence/package_causal/package_causal_3.png"" class=""exp-image"">
                    <div class=""question-area"">
                        <p style=""font-size: 20px; font-weight: bold; margin: 0;"">Is there a person in this image?</p>
                    </div>
                </div>","0","main_experiment_trial","3","package_causal","causal_sequence","randomized","","","","",""
"","","","","","html-keyboard-response","107","220651","0.0-107.0","84D9F26CEE2E439C8DF233F032D8399F","019cf9a0-59ab-7314-903d-0f09cba5d833","019cf99d-e445-78ae-88d0-91fe39b758eb","","null","
                <div class=""stimulus-container"">
                    <img src=""images/causal_sequence/package_causal/package_causal_8.png"" class=""exp-image"">
                    <div class=""question-area""></div> 
                </div>","null","","","","","","","","","",""
"","","","","","html-button-response","108","221233","0.0-108.0","84D9F26CEE2E439C8DF233F032D8399F","019cf9a0-59ab-7314-903d-0f09cba5d833","019cf99d-e445-78ae-88d0-91fe39b758eb","","579","
                <div class=""stimulus-container"">
                    <img src=""images/causal_sequence/package_causal/package_causal_8.png"" class=""exp-image"">
                    <div class=""question-area"">
                        <p style=""font-size: 20px; font-weight: bold; margin: 0;"">Is there a person in this image?</p>
                    </div>
                </div>","0","main_experiment_trial","8","package_causal","causal_sequence","randomized","","","","",""
"","","","","","html-keyboard-response","109","222235","0.0-109.0","84D9F26CEE2E439C8DF233F032D8399F","019cf9a0-59ab-7314-903d-0f09cba5d833","019cf99d-e445-78ae-88d0-91fe39b758eb","","null","
                <div class=""stimulus-container"">
                    <img src=""images/causal_sequence/package_causal/package_causal_1.png"" class=""exp-image"">
                    <div class=""question-area""></div> 
                </div>","null","","","","","","","","","",""
"","","","","","html-button-response","110","222716","0.0-110.0","84D9F26CEE2E439C8DF233F032D8399F","019cf9a0-59ab-7314-903d-0f09cba5d833","019cf99d-e445-78ae-88d0-91fe39b758eb","","479","
                <div class=""stimulus-container"">
                    <img src=""images/causal_sequence/package_causal/package_causal_1.png"" class=""exp-image"">
                    <div class=""question-area"">
                        <p style=""font-size: 20px; font-weight: bold; margin: 0;"">Is there a person in this image?</p>
                    </div>
                </div>","0","main_experiment_trial","1","package_causal","causal_sequence","randomized","","","","",""
"","","","","","html-keyboard-response","111","223718","0.0-111.0","84D9F26CEE2E439C8DF233F032D8399F","019cf9a0-59ab-7314-903d-0f09cba5d833","019cf99d-e445-78ae-88d0-91fe39b758eb","","null","
                <div class=""stimulus-container"">
                    <img src=""images/causal_sequence/package_causal/package_causal_4.png"" class=""exp-image"">
                    <div class=""question-area""></div> 
                </div>","null","","","","","","","","","",""
"","","","","","html-button-response","112","224340","0.0-112.0","84D9F26CEE2E439C8DF233F032D8399F","019cf9a0-59ab-7314-903d-0f09cba5d833","019cf99d-e445-78ae-88d0-91fe39b758eb","","619","
                <div class=""stimulus-container"">
                    <img src=""images/causal_sequence/package_causal/package_causal_4.png"" class=""exp-image"">
                    <div class=""question-area"">
                        <p style=""font-size: 20px; font-weight: bold; margin: 0;"">Is there a person in this image?</p>
                    </div>
                </div>","1","main_experiment_trial","4","package_causal","causal_sequence","randomized","","","","",""
"","","","","","html-keyboard-response","113","225342","0.0-113.0","84D9F26CEE2E439C8DF233F032D8399F","019cf9a0-59ab-7314-903d-0f09cba5d833","019cf99d-e445-78ae-88d0-91fe39b758eb","","null","
                <div class=""stimulus-container"">
                    <img src=""images/causal_sequence/package_causal/package_causal_9.png"" class=""exp-image"">
                    <div class=""question-area""></div> 
                </div>","null","","","","","","","","","",""
"","","","","","html-button-response","114","225834","0.0-114.0","84D9F26CEE2E439C8DF233F032D8399F","019cf9a0-59ab-7314-903d-0f09cba5d833","019cf99d-e445-78ae-88d0-91fe39b758eb","","489","
                <div class=""stimulus-container"">
                    <img src=""images/causal_sequence/package_causal/package_causal_9.png"" class=""exp-image"">
                    <div class=""question-area"">
                        <p style=""font-size: 20px; font-weight: bold; margin: 0;"">Is there a person in this image?</p>
                    </div>
                </div>","0","main_experiment_trial","9","package_causal","causal_sequence","randomized","","","","",""
"","","","","","html-keyboard-response","115","226836","0.0-115.0","84D9F26CEE2E439C8DF233F032D8399F","019cf9a0-59ab-7314-903d-0f09cba5d833","019cf99d-e445-78ae-88d0-91fe39b758eb","","null","
                <div class=""stimulus-container"">
                    <img src=""images/causal_sequence/package_causal/package_causal_5.png"" class=""exp-image"">
                    <div class=""question-area""></div> 
                </div>","null","","","","","","","","","",""
"","","","","","html-button-response","116","227266","0.0-116.0","84D9F26CEE2E439C8DF233F032D8399F","019cf9a0-59ab-7314-903d-0f09cba5d833","019cf99d-e445-78ae-88d0-91fe39b758eb","","428","
                <div class=""stimulus-container"">
                    <img src=""images/causal_sequence/package_causal/package_causal_5.png"" class=""exp-image"">
                    <div class=""question-area"">
                        <p style=""font-size: 20px; font-weight: bold; margin: 0;"">Is there a person in this image?</p>
                    </div>
                </div>","0","main_experiment_trial","5","package_causal","causal_sequence","randomized","","","","",""
"","","","","","html-keyboard-response","117","228269","0.0-117.0","84D9F26CEE2E439C8DF233F032D8399F","019cf9a0-59ab-7314-903d-0f09cba5d833","019cf99d-e445-78ae-88d0-91fe39b758eb","","null","
                <div class=""stimulus-container"">
                    <img src=""images/causal_sequence/package_causal/package_causal_7.png"" class=""exp-image"">
                    <div class=""question-area""></div> 
                </div>","null","","","","","","","","","",""
"","","","","","html-button-response","118","228710","0.0-118.0","84D9F26CEE2E439C8DF233F032D8399F","019cf9a0-59ab-7314-903d-0f09cba5d833","019cf99d-e445-78ae-88d0-91fe39b758eb","","440","
                <div class=""stimulus-container"">
                    <img src=""images/causal_sequence/package_causal/package_causal_7.png"" class=""exp-image"">
                    <div class=""question-area"">
                        <p style=""font-size: 20px; font-weight: bold; margin: 0;"">Is there a person in this image?</p>
                    </div>
                </div>","0","main_experiment_trial","7","package_causal","causal_sequence","randomized","","","","",""
"","","","","","html-keyboard-response","119","229712","0.0-119.0","84D9F26CEE2E439C8DF233F032D8399F","019cf9a0-59ab-7314-903d-0f09cba5d833","019cf99d-e445-78ae-88d0-91fe39b758eb","","null","
                <div class=""stimulus-container"">
                    <img src=""images/causal_sequence/package_causal/package_causal_6.png"" class=""exp-image"">
                    <div class=""question-area""></div> 
                </div>","null","","","","","","","","","",""
"","","","","","html-button-response","120","229863","0.0-120.0","84D9F26CEE2E439C8DF233F032D8399F","019cf9a0-59ab-7314-903d-0f09cba5d833","019cf99d-e445-78ae-88d0-91fe39b758eb","","148","
                <div class=""stimulus-container"">
                    <img src=""images/causal_sequence/package_causal/package_causal_6.png"" class=""exp-image"">
                    <div class=""question-area"">
                        <p style=""font-size: 20px; font-weight: bold; margin: 0;"">Is there a person in this image?</p>
                    </div>
                </div>","0","main_experiment_trial","6","package_causal","causal_sequence","randomized","","","","",""
"","","","","","html-keyboard-response","121","234865","0.0-121.0","84D9F26CEE2E439C8DF233F032D8399F","019cf9a0-59ab-7314-903d-0f09cba5d833","019cf99d-e445-78ae-88d0-91fe39b758eb","","null","<div style=""background-color: white; width: 100vw; height: 100vh;""></div>","null","","","","","","","","","",""
"","","","","","html-keyboard-response","122","235866","0.0-122.0","84D9F26CEE2E439C8DF233F032D8399F","019cf9a0-59ab-7314-903d-0f09cba5d833","019cf99d-e445-78ae-88d0-91fe39b758eb","","null","
                <div class=""stimulus-container"">
                    <img src=""images/causal_sequence/saving_a_cat_causal/saving_a_cat_causal_1.png"" class=""exp-image"">
                    <div class=""question-area""></div> 
                </div>","null","","","","","","","","","",""
"","","","","","html-button-response","123","236358","0.0-123.0","84D9F26CEE2E439C8DF233F032D8399F","019cf9a0-59ab-7314-903d-0f09cba5d833","019cf99d-e445-78ae-88d0-91fe39b758eb","","489","
                <div class=""stimulus-container"">
                    <img src=""images/causal_sequence/saving_a_cat_causal/saving_a_cat_causal_1.png"" class=""exp-image"">
                    <div class=""question-area"">
                        <p style=""font-size: 20px; font-weight: bold; margin: 0;"">Is there a person in this image?</p>
                    </div>
                </div>","0","main_experiment_trial","1","saving_a_cat_causal","causal_sequence","randomized","","","","",""
"","","","","","html-keyboard-response","124","237361","0.0-124.0","84D9F26CEE2E439C8DF233F032D8399F","019cf9a0-59ab-7314-903d-0f09cba5d833","019cf99d-e445-78ae-88d0-91fe39b758eb","","null","
                <div class=""stimulus-container"">
                    <img src=""images/causal_sequence/saving_a_cat_causal/saving_a_cat_causal_8.png"" class=""exp-image"">
                    <div class=""question-area""></div> 
                </div>","null","","","","","","","","","",""
"","","","","","html-button-response","125","237861","0.0-125.0","84D9F26CEE2E439C8DF233F032D8399F","019cf9a0-59ab-7314-903d-0f09cba5d833","019cf99d-e445-78ae-88d0-91fe39b758eb","","498","
                <div class=""stimulus-container"">
                    <img src=""images/causal_sequence/saving_a_cat_causal/saving_a_cat_causal_8.png"" class=""exp-image"">
                    <div class=""question-area"">
                        <p style=""font-size: 20px; font-weight: bold; margin: 0;"">Is there a person in this image?</p>
                    </div>
                </div>","0","main_experiment_trial","8","saving_a_cat_causal","causal_sequence","randomized","","","","",""
"","","","","","html-keyboard-response","126","238863","0.0-126.0","84D9F26CEE2E439C8DF233F032D8399F","019cf9a0-59ab-7314-903d-0f09cba5d833","019cf99d-e445-78ae-88d0-91fe39b758eb","","null","
                <div class=""stimulus-container"">
                    <img src=""images/causal_sequence/saving_a_cat_causal/saving_a_cat_causal_ten.png"" class=""exp-image"">
                    <div class=""question-area""></div> 
                </div>","null","","","","","","","","","",""
"","","","","","html-button-response","127","239283","0.0-127.0","84D9F26CEE2E439C8DF233F032D8399F","019cf9a0-59ab-7314-903d-0f09cba5d833","019cf99d-e445-78ae-88d0-91fe39b758eb","","418","
                <div class=""stimulus-container"">
                    <img src=""images/causal_sequence/saving_a_cat_causal/saving_a_cat_causal_ten.png"" class=""exp-image"">
                    <div class=""question-area"">
                        <p style=""font-size: 20px; font-weight: bold; margin: 0;"">Is there a person in this image?</p>
                    </div>
                </div>","0","main_experiment_trial","ten","saving_a_cat_causal","causal_sequence","randomized","","","","",""
"","","","","","html-keyboard-response","128","240285","0.0-128.0","84D9F26CEE2E439C8DF233F032D8399F","019cf9a0-59ab-7314-903d-0f09cba5d833","019cf99d-e445-78ae-88d0-91fe39b758eb","","null","
                <div class=""stimulus-container"">
                    <img src=""images/causal_sequence/saving_a_cat_causal/saving_a_cat_causal_3.png"" class=""exp-image"">
                    <div class=""question-area""></div> 
                </div>","null","","","","","","","","","",""
"","","","","","html-button-response","129","241140","0.0-129.0","84D9F26CEE2E439C8DF233F032D8399F","019cf9a0-59ab-7314-903d-0f09cba5d833","019cf99d-e445-78ae-88d0-91fe39b758eb","","853","
                <div class=""stimulus-container"">
                    <img src=""images/causal_sequence/saving_a_cat_causal/saving_a_cat_causal_3.png"" class=""exp-image"">
                    <div class=""question-area"">
                        <p style=""font-size: 20px; font-weight: bold; margin: 0;"">Is there a person in this image?</p>
                    </div>
                </div>","1","main_experiment_trial","3","saving_a_cat_causal","causal_sequence","randomized","","","","",""
"","","","","","html-keyboard-response","130","242142","0.0-130.0","84D9F26CEE2E439C8DF233F032D8399F","019cf9a0-59ab-7314-903d-0f09cba5d833","019cf99d-e445-78ae-88d0-91fe39b758eb","","null","
                <div class=""stimulus-container"">
                    <img src=""images/causal_sequence/saving_a_cat_causal/saving_a_cat_causal_4.png"" class=""exp-image"">
                    <div class=""question-area""></div> 
                </div>","null","","","","","","","","","",""
"","","","","","html-button-response","131","242553","0.0-131.0","84D9F26CEE2E439C8DF233F032D8399F","019cf9a0-59ab-7314-903d-0f09cba5d833","019cf99d-e445-78ae-88d0-91fe39b758eb","","408","
                <div class=""stimulus-container"">
                    <img src=""images/causal_sequence/saving_a_cat_causal/saving_a_cat_causal_4.png"" class=""exp-image"">
                    <div class=""question-area"">
                        <p style=""font-size: 20px; font-weight: bold; margin: 0;"">Is there a person in this image?</p>
                    </div>
                </div>","0","main_experiment_trial","4","saving_a_cat_causal","causal_sequence","randomized","","","","",""
"","","","","","html-keyboard-response","132","243556","0.0-132.0","84D9F26CEE2E439C8DF233F032D8399F","019cf9a0-59ab-7314-903d-0f09cba5d833","019cf99d-e445-78ae-88d0-91fe39b758eb","","null","
                <div class=""stimulus-container"">
                    <img src=""images/causal_sequence/saving_a_cat_causal/saving_a_cat_causal_5.png"" class=""exp-image"">
                    <div class=""question-area""></div> 
                </div>","null","","","","","","","","","",""
"","","","","","html-button-response","133","244015","0.0-133.0","84D9F26CEE2E439C8DF233F032D8399F","019cf9a0-59ab-7314-903d-0f09cba5d833","019cf99d-e445-78ae-88d0-91fe39b758eb","","457","
                <div class=""stimulus-container"">
                    <img src=""images/causal_sequence/saving_a_cat_causal/saving_a_cat_causal_5.png"" class=""exp-image"">
                    <div class=""question-area"">
                        <p style=""font-size: 20px; font-weight: bold; margin: 0;"">Is there a person in this image?</p>
                    </div>
                </div>","0","main_experiment_trial","5","saving_a_cat_causal","causal_sequence","randomized","","","","",""
"","","","","","html-keyboard-response","134","245018","0.0-134.0","84D9F26CEE2E439C8DF233F032D8399F","019cf9a0-59ab-7314-903d-0f09cba5d833","019cf99d-e445-78ae-88d0-91fe39b758eb","","null","
                <div class=""stimulus-container"">
                    <img src=""images/causal_sequence/saving_a_cat_causal/saving_a_cat_causal_6.png"" class=""exp-image"">
                    <div class=""question-area""></div> 
                </div>","null","","","","","","","","","",""
"","","","","","html-button-response","135","245430","0.0-135.0","84D9F26CEE2E439C8DF233F032D8399F","019cf9a0-59ab-7314-903d-0f09cba5d833","019cf99d-e445-78ae-88d0-91fe39b758eb","","410","
                <div class=""stimulus-container"">
                    <img src=""images/causal_sequence/saving_a_cat_causal/saving_a_cat_causal_6.png"" class=""exp-image"">
                    <div class=""question-area"">
                        <p style=""font-size: 20px; font-weight: bold; margin: 0;"">Is there a person in this image?</p>
                    </div>
                </div>","0","main_experiment_trial","6","saving_a_cat_causal","causal_sequence","randomized","","","","",""
"","","","","","html-keyboard-response","136","246433","0.0-136.0","84D9F26CEE2E439C8DF233F032D8399F","019cf9a0-59ab-7314-903d-0f09cba5d833","019cf99d-e445-78ae-88d0-91fe39b758eb","","null","
                <div class=""stimulus-container"">
                    <img src=""images/causal_sequence/saving_a_cat_causal/saving_a_cat_causal_9.png"" class=""exp-image"">
                    <div class=""question-area""></div> 
                </div>","null","","","","","","","","","",""
"","","","","","html-button-response","137","247114","0.0-137.0","84D9F26CEE2E439C8DF233F032D8399F","019cf9a0-59ab-7314-903d-0f09cba5d833","019cf99d-e445-78ae-88d0-91fe39b758eb","","677","
                <div class=""stimulus-container"">
                    <img src=""images/causal_sequence/saving_a_cat_causal/saving_a_cat_causal_9.png"" class=""exp-image"">
                    <div class=""question-area"">
                        <p style=""font-size: 20px; font-weight: bold; margin: 0;"">Is there a person in this image?</p>
                    </div>
                </div>","0","main_experiment_trial","9","saving_a_cat_causal","causal_sequence","randomized","","","","",""
"","","","","","html-keyboard-response","138","248116","0.0-138.0","84D9F26CEE2E439C8DF233F032D8399F","019cf9a0-59ab-7314-903d-0f09cba5d833","019cf99d-e445-78ae-88d0-91fe39b758eb","","null","
                <div class=""stimulus-container"">
                    <img src=""images/causal_sequence/saving_a_cat_causal/saving_a_cat_causal_7.png"" class=""exp-image"">
                    <div class=""question-area""></div> 
                </div>","null","","","","","","","","","",""
"","","","","","html-button-response","139","248295","0.0-139.0","84D9F26CEE2E439C8DF233F032D8399F","019cf9a0-59ab-7314-903d-0f09cba5d833","019cf99d-e445-78ae-88d0-91fe39b758eb","","178","
                <div class=""stimulus-container"">
                    <img src=""images/causal_sequence/saving_a_cat_causal/saving_a_cat_causal_7.png"" class=""exp-image"">
                    <div class=""question-area"">
                        <p style=""font-size: 20px; font-weight: bold; margin: 0;"">Is there a person in this image?</p>
                    </div>
                </div>","0","main_experiment_trial","7","saving_a_cat_causal","causal_sequence","randomized","","","","",""
"","","","","","html-keyboard-response","140","249297","0.0-140.0","84D9F26CEE2E439C8DF233F032D8399F","019cf9a0-59ab-7314-903d-0f09cba5d833","019cf99d-e445-78ae-88d0-91fe39b758eb","","null","
                <div class=""stimulus-container"">
                    <img src=""images/causal_sequence/saving_a_cat_causal/saving_a_cat_causal_2.png"" class=""exp-image"">
                    <div class=""question-area""></div> 
                </div>","null","","","","","","","","","",""
"","","","","","html-button-response","141","249981","0.0-141.0","84D9F26CEE2E439C8DF233F032D8399F","019cf9a0-59ab-7314-903d-0f09cba5d833","019cf99d-e445-78ae-88d0-91fe39b758eb","","681","
                <div class=""stimulus-container"">
                    <img src=""images/causal_sequence/saving_a_cat_causal/saving_a_cat_causal_2.png"" class=""exp-image"">
                    <div class=""question-area"">
                        <p style=""font-size: 20px; font-weight: bold; margin: 0;"">Is there a person in this image?</p>
                    </div>
                </div>","1","main_experiment_trial","2","saving_a_cat_causal","causal_sequence","randomized","","","","",""
"","","","","","html-keyboard-response","142","254983","0.0-142.0","84D9F26CEE2E439C8DF233F032D8399F","019cf9a0-59ab-7314-903d-0f09cba5d833","019cf99d-e445-78ae-88d0-91fe39b758eb","","null","<div style=""background-color: white; width: 100vw; height: 100vh;""></div>","null","","","","","","","","","",""
"","","","","","html-keyboard-response","143","255984","0.0-143.0","84D9F26CEE2E439C8DF233F032D8399F","019cf9a0-59ab-7314-903d-0f09cba5d833","019cf99d-e445-78ae-88d0-91fe39b758eb","","null","
                <div class=""stimulus-container"">
                    <img src=""images/causal_sequence/coin_causal/coin_causal_2.png"" class=""exp-image"">
                    <div class=""question-area""></div> 
                </div>","null","","","","","","","","","",""
"","","","","","html-button-response","144","256484","0.0-144.0","84D9F26CEE2E439C8DF233F032D8399F","019cf9a0-59ab-7314-903d-0f09cba5d833","019cf99d-e445-78ae-88d0-91fe39b758eb","","498","
                <div class=""stimulus-container"">
                    <img src=""images/causal_sequence/coin_causal/coin_causal_2.png"" class=""exp-image"">
                    <div class=""question-area"">
                        <p style=""font-size: 20px; font-weight: bold; margin: 0;"">Is there a person in this image?</p>
                    </div>
                </div>","0","main_experiment_trial","2","coin_causal","causal_sequence","randomized","","","","",""
"","","","","","html-keyboard-response","145","257486","0.0-145.0","84D9F26CEE2E439C8DF233F032D8399F","019cf9a0-59ab-7314-903d-0f09cba5d833","019cf99d-e445-78ae-88d0-91fe39b758eb","","null","
                <div class=""stimulus-container"">
                    <img src=""images/causal_sequence/coin_causal/coin_causal_7.png"" class=""exp-image"">
                    <div class=""question-area""></div> 
                </div>","null","","","","","","","","","",""
"","","","","","html-button-response","146","257926","0.0-146.0","84D9F26CEE2E439C8DF233F032D8399F","019cf9a0-59ab-7314-903d-0f09cba5d833","019cf99d-e445-78ae-88d0-91fe39b758eb","","438","
                <div class=""stimulus-container"">
                    <img src=""images/causal_sequence/coin_causal/coin_causal_7.png"" class=""exp-image"">
                    <div class=""question-area"">
                        <p style=""font-size: 20px; font-weight: bold; margin: 0;"">Is there a person in this image?</p>
                    </div>
                </div>","1","main_experiment_trial","7","coin_causal","causal_sequence","randomized","","","","",""
"","","","","","html-keyboard-response","147","258928","0.0-147.0","84D9F26CEE2E439C8DF233F032D8399F","019cf9a0-59ab-7314-903d-0f09cba5d833","019cf99d-e445-78ae-88d0-91fe39b758eb","","null","
                <div class=""stimulus-container"">
                    <img src=""images/causal_sequence/coin_causal/coin_causal_3.png"" class=""exp-image"">
                    <div class=""question-area""></div> 
                </div>","null","","","","","","","","","",""
"","","","","","html-button-response","148","259421","0.0-148.0","84D9F26CEE2E439C8DF233F032D8399F","019cf9a0-59ab-7314-903d-0f09cba5d833","019cf99d-e445-78ae-88d0-91fe39b758eb","","490","
                <div class=""stimulus-container"">
                    <img src=""images/causal_sequence/coin_causal/coin_causal_3.png"" class=""exp-image"">
                    <div class=""question-area"">
                        <p style=""font-size: 20px; font-weight: bold; margin: 0;"">Is there a person in this image?</p>
                    </div>
                </div>","0","main_experiment_trial","3","coin_causal","causal_sequence","randomized","","","","",""
"","","","","","html-keyboard-response","149","260424","0.0-149.0","84D9F26CEE2E439C8DF233F032D8399F","019cf9a0-59ab-7314-903d-0f09cba5d833","019cf99d-e445-78ae-88d0-91fe39b758eb","","null","
                <div class=""stimulus-container"">
                    <img src=""images/causal_sequence/coin_causal/coin_causal_1.png"" class=""exp-image"">
                    <div class=""question-area""></div> 
                </div>","null","","","","","","","","","",""
"","","","","","html-button-response","150","260803","0.0-150.0","84D9F26CEE2E439C8DF233F032D8399F","019cf9a0-59ab-7314-903d-0f09cba5d833","019cf99d-e445-78ae-88d0-91fe39b758eb","","376","
                <div class=""stimulus-container"">
                    <img src=""images/causal_sequence/coin_causal/coin_causal_1.png"" class=""exp-image"">
                    <div class=""question-area"">
                        <p style=""font-size: 20px; font-weight: bold; margin: 0;"">Is there a person in this image?</p>
                    </div>
                </div>","0","main_experiment_trial","1","coin_causal","causal_sequence","randomized","","","","",""
"","","","","","html-keyboard-response","151","261805","0.0-151.0","84D9F26CEE2E439C8DF233F032D8399F","019cf9a0-59ab-7314-903d-0f09cba5d833","019cf99d-e445-78ae-88d0-91fe39b758eb","","null","
                <div class=""stimulus-container"">
                    <img src=""images/causal_sequence/coin_causal/coin_causal_4.png"" class=""exp-image"">
                    <div class=""question-area""></div> 
                </div>","null","","","","","","","","","",""
"","","","","","html-button-response","152","262205","0.0-152.0","84D9F26CEE2E439C8DF233F032D8399F","019cf9a0-59ab-7314-903d-0f09cba5d833","019cf99d-e445-78ae-88d0-91fe39b758eb","","397","
                <div class=""stimulus-container"">
                    <img src=""images/causal_sequence/coin_causal/coin_causal_4.png"" class=""exp-image"">
                    <div class=""question-area"">
                        <p style=""font-size: 20px; font-weight: bold; margin: 0;"">Is there a person in this image?</p>
                    </div>
                </div>","0","main_experiment_trial","4","coin_causal","causal_sequence","randomized","","","","",""
"","","","","","html-keyboard-response","153","263207","0.0-153.0","84D9F26CEE2E439C8DF233F032D8399F","019cf9a0-59ab-7314-903d-0f09cba5d833","019cf99d-e445-78ae-88d0-91fe39b758eb","","null","
                <div class=""stimulus-container"">
                    <img src=""images/causal_sequence/coin_causal/coin_causal_6.png"" class=""exp-image"">
                    <div class=""question-area""></div> 
                </div>","null","","","","","","","","","",""
"","","","","","html-button-response","154","263560","0.0-154.0","84D9F26CEE2E439C8DF233F032D8399F","019cf9a0-59ab-7314-903d-0f09cba5d833","019cf99d-e445-78ae-88d0-91fe39b758eb","","351","
                <div class=""stimulus-container"">
                    <img src=""images/causal_sequence/coin_causal/coin_causal_6.png"" class=""exp-image"">
                    <div class=""question-area"">
                        <p style=""font-size: 20px; font-weight: bold; margin: 0;"">Is there a person in this image?</p>
                    </div>
                </div>","0","main_experiment_trial","6","coin_causal","causal_sequence","randomized","","","","",""
"","","","","","html-keyboard-response","155","264562","0.0-155.0","84D9F26CEE2E439C8DF233F032D8399F","019cf9a0-59ab-7314-903d-0f09cba5d833","019cf99d-e445-78ae-88d0-91fe39b758eb","","null","
                <div class=""stimulus-container"">
                    <img src=""images/causal_sequence/coin_causal/coin_causal_5.png"" class=""exp-image"">
                    <div class=""question-area""></div> 
                </div>","null","","","","","","","","","",""
"","","","","","html-button-response","156","264971","0.0-156.0","84D9F26CEE2E439C8DF233F032D8399F","019cf9a0-59ab-7314-903d-0f09cba5d833","019cf99d-e445-78ae-88d0-91fe39b758eb","","406","
                <div class=""stimulus-container"">
                    <img src=""images/causal_sequence/coin_causal/coin_causal_5.png"" class=""exp-image"">
                    <div class=""question-area"">
                        <p style=""font-size: 20px; font-weight: bold; margin: 0;"">Is there a person in this image?</p>
                    </div>
                </div>","0","main_experiment_trial","5","coin_causal","causal_sequence","randomized","","","","",""
"","","","","","html-keyboard-response","157","265973","0.0-157.0","84D9F26CEE2E439C8DF233F032D8399F","019cf9a0-59ab-7314-903d-0f09cba5d833","019cf99d-e445-78ae-88d0-91fe39b758eb","","null","
                <div class=""stimulus-container"">
                    <img src=""images/causal_sequence/coin_causal/coin_causal_9.png"" class=""exp-image"">
                    <div class=""question-area""></div> 
                </div>","null","","","","","","","","","",""
"","","","","","html-button-response","158","266404","0.0-158.0","84D9F26CEE2E439C8DF233F032D8399F","019cf9a0-59ab-7314-903d-0f09cba5d833","019cf99d-e445-78ae-88d0-91fe39b758eb","","428","
                <div class=""stimulus-container"">
                    <img src=""images/causal_sequence/coin_causal/coin_causal_9.png"" class=""exp-image"">
                    <div class=""question-area"">
                        <p style=""font-size: 20px; font-weight: bold; margin: 0;"">Is there a person in this image?</p>
                    </div>
                </div>","0","main_experiment_trial","9","coin_causal","causal_sequence","randomized","","","","",""
"","","","","","html-keyboard-response","159","267407","0.0-159.0","84D9F26CEE2E439C8DF233F032D8399F","019cf9a0-59ab-7314-903d-0f09cba5d833","019cf99d-e445-78ae-88d0-91fe39b758eb","","null","
                <div class=""stimulus-container"">
                    <img src=""images/causal_sequence/coin_causal/coin_causal_ten.png"" class=""exp-image"">
                    <div class=""question-area""></div> 
                </div>","null","","","","","","","","","",""
"","","","","","html-button-response","160","267739","0.0-160.0","84D9F26CEE2E439C8DF233F032D8399F","019cf9a0-59ab-7314-903d-0f09cba5d833","019cf99d-e445-78ae-88d0-91fe39b758eb","","329","
                <div class=""stimulus-container"">
                    <img src=""images/causal_sequence/coin_causal/coin_causal_ten.png"" class=""exp-image"">
                    <div class=""question-area"">
                        <p style=""font-size: 20px; font-weight: bold; margin: 0;"">Is there a person in this image?</p>
                    </div>
                </div>","0","main_experiment_trial","ten","coin_causal","causal_sequence","randomized","","","","",""
"","","","","","html-keyboard-response","161","268741","0.0-161.0","84D9F26CEE2E439C8DF233F032D8399F","019cf9a0-59ab-7314-903d-0f09cba5d833","019cf99d-e445-78ae-88d0-91fe39b758eb","","null","
                <div class=""stimulus-container"">
                    <img src=""images/causal_sequence/coin_causal/coin_causal_8.png"" class=""exp-image"">
                    <div class=""question-area""></div> 
                </div>","null","","","","","","","","","",""
"","","","","","html-button-response","162","269182","0.0-162.0","84D9F26CEE2E439C8DF233F032D8399F","019cf9a0-59ab-7314-903d-0f09cba5d833","019cf99d-e445-78ae-88d0-91fe39b758eb","","438","
                <div class=""stimulus-container"">
                    <img src=""images/causal_sequence/coin_causal/coin_causal_8.png"" class=""exp-image"">
                    <div class=""question-area"">
                        <p style=""font-size: 20px; font-weight: bold; margin: 0;"">Is there a person in this image?</p>
                    </div>
                </div>","0","main_experiment_trial","8","coin_causal","causal_sequence","randomized","","","","",""
"","","","","","html-keyboard-response","163","274184","0.0-163.0","84D9F26CEE2E439C8DF233F032D8399F","019cf9a0-59ab-7314-903d-0f09cba5d833","019cf99d-e445-78ae-88d0-91fe39b758eb","","null","<div style=""background-color: white; width: 100vw; height: 100vh;""></div>","null","","","","","","","","","",""
"","","","","","html-keyboard-response","164","275186","0.0-164.0","84D9F26CEE2E439C8DF233F032D8399F","019cf9a0-59ab-7314-903d-0f09cba5d833","019cf99d-e445-78ae-88d0-91fe39b758eb","","null","
                <div class=""stimulus-container"">
                    <img src=""images/semantic_sequence/exploring_nature_semantic/exploring_nature_semantic_1.png"" class=""exp-image"">
                    <div class=""question-area""></div> 
                </div>","null","","","","","","","","","",""
"","","","","","html-button-response","165","275584","0.0-165.0","84D9F26CEE2E439C8DF233F032D8399F","019cf9a0-59ab-7314-903d-0f09cba5d833","019cf99d-e445-78ae-88d0-91fe39b758eb","","396","
                <div class=""stimulus-container"">
                    <img src=""images/semantic_sequence/exploring_nature_semantic/exploring_nature_semantic_1.png"" class=""exp-image"">
                    <div class=""question-area"">
                        <p style=""font-size: 20px; font-weight: bold; margin: 0;"">Is there a person in this image?</p>
                    </div>
                </div>","0","main_experiment_trial","1","exploring_nature_semantic","semantic_sequence","randomized","","","","",""
"","","","","","html-keyboard-response","166","276586","0.0-166.0","84D9F26CEE2E439C8DF233F032D8399F","019cf9a0-59ab-7314-903d-0f09cba5d833","019cf99d-e445-78ae-88d0-91fe39b758eb","","null","
                <div class=""stimulus-container"">
                    <img src=""images/semantic_sequence/exploring_nature_semantic/exploring_nature_semantic_9.png"" class=""exp-image"">
                    <div class=""question-area""></div> 
                </div>","null","","","","","","","","","",""
"","","","","","html-button-response","167","276908","0.0-167.0","84D9F26CEE2E439C8DF233F032D8399F","019cf9a0-59ab-7314-903d-0f09cba5d833","019cf99d-e445-78ae-88d0-91fe39b758eb","","318","
                <div class=""stimulus-container"">
                    <img src=""images/semantic_sequence/exploring_nature_semantic/exploring_nature_semantic_9.png"" class=""exp-image"">
                    <div class=""question-area"">
                        <p style=""font-size: 20px; font-weight: bold; margin: 0;"">Is there a person in this image?</p>
                    </div>
                </div>","0","main_experiment_trial","9","exploring_nature_semantic","semantic_sequence","randomized","","","","",""
"","","","","","html-keyboard-response","168","277910","0.0-168.0","84D9F26CEE2E439C8DF233F032D8399F","019cf9a0-59ab-7314-903d-0f09cba5d833","019cf99d-e445-78ae-88d0-91fe39b758eb","","null","
                <div class=""stimulus-container"">
                    <img src=""images/semantic_sequence/exploring_nature_semantic/exploring_nature_semantic_3.png"" class=""exp-image"">
                    <div class=""question-area""></div> 
                </div>","null","","","","","","","","","",""
"","","","","","html-button-response","169","278208","0.0-169.0","84D9F26CEE2E439C8DF233F032D8399F","019cf9a0-59ab-7314-903d-0f09cba5d833","019cf99d-e445-78ae-88d0-91fe39b758eb","","296","
                <div class=""stimulus-container"">
                    <img src=""images/semantic_sequence/exploring_nature_semantic/exploring_nature_semantic_3.png"" class=""exp-image"">
                    <div class=""question-area"">
                        <p style=""font-size: 20px; font-weight: bold; margin: 0;"">Is there a person in this image?</p>
                    </div>
                </div>","0","main_experiment_trial","3","exploring_nature_semantic","semantic_sequence","randomized","","","","",""
"","","","","","html-keyboard-response","170","279209","0.0-170.0","84D9F26CEE2E439C8DF233F032D8399F","019cf9a0-59ab-7314-903d-0f09cba5d833","019cf99d-e445-78ae-88d0-91fe39b758eb","","null","
                <div class=""stimulus-container"">
                    <img src=""images/semantic_sequence/exploring_nature_semantic/exploring_nature_semantic_ten.png"" class=""exp-image"">
                    <div class=""question-area""></div> 
                </div>","null","","","","","","","","","",""
"","","","","","html-button-response","171","279525","0.0-171.0","84D9F26CEE2E439C8DF233F032D8399F","019cf9a0-59ab-7314-903d-0f09cba5d833","019cf99d-e445-78ae-88d0-91fe39b758eb","","313","
                <div class=""stimulus-container"">
                    <img src=""images/semantic_sequence/exploring_nature_semantic/exploring_nature_semantic_ten.png"" class=""exp-image"">
                    <div class=""question-area"">
                        <p style=""font-size: 20px; font-weight: bold; margin: 0;"">Is there a person in this image?</p>
                    </div>
                </div>","0","main_experiment_trial","ten","exploring_nature_semantic","semantic_sequence","randomized","","","","",""
"","","","","","html-keyboard-response","172","280528","0.0-172.0","84D9F26CEE2E439C8DF233F032D8399F","019cf9a0-59ab-7314-903d-0f09cba5d833","019cf99d-e445-78ae-88d0-91fe39b758eb","","null","
                <div class=""stimulus-container"">
                    <img src=""images/semantic_sequence/exploring_nature_semantic/exploring_nature_semantic_7.png"" class=""exp-image"">
                    <div class=""question-area""></div> 
                </div>","null","","","","","","","","","",""
"","","","","","html-button-response","173","280826","0.0-173.0","84D9F26CEE2E439C8DF233F032D8399F","019cf9a0-59ab-7314-903d-0f09cba5d833","019cf99d-e445-78ae-88d0-91fe39b758eb","","296","
                <div class=""stimulus-container"">
                    <img src=""images/semantic_sequence/exploring_nature_semantic/exploring_nature_semantic_7.png"" class=""exp-image"">
                    <div class=""question-area"">
                        <p style=""font-size: 20px; font-weight: bold; margin: 0;"">Is there a person in this image?</p>
                    </div>
                </div>","0","main_experiment_trial","7","exploring_nature_semantic","semantic_sequence","randomized","","","","",""
"","","","","","html-keyboard-response","174","281829","0.0-174.0","84D9F26CEE2E439C8DF233F032D8399F","019cf9a0-59ab-7314-903d-0f09cba5d833","019cf99d-e445-78ae-88d0-91fe39b758eb","","null","
                <div class=""stimulus-container"">
                    <img src=""images/semantic_sequence/exploring_nature_semantic/exploring_nature_semantic_8.png"" class=""exp-image"">
                    <div class=""question-area""></div> 
                </div>","null","","","","","","","","","",""
"","","","","","html-button-response","175","282392","0.0-175.0","84D9F26CEE2E439C8DF233F032D8399F","019cf9a0-59ab-7314-903d-0f09cba5d833","019cf99d-e445-78ae-88d0-91fe39b758eb","","561","
                <div class=""stimulus-container"">
                    <img src=""images/semantic_sequence/exploring_nature_semantic/exploring_nature_semantic_8.png"" class=""exp-image"">
                    <div class=""question-area"">
                        <p style=""font-size: 20px; font-weight: bold; margin: 0;"">Is there a person in this image?</p>
                    </div>
                </div>","0","main_experiment_trial","8","exploring_nature_semantic","semantic_sequence","randomized","","","","",""
"","","","","","html-keyboard-response","176","283395","0.0-176.0","84D9F26CEE2E439C8DF233F032D8399F","019cf9a0-59ab-7314-903d-0f09cba5d833","019cf99d-e445-78ae-88d0-91fe39b758eb","","null","
                <div class=""stimulus-container"">
                    <img src=""images/semantic_sequence/exploring_nature_semantic/exploring_nature_semantic_4.png"" class=""exp-image"">
                    <div class=""question-area""></div> 
                </div>","null","","","","","","","","","",""
"","","","","","html-button-response","177","283913","0.0-177.0","84D9F26CEE2E439C8DF233F032D8399F","019cf9a0-59ab-7314-903d-0f09cba5d833","019cf99d-e445-78ae-88d0-91fe39b758eb","","516","
                <div class=""stimulus-container"">
                    <img src=""images/semantic_sequence/exploring_nature_semantic/exploring_nature_semantic_4.png"" class=""exp-image"">
                    <div class=""question-area"">
                        <p style=""font-size: 20px; font-weight: bold; margin: 0;"">Is there a person in this image?</p>
                    </div>
                </div>","0","main_experiment_trial","4","exploring_nature_semantic","semantic_sequence","randomized","","","","",""
"","","","","","html-keyboard-response","178","284915","0.0-178.0","84D9F26CEE2E439C8DF233F032D8399F","019cf9a0-59ab-7314-903d-0f09cba5d833","019cf99d-e445-78ae-88d0-91fe39b758eb","","null","
                <div class=""stimulus-container"">
                    <img src=""images/semantic_sequence/exploring_nature_semantic/exploring_nature_semantic_5.png"" class=""exp-image"">
                    <div class=""question-area""></div> 
                </div>","null","","","","","","","","","",""
"","","","","","html-button-response","179","285283","0.0-179.0","84D9F26CEE2E439C8DF233F032D8399F","019cf9a0-59ab-7314-903d-0f09cba5d833","019cf99d-e445-78ae-88d0-91fe39b758eb","","366","
                <div class=""stimulus-container"">
                    <img src=""images/semantic_sequence/exploring_nature_semantic/exploring_nature_semantic_5.png"" class=""exp-image"">
                    <div class=""question-area"">
                        <p style=""font-size: 20px; font-weight: bold; margin: 0;"">Is there a person in this image?</p>
                    </div>
                </div>","0","main_experiment_trial","5","exploring_nature_semantic","semantic_sequence","randomized","","","","",""
"","","","","","html-keyboard-response","180","286285","0.0-180.0","84D9F26CEE2E439C8DF233F032D8399F","019cf9a0-59ab-7314-903d-0f09cba5d833","019cf99d-e445-78ae-88d0-91fe39b758eb","","null","
                <div class=""stimulus-container"">
                    <img src=""images/semantic_sequence/exploring_nature_semantic/exploring_nature_semantic_2.png"" class=""exp-image"">
                    <div class=""question-area""></div> 
                </div>","null","","","","","","","","","",""
"","","","","","html-button-response","181","286571","0.0-181.0","84D9F26CEE2E439C8DF233F032D8399F","019cf9a0-59ab-7314-903d-0f09cba5d833","019cf99d-e445-78ae-88d0-91fe39b758eb","","283","
                <div class=""stimulus-container"">
