"success","timeout","failed_images","failed_audio","failed_video","trial_type","trial_index","time_elapsed","internal_node_id","subject_id","study_id","session_id","view_history","rt","stimulus","response","task","image_index","folder","valuable_image_index","valuable_X","chosen_image_index","distance_from_X"
"false","false","[]","[]","[]","preload","0","4029","0.0-0.0","5F1A52C86AF248B5BE88E6175692917B","019ce67b-61f4-7f3a-8f2c-7da3f2aa62a4","019ce643-47c6-74a0-b3d2-7bf5651ded46","","","","","","","","","","",""
"","","","","","instructions","1","32239","0.0-1.0","5F1A52C86AF248B5BE88E6175692917B","019ce67b-61f4-7f3a-8f2c-7da3f2aa62a4","019ce643-47c6-74a0-b3d2-7bf5651ded46","[{""page_index"":0,""viewing_time"":28208}]","28209","","","","","","","","",""
"","","","","","instructions","2","34374","0.0-2.0","5F1A52C86AF248B5BE88E6175692917B","019ce67b-61f4-7f3a-8f2c-7da3f2aa62a4","019ce643-47c6-74a0-b3d2-7bf5651ded46","[{""page_index"":0,""viewing_time"":2135}]","2135","","","","","","","","",""
"true","","","","","fullscreen","3","41396","0.0-3.0","5F1A52C86AF248B5BE88E6175692917B","019ce67b-61f4-7f3a-8f2c-7da3f2aa62a4","019ce643-47c6-74a0-b3d2-7bf5651ded46","","6006","","","","","","","","",""
"","","","","","instructions","4","45228","0.0-4.0","5F1A52C86AF248B5BE88E6175692917B","019ce67b-61f4-7f3a-8f2c-7da3f2aa62a4","019ce643-47c6-74a0-b3d2-7bf5651ded46","[{""page_index"":0,""viewing_time"":3831}]","3831","","","","","","","","",""
"","","","","","instructions","5","49277","0.0-5.0","5F1A52C86AF248B5BE88E6175692917B","019ce67b-61f4-7f3a-8f2c-7da3f2aa62a4","019ce643-47c6-74a0-b3d2-7bf5651ded46","[{""page_index"":0,""viewing_time"":4049}]","4049","","","","","","","","",""
"","","","","","html-keyboard-response","6","53289","0.0-6.0","5F1A52C86AF248B5BE88E6175692917B","019ce67b-61f4-7f3a-8f2c-7da3f2aa62a4","019ce643-47c6-74a0-b3d2-7bf5651ded46","","null","
                <div class=""stimulus-container"">
                    <img src=""images/instructions/movie_1.png"" class=""exp-image"">
                    <div class=""question-area""></div> 
                </div>","null","","","","","","",""
"","","","","","html-button-response","7","55296","0.0-7.0","5F1A52C86AF248B5BE88E6175692917B","019ce67b-61f4-7f3a-8f2c-7da3f2aa62a4","019ce643-47c6-74a0-b3d2-7bf5651ded46","","2005","
                <div class=""stimulus-container"">
                    <img src=""images/instructions/movie_1.png"" class=""exp-image"">
                    <div class=""question-area"">
                        <p style=""font-size: 20px; font-weight: bold; margin: 0;"">Was there a person in this image?</p>
                    </div>
                </div>","0","example_question","1","","","","",""
"","","","","","html-keyboard-response","8","59312","0.0-8.0","5F1A52C86AF248B5BE88E6175692917B","019ce67b-61f4-7f3a-8f2c-7da3f2aa62a4","019ce643-47c6-74a0-b3d2-7bf5651ded46","","null","
                <div class=""stimulus-container"">
                    <img src=""images/instructions/movie_2.png"" class=""exp-image"">
                    <div class=""question-area""></div> 
                </div>","null","","","","","","",""
"","","","","","html-button-response","9","61834","0.0-9.0","5F1A52C86AF248B5BE88E6175692917B","019ce67b-61f4-7f3a-8f2c-7da3f2aa62a4","019ce643-47c6-74a0-b3d2-7bf5651ded46","","2520","
                <div class=""stimulus-container"">
                    <img src=""images/instructions/movie_2.png"" class=""exp-image"">
                    <div class=""question-area"">
                        <p style=""font-size: 20px; font-weight: bold; margin: 0;"">Was there a person in this image?</p>
                    </div>
                </div>","0","example_question","2","","","","",""
"","","","","","html-keyboard-response","10","65845","0.0-10.0","5F1A52C86AF248B5BE88E6175692917B","019ce67b-61f4-7f3a-8f2c-7da3f2aa62a4","019ce643-47c6-74a0-b3d2-7bf5651ded46","","null","
                <div class=""stimulus-container"">
                    <img src=""images/instructions/movie_3.png"" class=""exp-image"">
                    <div class=""question-area""></div> 
                </div>","null","","","","","","",""
"","","","","","html-button-response","11","67218","0.0-11.0","5F1A52C86AF248B5BE88E6175692917B","019ce67b-61f4-7f3a-8f2c-7da3f2aa62a4","019ce643-47c6-74a0-b3d2-7bf5651ded46","","1372","
                <div class=""stimulus-container"">
                    <img src=""images/instructions/movie_3.png"" class=""exp-image"">
                    <div class=""question-area"">
                        <p style=""font-size: 20px; font-weight: bold; margin: 0;"">Was there a person in this image?</p>
                    </div>
                </div>","0","example_question","3","","","","",""
"","","","","","html-keyboard-response","12","71233","0.0-12.0","5F1A52C86AF248B5BE88E6175692917B","019ce67b-61f4-7f3a-8f2c-7da3f2aa62a4","019ce643-47c6-74a0-b3d2-7bf5651ded46","","null","
                <div class=""stimulus-container"">
                    <img src=""images/instructions/movie_4.png"" class=""exp-image"">
                    <div class=""question-area""></div> 
                </div>","null","","","","","","",""
"","","","","","html-button-response","13","74236","0.0-13.0","5F1A52C86AF248B5BE88E6175692917B","019ce67b-61f4-7f3a-8f2c-7da3f2aa62a4","019ce643-47c6-74a0-b3d2-7bf5651ded46","","null","
                <div class=""stimulus-container"">
                    <img src=""images/instructions/movie_4.png"" class=""exp-image"">
                    <div class=""question-area"">
                        <p style=""font-size: 20px; font-weight: bold; margin: 0;"">Was there a person in this image?</p>
                    </div>
                </div>","null","example_question","4","","","","",""
"","","","","","instructions","14","76391","0.0-14.0","5F1A52C86AF248B5BE88E6175692917B","019ce67b-61f4-7f3a-8f2c-7da3f2aa62a4","019ce643-47c6-74a0-b3d2-7bf5651ded46","[{""page_index"":0,""viewing_time"":2155}]","2155","","","","","","","","",""
"","","","","","html-keyboard-response","15","77404","0.0-15.0","5F1A52C86AF248B5BE88E6175692917B","019ce67b-61f4-7f3a-8f2c-7da3f2aa62a4","019ce643-47c6-74a0-b3d2-7bf5651ded46","","null","<div style=""background-color: gray; width: 100vw; height: 100vh;""></div>","null","","","","","","",""
"","","","","","html-keyboard-response","16","82406","0.0-16.0","5F1A52C86AF248B5BE88E6175692917B","019ce67b-61f4-7f3a-8f2c-7da3f2aa62a4","019ce643-47c6-74a0-b3d2-7bf5651ded46","","null","
                    <div class=""stimulus-container"">
                        <img src=""images/causal_sequence/package_causal/package_causal_1.png"" class=""exp-image"">
                        <div class=""question-area""></div> 
                    </div>","null","","","","","","",""
"","","","","","html-button-response","17","83674","0.0-17.0","5F1A52C86AF248B5BE88E6175692917B","019ce67b-61f4-7f3a-8f2c-7da3f2aa62a4","019ce643-47c6-74a0-b3d2-7bf5651ded46","","1266","
                    <div class=""stimulus-container"">
                        <img src=""images/causal_sequence/package_causal/package_causal_1.png"" class=""exp-image"">
                        <div class=""question-area"">
                            <p style=""font-size: 20px; font-weight: bold; margin: 0;"">Is there a person in this image?</p>
                        </div>
                    </div>","0","main_causal_task","1","package_causal","","","",""
"","","","","","html-keyboard-response","18","88676","0.0-18.0","5F1A52C86AF248B5BE88E6175692917B","019ce67b-61f4-7f3a-8f2c-7da3f2aa62a4","019ce643-47c6-74a0-b3d2-7bf5651ded46","","null","
                    <div class=""stimulus-container"">
                        <img src=""images/causal_sequence/package_causal/package_causal_2.png"" class=""exp-image"">
                        <div class=""question-area""></div> 
                    </div>","null","","","","","","",""
"","","","","","html-button-response","19","91241","0.0-19.0","5F1A52C86AF248B5BE88E6175692917B","019ce67b-61f4-7f3a-8f2c-7da3f2aa62a4","019ce643-47c6-74a0-b3d2-7bf5651ded46","","2564","
                    <div class=""stimulus-container"">
                        <img src=""images/causal_sequence/package_causal/package_causal_2.png"" class=""exp-image"">
                        <div class=""question-area"">
                            <p style=""font-size: 20px; font-weight: bold; margin: 0;"">Is there a person in this image?</p>
                        </div>
                    </div>","0","main_causal_task","2","package_causal","","","",""
"","","","","","html-keyboard-response","20","96245","0.0-20.0","5F1A52C86AF248B5BE88E6175692917B","019ce67b-61f4-7f3a-8f2c-7da3f2aa62a4","019ce643-47c6-74a0-b3d2-7bf5651ded46","","null","
                    <div class=""stimulus-container"">
                        <img src=""images/causal_sequence/package_causal/package_causal_3.png"" class=""exp-image"">
                        <div class=""question-area""></div> 
                    </div>","null","","","","","","",""
"","","","","","html-button-response","21","97556","0.0-21.0","5F1A52C86AF248B5BE88E6175692917B","019ce67b-61f4-7f3a-8f2c-7da3f2aa62a4","019ce643-47c6-74a0-b3d2-7bf5651ded46","","1310","
                    <div class=""stimulus-container"">
                        <img src=""images/causal_sequence/package_causal/package_causal_3.png"" class=""exp-image"">
                        <div class=""question-area"">
                            <p style=""font-size: 20px; font-weight: bold; margin: 0;"">Is there a person in this image?</p>
                        </div>
                    </div>","0","main_causal_task","3","package_causal","","","",""
"","","","","","html-keyboard-response","22","102570","0.0-22.0","5F1A52C86AF248B5BE88E6175692917B","019ce67b-61f4-7f3a-8f2c-7da3f2aa62a4","019ce643-47c6-74a0-b3d2-7bf5651ded46","","null","
                    <div class=""stimulus-container"">
                        <img src=""images/causal_sequence/package_causal/package_causal_4.png"" class=""exp-image"">
                        <div class=""question-area""></div> 
                    </div>","null","","","","","","",""
"","","","","","html-button-response","23","103951","0.0-23.0","5F1A52C86AF248B5BE88E6175692917B","019ce67b-61f4-7f3a-8f2c-7da3f2aa62a4","019ce643-47c6-74a0-b3d2-7bf5651ded46","","1378","
                    <div class=""stimulus-container"">
                        <img src=""images/causal_sequence/package_causal/package_causal_4.png"" class=""exp-image"">
                        <div class=""question-area"">
                            <p style=""font-size: 20px; font-weight: bold; margin: 0;"">Is there a person in this image?</p>
                        </div>
                    </div>","1","main_causal_task","4","package_causal","","","",""
"","","","","","html-keyboard-response","24","108952","0.0-24.0","5F1A52C86AF248B5BE88E6175692917B","019ce67b-61f4-7f3a-8f2c-7da3f2aa62a4","019ce643-47c6-74a0-b3d2-7bf5651ded46","","null","
                    <div class=""stimulus-container"">
                        <img src=""images/causal_sequence/package_causal/package_causal_5.png"" class=""exp-image"">
                        <div class=""question-area""></div> 
                    </div>","null","","","","","","",""
"","","","","","html-button-response","25","110377","0.0-25.0","5F1A52C86AF248B5BE88E6175692917B","019ce67b-61f4-7f3a-8f2c-7da3f2aa62a4","019ce643-47c6-74a0-b3d2-7bf5651ded46","","1424","
                    <div class=""stimulus-container"">
                        <img src=""images/causal_sequence/package_causal/package_causal_5.png"" class=""exp-image"">
                        <div class=""question-area"">
                            <p style=""font-size: 20px; font-weight: bold; margin: 0;"">Is there a person in this image?</p>
                        </div>
                    </div>","0","main_causal_task","5","package_causal","","","",""
"","","","","","html-keyboard-response","26","115382","0.0-26.0","5F1A52C86AF248B5BE88E6175692917B","019ce67b-61f4-7f3a-8f2c-7da3f2aa62a4","019ce643-47c6-74a0-b3d2-7bf5651ded46","","null","
                    <div class=""stimulus-container"">
                        <img src=""images/causal_sequence/package_causal/package_causal_6.png"" class=""exp-image"">
                        <div class=""question-area""></div> 
                    </div>","null","","","","","","",""
"","","","","","html-button-response","27","116818","0.0-27.0","5F1A52C86AF248B5BE88E6175692917B","019ce67b-61f4-7f3a-8f2c-7da3f2aa62a4","019ce643-47c6-74a0-b3d2-7bf5651ded46","","1435","
                    <div class=""stimulus-container"">
                        <img src=""images/causal_sequence/package_causal/package_causal_6.png"" class=""exp-image"">
                        <div class=""question-area"">
                            <p style=""font-size: 20px; font-weight: bold; margin: 0;"">Is there a person in this image?</p>
                        </div>
                    </div>","0","main_causal_task","6","package_causal","","","",""
"","","","","","html-keyboard-response","28","121827","0.0-28.0","5F1A52C86AF248B5BE88E6175692917B","019ce67b-61f4-7f3a-8f2c-7da3f2aa62a4","019ce643-47c6-74a0-b3d2-7bf5651ded46","","null","
                    <div class=""stimulus-container"">
                        <img src=""images/causal_sequence/package_causal/package_causal_7.png"" class=""exp-image"">
                        <div class=""question-area""></div> 
                    </div>","null","","","","","","",""
"","","","","","html-button-response","29","122963","0.0-29.0","5F1A52C86AF248B5BE88E6175692917B","019ce67b-61f4-7f3a-8f2c-7da3f2aa62a4","019ce643-47c6-74a0-b3d2-7bf5651ded46","","1134","
                    <div class=""stimulus-container"">
                        <img src=""images/causal_sequence/package_causal/package_causal_7.png"" class=""exp-image"">
                        <div class=""question-area"">
                            <p style=""font-size: 20px; font-weight: bold; margin: 0;"">Is there a person in this image?</p>
                        </div>
                    </div>","0","main_causal_task","7","package_causal","","","",""
"","","","","","html-keyboard-response","30","127964","0.0-30.0","5F1A52C86AF248B5BE88E6175692917B","019ce67b-61f4-7f3a-8f2c-7da3f2aa62a4","019ce643-47c6-74a0-b3d2-7bf5651ded46","","null","
                    <div class=""stimulus-container"">
                        <img src=""images/causal_sequence/package_causal/package_causal_8.png"" class=""exp-image"">
                        <div class=""question-area""></div> 
                    </div>","null","","","","","","",""
"","","","","","html-button-response","31","128677","0.0-31.0","5F1A52C86AF248B5BE88E6175692917B","019ce67b-61f4-7f3a-8f2c-7da3f2aa62a4","019ce643-47c6-74a0-b3d2-7bf5651ded46","","712","
                    <div class=""stimulus-container"">
                        <img src=""images/causal_sequence/package_causal/package_causal_8.png"" class=""exp-image"">
                        <div class=""question-area"">
                            <p style=""font-size: 20px; font-weight: bold; margin: 0;"">Is there a person in this image?</p>
                        </div>
                    </div>","0","main_causal_task","8","package_causal","","","",""
"","","","","","html-keyboard-response","32","133683","0.0-32.0","5F1A52C86AF248B5BE88E6175692917B","019ce67b-61f4-7f3a-8f2c-7da3f2aa62a4","019ce643-47c6-74a0-b3d2-7bf5651ded46","","null","
                    <div class=""stimulus-container"">
                        <img src=""images/causal_sequence/package_causal/package_causal_9.png"" class=""exp-image"">
                        <div class=""question-area""></div> 
                    </div>","null","","","","","","",""
"","","","","","html-button-response","33","134512","0.0-33.0","5F1A52C86AF248B5BE88E6175692917B","019ce67b-61f4-7f3a-8f2c-7da3f2aa62a4","019ce643-47c6-74a0-b3d2-7bf5651ded46","","827","
                    <div class=""stimulus-container"">
                        <img src=""images/causal_sequence/package_causal/package_causal_9.png"" class=""exp-image"">
                        <div class=""question-area"">
                            <p style=""font-size: 20px; font-weight: bold; margin: 0;"">Is there a person in this image?</p>
                        </div>
                    </div>","0","main_causal_task","9","package_causal","","","",""
"","","","","","html-keyboard-response","34","135526","0.0-34.0","5F1A52C86AF248B5BE88E6175692917B","019ce67b-61f4-7f3a-8f2c-7da3f2aa62a4","019ce643-47c6-74a0-b3d2-7bf5651ded46","","null","<div style=""background-color: gray; width: 100vw; height: 100vh;""></div>","null","","","","","","",""
"","","","","","html-keyboard-response","35","140528","0.0-35.0","5F1A52C86AF248B5BE88E6175692917B","019ce67b-61f4-7f3a-8f2c-7da3f2aa62a4","019ce643-47c6-74a0-b3d2-7bf5651ded46","","null","
                    <div class=""stimulus-container"">
                        <img src=""images/causal_sequence/saving_a_cat_causal/saving_a_cat_causal_1.png"" class=""exp-image"">
                        <div class=""question-area""></div> 
                    </div>","null","","","","","","",""
"","","","","","html-button-response","36","141539","0.0-36.0","5F1A52C86AF248B5BE88E6175692917B","019ce67b-61f4-7f3a-8f2c-7da3f2aa62a4","019ce643-47c6-74a0-b3d2-7bf5651ded46","","1009","
                    <div class=""stimulus-container"">
                        <img src=""images/causal_sequence/saving_a_cat_causal/saving_a_cat_causal_1.png"" class=""exp-image"">
                        <div class=""question-area"">
                            <p style=""font-size: 20px; font-weight: bold; margin: 0;"">Is there a person in this image?</p>
                        </div>
                    </div>","0","main_causal_task","1","saving_a_cat_causal","","","",""
"","","","","","html-keyboard-response","37","146551","0.0-37.0","5F1A52C86AF248B5BE88E6175692917B","019ce67b-61f4-7f3a-8f2c-7da3f2aa62a4","019ce643-47c6-74a0-b3d2-7bf5651ded46","","null","
                    <div class=""stimulus-container"">
                        <img src=""images/causal_sequence/saving_a_cat_causal/saving_a_cat_causal_2.png"" class=""exp-image"">
                        <div class=""question-area""></div> 
                    </div>","null","","","","","","",""
"","","","","","html-button-response","38","147327","0.0-38.0","5F1A52C86AF248B5BE88E6175692917B","019ce67b-61f4-7f3a-8f2c-7da3f2aa62a4","019ce643-47c6-74a0-b3d2-7bf5651ded46","","775","
                    <div class=""stimulus-container"">
                        <img src=""images/causal_sequence/saving_a_cat_causal/saving_a_cat_causal_2.png"" class=""exp-image"">
                        <div class=""question-area"">
                            <p style=""font-size: 20px; font-weight: bold; margin: 0;"">Is there a person in this image?</p>
                        </div>
                    </div>","1","main_causal_task","2","saving_a_cat_causal","","","",""
"","","","","","html-keyboard-response","39","152336","0.0-39.0","5F1A52C86AF248B5BE88E6175692917B","019ce67b-61f4-7f3a-8f2c-7da3f2aa62a4","019ce643-47c6-74a0-b3d2-7bf5651ded46","","null","
                    <div class=""stimulus-container"">
                        <img src=""images/causal_sequence/saving_a_cat_causal/saving_a_cat_causal_3.png"" class=""exp-image"">
                        <div class=""question-area""></div> 
                    </div>","null","","","","","","",""
"","","","","","html-button-response","40","153006","0.0-40.0","5F1A52C86AF248B5BE88E6175692917B","019ce67b-61f4-7f3a-8f2c-7da3f2aa62a4","019ce643-47c6-74a0-b3d2-7bf5651ded46","","669","
                    <div class=""stimulus-container"">
                        <img src=""images/causal_sequence/saving_a_cat_causal/saving_a_cat_causal_3.png"" class=""exp-image"">
                        <div class=""question-area"">
                            <p style=""font-size: 20px; font-weight: bold; margin: 0;"">Is there a person in this image?</p>
                        </div>
                    </div>","1","main_causal_task","3","saving_a_cat_causal","","","",""
"","","","","","html-keyboard-response","41","158677","0.0-41.0","5F1A52C86AF248B5BE88E6175692917B","019ce67b-61f4-7f3a-8f2c-7da3f2aa62a4","019ce643-47c6-74a0-b3d2-7bf5651ded46","","null","
                    <div class=""stimulus-container"">
                        <img src=""images/causal_sequence/saving_a_cat_causal/saving_a_cat_causal_4.png"" class=""exp-image"">
                        <div class=""question-area""></div> 
                    </div>","null","","","","","","",""
"","","","","","html-button-response","42","161679","0.0-42.0","5F1A52C86AF248B5BE88E6175692917B","019ce67b-61f4-7f3a-8f2c-7da3f2aa62a4","019ce643-47c6-74a0-b3d2-7bf5651ded46","","null","
                    <div class=""stimulus-container"">
                        <img src=""images/causal_sequence/saving_a_cat_causal/saving_a_cat_causal_4.png"" class=""exp-image"">
                        <div class=""question-area"">
                            <p style=""font-size: 20px; font-weight: bold; margin: 0;"">Is there a person in this image?</p>
                        </div>
                    </div>","null","main_causal_task","4","saving_a_cat_causal","","","",""
"","","","","","html-keyboard-response","43","166687","0.0-43.0","5F1A52C86AF248B5BE88E6175692917B","019ce67b-61f4-7f3a-8f2c-7da3f2aa62a4","019ce643-47c6-74a0-b3d2-7bf5651ded46","","null","
                    <div class=""stimulus-container"">
                        <img src=""images/causal_sequence/saving_a_cat_causal/saving_a_cat_causal_5.png"" class=""exp-image"">
                        <div class=""question-area""></div> 
                    </div>","null","","","","","","",""
"","","","","","html-button-response","44","167367","0.0-44.0","5F1A52C86AF248B5BE88E6175692917B","019ce67b-61f4-7f3a-8f2c-7da3f2aa62a4","019ce643-47c6-74a0-b3d2-7bf5651ded46","","679","
                    <div class=""stimulus-container"">
                        <img src=""images/causal_sequence/saving_a_cat_causal/saving_a_cat_causal_5.png"" class=""exp-image"">
                        <div class=""question-area"">
                            <p style=""font-size: 20px; font-weight: bold; margin: 0;"">Is there a person in this image?</p>
                        </div>
                    </div>","0","main_causal_task","5","saving_a_cat_causal","","","",""
"","","","","","html-keyboard-response","45","172372","0.0-45.0","5F1A52C86AF248B5BE88E6175692917B","019ce67b-61f4-7f3a-8f2c-7da3f2aa62a4","019ce643-47c6-74a0-b3d2-7bf5651ded46","","null","
                    <div class=""stimulus-container"">
                        <img src=""images/causal_sequence/saving_a_cat_causal/saving_a_cat_causal_6.png"" class=""exp-image"">
                        <div class=""question-area""></div> 
                    </div>","null","","","","","","",""
"","","","","","html-button-response","46","173623","0.0-46.0","5F1A52C86AF248B5BE88E6175692917B","019ce67b-61f4-7f3a-8f2c-7da3f2aa62a4","019ce643-47c6-74a0-b3d2-7bf5651ded46","","1251","
                    <div class=""stimulus-container"">
                        <img src=""images/causal_sequence/saving_a_cat_causal/saving_a_cat_causal_6.png"" class=""exp-image"">
                        <div class=""question-area"">
                            <p style=""font-size: 20px; font-weight: bold; margin: 0;"">Is there a person in this image?</p>
                        </div>
                    </div>","0","main_causal_task","6","saving_a_cat_causal","","","",""
"","","","","","html-keyboard-response","47","178638","0.0-47.0","5F1A52C86AF248B5BE88E6175692917B","019ce67b-61f4-7f3a-8f2c-7da3f2aa62a4","019ce643-47c6-74a0-b3d2-7bf5651ded46","","null","
                    <div class=""stimulus-container"">
                        <img src=""images/causal_sequence/saving_a_cat_causal/saving_a_cat_causal_7.png"" class=""exp-image"">
                        <div class=""question-area""></div> 
                    </div>","null","","","","","","",""
"","","","","","html-button-response","48","179400","0.0-48.0","5F1A52C86AF248B5BE88E6175692917B","019ce67b-61f4-7f3a-8f2c-7da3f2aa62a4","019ce643-47c6-74a0-b3d2-7bf5651ded46","","761","
                    <div class=""stimulus-container"">
                        <img src=""images/causal_sequence/saving_a_cat_causal/saving_a_cat_causal_7.png"" class=""exp-image"">
                        <div class=""question-area"">
                            <p style=""font-size: 20px; font-weight: bold; margin: 0;"">Is there a person in this image?</p>
                        </div>
                    </div>","0","main_causal_task","7","saving_a_cat_causal","","","",""
"","","","","","html-keyboard-response","49","184411","0.0-49.0","5F1A52C86AF248B5BE88E6175692917B","019ce67b-61f4-7f3a-8f2c-7da3f2aa62a4","019ce643-47c6-74a0-b3d2-7bf5651ded46","","null","
                    <div class=""stimulus-container"">
                        <img src=""images/causal_sequence/saving_a_cat_causal/saving_a_cat_causal_8.png"" class=""exp-image"">
                        <div class=""question-area""></div> 
                    </div>","null","","","","","","",""
"","","","","","html-button-response","50","184928","0.0-50.0","5F1A52C86AF248B5BE88E6175692917B","019ce67b-61f4-7f3a-8f2c-7da3f2aa62a4","019ce643-47c6-74a0-b3d2-7bf5651ded46","","516","
                    <div class=""stimulus-container"">
                        <img src=""images/causal_sequence/saving_a_cat_causal/saving_a_cat_causal_8.png"" class=""exp-image"">
                        <div class=""question-area"">
                            <p style=""font-size: 20px; font-weight: bold; margin: 0;"">Is there a person in this image?</p>
                        </div>
                    </div>","0","main_causal_task","8","saving_a_cat_causal","","","",""
"","","","","","html-keyboard-response","51","189944","0.0-51.0","5F1A52C86AF248B5BE88E6175692917B","019ce67b-61f4-7f3a-8f2c-7da3f2aa62a4","019ce643-47c6-74a0-b3d2-7bf5651ded46","","null","
                    <div class=""stimulus-container"">
                        <img src=""images/causal_sequence/saving_a_cat_causal/saving_a_cat_causal_9.png"" class=""exp-image"">
                        <div class=""question-area""></div> 
                    </div>","null","","","","","","",""
"","","","","","html-button-response","52","190819","0.0-52.0","5F1A52C86AF248B5BE88E6175692917B","019ce67b-61f4-7f3a-8f2c-7da3f2aa62a4","019ce643-47c6-74a0-b3d2-7bf5651ded46","","873","
                    <div class=""stimulus-container"">
                        <img src=""images/causal_sequence/saving_a_cat_causal/saving_a_cat_causal_9.png"" class=""exp-image"">
                        <div class=""question-area"">
                            <p style=""font-size: 20px; font-weight: bold; margin: 0;"">Is there a person in this image?</p>
                        </div>
                    </div>","0","main_causal_task","9","saving_a_cat_causal","","","",""
"","","","","","html-keyboard-response","53","191829","0.0-53.0","5F1A52C86AF248B5BE88E6175692917B","019ce67b-61f4-7f3a-8f2c-7da3f2aa62a4","019ce643-47c6-74a0-b3d2-7bf5651ded46","","null","<div style=""background-color: gray; width: 100vw; height: 100vh;""></div>","null","","","","","","",""
"","","","","","html-keyboard-response","54","196836","0.0-54.0","5F1A52C86AF248B5BE88E6175692917B","019ce67b-61f4-7f3a-8f2c-7da3f2aa62a4","019ce643-47c6-74a0-b3d2-7bf5651ded46","","null","
                    <div class=""stimulus-container"">
                        <img src=""images/causal_sequence/dog_causal/dog_causal_1.png"" class=""exp-image"">
                        <div class=""question-area""></div> 
                    </div>","null","","","","","","",""
"","","","","","html-button-response","55","197689","0.0-55.0","5F1A52C86AF248B5BE88E6175692917B","019ce67b-61f4-7f3a-8f2c-7da3f2aa62a4","019ce643-47c6-74a0-b3d2-7bf5651ded46","","852","
                    <div class=""stimulus-container"">
                        <img src=""images/causal_sequence/dog_causal/dog_causal_1.png"" class=""exp-image"">
                        <div class=""question-area"">
                            <p style=""font-size: 20px; font-weight: bold; margin: 0;"">Is there a person in this image?</p>
                        </div>
                    </div>","0","main_causal_task","1","dog_causal","","","",""
"","","","","","html-keyboard-response","56","202697","0.0-56.0","5F1A52C86AF248B5BE88E6175692917B","019ce67b-61f4-7f3a-8f2c-7da3f2aa62a4","019ce643-47c6-74a0-b3d2-7bf5651ded46","","null","
                    <div class=""stimulus-container"">
                        <img src=""images/causal_sequence/dog_causal/dog_causal_2.png"" class=""exp-image"">
                        <div class=""question-area""></div> 
                    </div>","null","","","","","","",""
"","","","","","html-button-response","57","203153","0.0-57.0","5F1A52C86AF248B5BE88E6175692917B","019ce67b-61f4-7f3a-8f2c-7da3f2aa62a4","019ce643-47c6-74a0-b3d2-7bf5651ded46","","455","
                    <div class=""stimulus-container"">
                        <img src=""images/causal_sequence/dog_causal/dog_causal_2.png"" class=""exp-image"">
                        <div class=""question-area"">
                            <p style=""font-size: 20px; font-weight: bold; margin: 0;"">Is there a person in this image?</p>
                        </div>
                    </div>","0","main_causal_task","2","dog_causal","","","",""
"","","","","","html-keyboard-response","58","208170","0.0-58.0","5F1A52C86AF248B5BE88E6175692917B","019ce67b-61f4-7f3a-8f2c-7da3f2aa62a4","019ce643-47c6-74a0-b3d2-7bf5651ded46","","null","
                    <div class=""stimulus-container"">
                        <img src=""images/causal_sequence/dog_causal/dog_causal_3.png"" class=""exp-image"">
                        <div class=""question-area""></div> 
                    </div>","null","","","","","","",""
"","","","","","html-button-response","59","209011","0.0-59.0","5F1A52C86AF248B5BE88E6175692917B","019ce67b-61f4-7f3a-8f2c-7da3f2aa62a4","019ce643-47c6-74a0-b3d2-7bf5651ded46","","839","
                    <div class=""stimulus-container"">
                        <img src=""images/causal_sequence/dog_causal/dog_causal_3.png"" class=""exp-image"">
                        <div class=""question-area"">
                            <p style=""font-size: 20px; font-weight: bold; margin: 0;"">Is there a person in this image?</p>
                        </div>
                    </div>","0","main_causal_task","3","dog_causal","","","",""
"","","","","","html-keyboard-response","60","214019","0.0-60.0","5F1A52C86AF248B5BE88E6175692917B","019ce67b-61f4-7f3a-8f2c-7da3f2aa62a4","019ce643-47c6-74a0-b3d2-7bf5651ded46","","null","
                    <div class=""stimulus-container"">
                        <img src=""images/causal_sequence/dog_causal/dog_causal_4.png"" class=""exp-image"">
                        <div class=""question-area""></div> 
                    </div>","null","","","","","","",""
"","","","","","html-button-response","61","215140","0.0-61.0","5F1A52C86AF248B5BE88E6175692917B","019ce67b-61f4-7f3a-8f2c-7da3f2aa62a4","019ce643-47c6-74a0-b3d2-7bf5651ded46","","1119","
                    <div class=""stimulus-container"">
                        <img src=""images/causal_sequence/dog_causal/dog_causal_4.png"" class=""exp-image"">
                        <div class=""question-area"">
                            <p style=""font-size: 20px; font-weight: bold; margin: 0;"">Is there a person in this image?</p>
                        </div>
                    </div>","0","main_causal_task","4","dog_causal","","","",""
"","","","","","html-keyboard-response","62","220147","0.0-62.0","5F1A52C86AF248B5BE88E6175692917B","019ce67b-61f4-7f3a-8f2c-7da3f2aa62a4","019ce643-47c6-74a0-b3d2-7bf5651ded46","","null","
                    <div class=""stimulus-container"">
                        <img src=""images/causal_sequence/dog_causal/dog_causal_5.png"" class=""exp-image"">
                        <div class=""question-area""></div> 
                    </div>","null","","","","","","",""
"","","","","","html-button-response","63","220658","0.0-63.0","5F1A52C86AF248B5BE88E6175692917B","019ce67b-61f4-7f3a-8f2c-7da3f2aa62a4","019ce643-47c6-74a0-b3d2-7bf5651ded46","","510","
                    <div class=""stimulus-container"">
                        <img src=""images/causal_sequence/dog_causal/dog_causal_5.png"" class=""exp-image"">
                        <div class=""question-area"">
                            <p style=""font-size: 20px; font-weight: bold; margin: 0;"">Is there a person in this image?</p>
                        </div>
                    </div>","0","main_causal_task","5","dog_causal","","","",""
"","","","","","html-keyboard-response","64","225673","0.0-64.0","5F1A52C86AF248B5BE88E6175692917B","019ce67b-61f4-7f3a-8f2c-7da3f2aa62a4","019ce643-47c6-74a0-b3d2-7bf5651ded46","","null","
                    <div class=""stimulus-container"">
                        <img src=""images/causal_sequence/dog_causal/dog_causal_6.png"" class=""exp-image"">
                        <div class=""question-area""></div> 
                    </div>","null","","","","","","",""
"","","","","","html-button-response","65","226468","0.0-65.0","5F1A52C86AF248B5BE88E6175692917B","019ce67b-61f4-7f3a-8f2c-7da3f2aa62a4","019ce643-47c6-74a0-b3d2-7bf5651ded46","","793","
                    <div class=""stimulus-container"">
                        <img src=""images/causal_sequence/dog_causal/dog_causal_6.png"" class=""exp-image"">
                        <div class=""question-area"">
                            <p style=""font-size: 20px; font-weight: bold; margin: 0;"">Is there a person in this image?</p>
                        </div>
                    </div>","0","main_causal_task","6","dog_causal","","","",""
"","","","","","html-keyboard-response","66","231477","0.0-66.0","5F1A52C86AF248B5BE88E6175692917B","019ce67b-61f4-7f3a-8f2c-7da3f2aa62a4","019ce643-47c6-74a0-b3d2-7bf5651ded46","","null","
                    <div class=""stimulus-container"">
                        <img src=""images/causal_sequence/dog_causal/dog_causal_7.png"" class=""exp-image"">
                        <div class=""question-area""></div> 
                    </div>","null","","","","","","",""
"","","","","","html-button-response","67","232088","0.0-67.0","5F1A52C86AF248B5BE88E6175692917B","019ce67b-61f4-7f3a-8f2c-7da3f2aa62a4","019ce643-47c6-74a0-b3d2-7bf5651ded46","","610","
                    <div class=""stimulus-container"">
                        <img src=""images/causal_sequence/dog_causal/dog_causal_7.png"" class=""exp-image"">
                        <div class=""question-area"">
                            <p style=""font-size: 20px; font-weight: bold; margin: 0;"">Is there a person in this image?</p>
                        </div>
                    </div>","0","main_causal_task","7","dog_causal","","","",""
"","","","","","html-keyboard-response","68","237089","0.0-68.0","5F1A52C86AF248B5BE88E6175692917B","019ce67b-61f4-7f3a-8f2c-7da3f2aa62a4","019ce643-47c6-74a0-b3d2-7bf5651ded46","","null","
                    <div class=""stimulus-container"">
                        <img src=""images/causal_sequence/dog_causal/dog_causal_8.png"" class=""exp-image"">
                        <div class=""question-area""></div> 
                    </div>","null","","","","","","",""
"","","","","","html-button-response","69","237881","0.0-69.0","5F1A52C86AF248B5BE88E6175692917B","019ce67b-61f4-7f3a-8f2c-7da3f2aa62a4","019ce643-47c6-74a0-b3d2-7bf5651ded46","","789","
                    <div class=""stimulus-container"">
                        <img src=""images/causal_sequence/dog_causal/dog_causal_8.png"" class=""exp-image"">
                        <div class=""question-area"">
                            <p style=""font-size: 20px; font-weight: bold; margin: 0;"">Is there a person in this image?</p>
                        </div>
                    </div>","0","main_causal_task","8","dog_causal","","","",""
"","","","","","html-keyboard-response","70","242892","0.0-70.0","5F1A52C86AF248B5BE88E6175692917B","019ce67b-61f4-7f3a-8f2c-7da3f2aa62a4","019ce643-47c6-74a0-b3d2-7bf5651ded46","","null","
                    <div class=""stimulus-container"">
                        <img src=""images/causal_sequence/dog_causal/dog_causal_9.png"" class=""exp-image"">
                        <div class=""question-area""></div> 
                    </div>","null","","","","","","",""
"","","","","","html-button-response","71","243490","0.0-71.0","5F1A52C86AF248B5BE88E6175692917B","019ce67b-61f4-7f3a-8f2c-7da3f2aa62a4","019ce643-47c6-74a0-b3d2-7bf5651ded46","","597","
                    <div class=""stimulus-container"">
                        <img src=""images/causal_sequence/dog_causal/dog_causal_9.png"" class=""exp-image"">
                        <div class=""question-area"">
                            <p style=""font-size: 20px; font-weight: bold; margin: 0;"">Is there a person in this image?</p>
                        </div>
                    </div>","0","main_causal_task","9","dog_causal","","","",""
"","","","","","html-keyboard-response","72","244498","0.0-72.0","5F1A52C86AF248B5BE88E6175692917B","019ce67b-61f4-7f3a-8f2c-7da3f2aa62a4","019ce643-47c6-74a0-b3d2-7bf5651ded46","","null","<div style=""background-color: gray; width: 100vw; height: 100vh;""></div>","null","","","","","","",""
"","","","","","html-keyboard-response","73","249512","0.0-73.0","5F1A52C86AF248B5BE88E6175692917B","019ce67b-61f4-7f3a-8f2c-7da3f2aa62a4","019ce643-47c6-74a0-b3d2-7bf5651ded46","","null","
                    <div class=""stimulus-container"">
                        <img src=""images/causal_sequence/coin_causal/coin_causal_1.png"" class=""exp-image"">
                        <div class=""question-area""></div> 
                    </div>","null","","","","","","",""
"","","","","","html-button-response","74","250205","0.0-74.0","5F1A52C86AF248B5BE88E6175692917B","019ce67b-61f4-7f3a-8f2c-7da3f2aa62a4","019ce643-47c6-74a0-b3d2-7bf5651ded46","","691","
                    <div class=""stimulus-container"">
                        <img src=""images/causal_sequence/coin_causal/coin_causal_1.png"" class=""exp-image"">
                        <div class=""question-area"">
                            <p style=""font-size: 20px; font-weight: bold; margin: 0;"">Is there a person in this image?</p>
                        </div>
                    </div>","0","main_causal_task","1","coin_causal","","","",""
"","","","","","html-keyboard-response","75","255221","0.0-75.0","5F1A52C86AF248B5BE88E6175692917B","019ce67b-61f4-7f3a-8f2c-7da3f2aa62a4","019ce643-47c6-74a0-b3d2-7bf5651ded46","","null","
                    <div class=""stimulus-container"">
                        <img src=""images/causal_sequence/coin_causal/coin_causal_2.png"" class=""exp-image"">
                        <div class=""question-area""></div> 
                    </div>","null","","","","","","",""
"","","","","","html-button-response","76","256141","0.0-76.0","5F1A52C86AF248B5BE88E6175692917B","019ce67b-61f4-7f3a-8f2c-7da3f2aa62a4","019ce643-47c6-74a0-b3d2-7bf5651ded46","","918","
                    <div class=""stimulus-container"">
                        <img src=""images/causal_sequence/coin_causal/coin_causal_2.png"" class=""exp-image"">
                        <div class=""question-area"">
                            <p style=""font-size: 20px; font-weight: bold; margin: 0;"">Is there a person in this image?</p>
                        </div>
                    </div>","0","main_causal_task","2","coin_causal","","","",""
"","","","","","html-keyboard-response","77","261142","0.0-77.0","5F1A52C86AF248B5BE88E6175692917B","019ce67b-61f4-7f3a-8f2c-7da3f2aa62a4","019ce643-47c6-74a0-b3d2-7bf5651ded46","","null","
                    <div class=""stimulus-container"">
                        <img src=""images/causal_sequence/coin_causal/coin_causal_3.png"" class=""exp-image"">
                        <div class=""question-area""></div> 
                    </div>","null","","","","","","",""
"","","","","","html-button-response","78","262361","0.0-78.0","5F1A52C86AF248B5BE88E6175692917B","019ce67b-61f4-7f3a-8f2c-7da3f2aa62a4","019ce643-47c6-74a0-b3d2-7bf5651ded46","","1218","
                    <div class=""stimulus-container"">
                        <img src=""images/causal_sequence/coin_causal/coin_causal_3.png"" class=""exp-image"">
                        <div class=""question-area"">
                            <p style=""font-size: 20px; font-weight: bold; margin: 0;"">Is there a person in this image?</p>
                        </div>
                    </div>","0","main_causal_task","3","coin_causal","","","",""
"","","","","","html-keyboard-response","79","267378","0.0-79.0","5F1A52C86AF248B5BE88E6175692917B","019ce67b-61f4-7f3a-8f2c-7da3f2aa62a4","019ce643-47c6-74a0-b3d2-7bf5651ded46","","null","
                    <div class=""stimulus-container"">
                        <img src=""images/causal_sequence/coin_causal/coin_causal_4.png"" class=""exp-image"">
                        <div class=""question-area""></div> 
                    </div>","null","","","","","","",""
"","","","","","html-button-response","80","268164","0.0-80.0","5F1A52C86AF248B5BE88E6175692917B","019ce67b-61f4-7f3a-8f2c-7da3f2aa62a4","019ce643-47c6-74a0-b3d2-7bf5651ded46","","784","
                    <div class=""stimulus-container"">
                        <img src=""images/causal_sequence/coin_causal/coin_causal_4.png"" class=""exp-image"">
                        <div class=""question-area"">
                            <p style=""font-size: 20px; font-weight: bold; margin: 0;"">Is there a person in this image?</p>
                        </div>
                    </div>","0","main_causal_task","4","coin_causal","","","",""
"","","","","","html-keyboard-response","81","273177","0.0-81.0","5F1A52C86AF248B5BE88E6175692917B","019ce67b-61f4-7f3a-8f2c-7da3f2aa62a4","019ce643-47c6-74a0-b3d2-7bf5651ded46","","null","
                    <div class=""stimulus-container"">
                        <img src=""images/causal_sequence/coin_causal/coin_causal_5.png"" class=""exp-image"">
                        <div class=""question-area""></div> 
                    </div>","null","","","","","","",""
"","","","","","html-button-response","82","274010","0.0-82.0","5F1A52C86AF248B5BE88E6175692917B","019ce67b-61f4-7f3a-8f2c-7da3f2aa62a4","019ce643-47c6-74a0-b3d2-7bf5651ded46","","831","
                    <div class=""stimulus-container"">
                        <img src=""images/causal_sequence/coin_causal/coin_causal_5.png"" class=""exp-image"">
                        <div class=""question-area"">
                            <p style=""font-size: 20px; font-weight: bold; margin: 0;"">Is there a person in this image?</p>
                        </div>
                    </div>","0","main_causal_task","5","coin_causal","","","",""
"","","","","","html-keyboard-response","83","279021","0.0-83.0","5F1A52C86AF248B5BE88E6175692917B","019ce67b-61f4-7f3a-8f2c-7da3f2aa62a4","019ce643-47c6-74a0-b3d2-7bf5651ded46","","null","
                    <div class=""stimulus-container"">
                        <img src=""images/causal_sequence/coin_causal/coin_causal_6.png"" class=""exp-image"">
                        <div class=""question-area""></div> 
                    </div>","null","","","","","","",""
"","","","","","html-button-response","84","279677","0.0-84.0","5F1A52C86AF248B5BE88E6175692917B","019ce67b-61f4-7f3a-8f2c-7da3f2aa62a4","019ce643-47c6-74a0-b3d2-7bf5651ded46","","654","
                    <div class=""stimulus-container"">
                        <img src=""images/causal_sequence/coin_causal/coin_causal_6.png"" class=""exp-image"">
                        <div class=""question-area"">
                            <p style=""font-size: 20px; font-weight: bold; margin: 0;"">Is there a person in this image?</p>
                        </div>
                    </div>","0","main_causal_task","6","coin_causal","","","",""
"","","","","","html-keyboard-response","85","284681","0.0-85.0","5F1A52C86AF248B5BE88E6175692917B","019ce67b-61f4-7f3a-8f2c-7da3f2aa62a4","019ce643-47c6-74a0-b3d2-7bf5651ded46","","null","
                    <div class=""stimulus-container"">
                        <img src=""images/causal_sequence/coin_causal/coin_causal_7.png"" class=""exp-image"">
                        <div class=""question-area""></div> 
                    </div>","null","","","","","","",""
"","","","","","html-button-response","86","286047","0.0-86.0","5F1A52C86AF248B5BE88E6175692917B","019ce67b-61f4-7f3a-8f2c-7da3f2aa62a4","019ce643-47c6-74a0-b3d2-7bf5651ded46","","1365","
                    <div class=""stimulus-container"">
                        <img src=""images/causal_sequence/coin_causal/coin_causal_7.png"" class=""exp-image"">
                        <div class=""question-area"">
                            <p style=""font-size: 20px; font-weight: bold; margin: 0;"">Is there a person in this image?</p>
                        </div>
                    </div>","0","main_causal_task","7","coin_causal","","","",""
"","","","","","html-keyboard-response","87","291052","0.0-87.0","5F1A52C86AF248B5BE88E6175692917B","019ce67b-61f4-7f3a-8f2c-7da3f2aa62a4","019ce643-47c6-74a0-b3d2-7bf5651ded46","","null","
                    <div class=""stimulus-container"">
                        <img src=""images/causal_sequence/coin_causal/coin_causal_8.png"" class=""exp-image"">
                        <div class=""question-area""></div> 
                    </div>","null","","","","","","",""
"","","","","","html-button-response","88","292533","0.0-88.0","5F1A52C86AF248B5BE88E6175692917B","019ce67b-61f4-7f3a-8f2c-7da3f2aa62a4","019ce643-47c6-74a0-b3d2-7bf5651ded46","","1479","
                    <div class=""stimulus-container"">
                        <img src=""images/causal_sequence/coin_causal/coin_causal_8.png"" class=""exp-image"">
                        <div class=""question-area"">
                            <p style=""font-size: 20px; font-weight: bold; margin: 0;"">Is there a person in this image?</p>
                        </div>
                    </div>","0","main_causal_task","8","coin_causal","","","",""
"","","","","","html-keyboard-response","89","297548","0.0-89.0","5F1A52C86AF248B5BE88E6175692917B","019ce67b-61f4-7f3a-8f2c-7da3f2aa62a4","019ce643-47c6-74a0-b3d2-7bf5651ded46","","null","
                    <div class=""stimulus-container"">
                        <img src=""images/causal_sequence/coin_causal/coin_causal_9.png"" class=""exp-image"">
                        <div class=""question-area""></div> 
                    </div>","null","","","","","","",""
"","","","","","html-button-response","90","298026","0.0-90.0","5F1A52C86AF248B5BE88E6175692917B","019ce67b-61f4-7f3a-8f2c-7da3f2aa62a4","019ce643-47c6-74a0-b3d2-7bf5651ded46","","476","
                    <div class=""stimulus-container"">
                        <img src=""images/causal_sequence/coin_causal/coin_causal_9.png"" class=""exp-image"">
                        <div class=""question-area"">
                            <p style=""font-size: 20px; font-weight: bold; margin: 0;"">Is there a person in this image?</p>
                        </div>
                    </div>","0","main_causal_task","9","coin_causal","","","",""
"","","","","","html-keyboard-response","91","299038","0.0-91.0","5F1A52C86AF248B5BE88E6175692917B","019ce67b-61f4-7f3a-8f2c-7da3f2aa62a4","019ce643-47c6-74a0-b3d2-7bf5651ded46","","null","<div style=""background-color: gray; width: 100vw; height: 100vh;""></div>","null","","","","","","",""
"","","","","","html-keyboard-response","92","304674","0.0-92.0","5F1A52C86AF248B5BE88E6175692917B","019ce67b-61f4-7f3a-8f2c-7da3f2aa62a4","019ce643-47c6-74a0-b3d2-7bf5651ded46","","null","
                    <div class=""stimulus-container"">
                        <img src=""images/causal_sequence/museum_causal/museum_causal_1.png"" class=""exp-image"">
                        <div class=""question-area""></div> 
                    </div>","null","","","","","","",""
"","","","","","html-button-response","93","308681","0.0-93.0","5F1A52C86AF248B5BE88E6175692917B","019ce67b-61f4-7f3a-8f2c-7da3f2aa62a4","019ce643-47c6-74a0-b3d2-7bf5651ded46","","null","
                    <div class=""stimulus-container"">
                        <img src=""images/causal_sequence/museum_causal/museum_causal_1.png"" class=""exp-image"">
                        <div class=""question-area"">
                            <p style=""font-size: 20px; font-weight: bold; margin: 0;"">Is there a person in this image?</p>
                        </div>
                    </div>","null","main_causal_task","1","museum_causal","","","",""
"","","","","","html-keyboard-response","94","313693","0.0-94.0","5F1A52C86AF248B5BE88E6175692917B","019ce67b-61f4-7f3a-8f2c-7da3f2aa62a4","019ce643-47c6-74a0-b3d2-7bf5651ded46","","null","
                    <div class=""stimulus-container"">
                        <img src=""images/causal_sequence/museum_causal/museum_causal_2.png"" class=""exp-image"">
                        <div class=""question-area""></div> 
                    </div>","null","","","","","","",""
"","","","","","html-button-response","95","316705","0.0-95.0","5F1A52C86AF248B5BE88E6175692917B","019ce67b-61f4-7f3a-8f2c-7da3f2aa62a4","019ce643-47c6-74a0-b3d2-7bf5651ded46","","null","
                    <div class=""stimulus-container"">
                        <img src=""images/causal_sequence/museum_causal/museum_causal_2.png"" class=""exp-image"">
                        <div class=""question-area"">
                            <p style=""font-size: 20px; font-weight: bold; margin: 0;"">Is there a person in this image?</p>
                        </div>
                    </div>","null","main_causal_task","2","museum_causal","","","",""
"","","","","","html-keyboard-response","96","321720","0.0-96.0","5F1A52C86AF248B5BE88E6175692917B","019ce67b-61f4-7f3a-8f2c-7da3f2aa62a4","019ce643-47c6-74a0-b3d2-7bf5651ded46","","null","
                    <div class=""stimulus-container"">
                        <img src=""images/causal_sequence/museum_causal/museum_causal_3.png"" class=""exp-image"">
                        <div class=""question-area""></div> 
                    </div>","null","","","","","","",""
"","","","","","html-button-response","97","322416","0.0-97.0","5F1A52C86AF248B5BE88E6175692917B","019ce67b-61f4-7f3a-8f2c-7da3f2aa62a4","019ce643-47c6-74a0-b3d2-7bf5651ded46","","694","
                    <div class=""stimulus-container"">
                        <img src=""images/causal_sequence/museum_causal/museum_causal_3.png"" class=""exp-image"">
                        <div class=""question-area"">
                            <p style=""font-size: 20px; font-weight: bold; margin: 0;"">Is there a person in this image?</p>
                        </div>
                    </div>","0","main_causal_task","3","museum_causal","","","",""
"","","","","","html-keyboard-response","98","327418","0.0-98.0","5F1A52C86AF248B5BE88E6175692917B","019ce67b-61f4-7f3a-8f2c-7da3f2aa62a4","019ce643-47c6-74a0-b3d2-7bf5651ded46","","null","
                    <div class=""stimulus-container"">
                        <img src=""images/causal_sequence/museum_causal/museum_causal_4.png"" class=""exp-image"">
                        <div class=""question-area""></div> 
                    </div>","null","","","","","","",""
"","","","","","html-button-response","99","328212","0.0-99.0","5F1A52C86AF248B5BE88E6175692917B","019ce67b-61f4-7f3a-8f2c-7da3f2aa62a4","019ce643-47c6-74a0-b3d2-7bf5651ded46","","793","
                    <div class=""stimulus-container"">
                        <img src=""images/causal_sequence/museum_causal/museum_causal_4.png"" class=""exp-image"">
                        <div class=""question-area"">
                            <p style=""font-size: 20px; font-weight: bold; margin: 0;"">Is there a person in this image?</p>
                        </div>
                    </div>","1","main_causal_task","4","museum_causal","","","",""
"","","","","","html-keyboard-response","100","333223","0.0-100.0","5F1A52C86AF248B5BE88E6175692917B","019ce67b-61f4-7f3a-8f2c-7da3f2aa62a4","019ce643-47c6-74a0-b3d2-7bf5651ded46","","null","
                    <div class=""stimulus-container"">
                        <img src=""images/causal_sequence/museum_causal/museum_causal_5.png"" class=""exp-image"">
                        <div class=""question-area""></div> 
                    </div>","null","","","","","","",""
"","","","","","html-button-response","101","333731","0.0-101.0","5F1A52C86AF248B5BE88E6175692917B","019ce67b-61f4-7f3a-8f2c-7da3f2aa62a4","019ce643-47c6-74a0-b3d2-7bf5651ded46","","506","
                    <div class=""stimulus-container"">
                        <img src=""images/causal_sequence/museum_causal/museum_causal_5.png"" class=""exp-image"">
                        <div class=""question-area"">
                            <p style=""font-size: 20px; font-weight: bold; margin: 0;"">Is there a person in this image?</p>
                        </div>
                    </div>","0","main_causal_task","5","museum_causal","","","",""
"","","","","","html-keyboard-response","102","338743","0.0-102.0","5F1A52C86AF248B5BE88E6175692917B","019ce67b-61f4-7f3a-8f2c-7da3f2aa62a4","019ce643-47c6-74a0-b3d2-7bf5651ded46","","null","
                    <div class=""stimulus-container"">
                        <img src=""images/causal_sequence/museum_causal/museum_causal_6.png"" class=""exp-image"">
                        <div class=""question-area""></div> 
                    </div>","null","","","","","","",""
"","","","","","html-button-response","103","339192","0.0-103.0","5F1A52C86AF248B5BE88E6175692917B","019ce67b-61f4-7f3a-8f2c-7da3f2aa62a4","019ce643-47c6-74a0-b3d2-7bf5651ded46","","447","
                    <div class=""stimulus-container"">
                        <img src=""images/causal_sequence/museum_causal/museum_causal_6.png"" class=""exp-image"">
                        <div class=""question-area"">
                            <p style=""font-size: 20px; font-weight: bold; margin: 0;"">Is there a person in this image?</p>
                        </div>
                    </div>","0","main_causal_task","6","museum_causal","","","",""
"","","","","","html-keyboard-response","104","344200","0.0-104.0","5F1A52C86AF248B5BE88E6175692917B","019ce67b-61f4-7f3a-8f2c-7da3f2aa62a4","019ce643-47c6-74a0-b3d2-7bf5651ded46","","null","
                    <div class=""stimulus-container"">
                        <img src=""images/causal_sequence/museum_causal/museum_causal_7.png"" class=""exp-image"">
                        <div class=""question-area""></div> 
                    </div>","null","","","","","","",""
"","","","","","html-button-response","105","345170","0.0-105.0","5F1A52C86AF248B5BE88E6175692917B","019ce67b-61f4-7f3a-8f2c-7da3f2aa62a4","019ce643-47c6-74a0-b3d2-7bf5651ded46","","969","
                    <div class=""stimulus-container"">
                        <img src=""images/causal_sequence/museum_causal/museum_causal_7.png"" class=""exp-image"">
                        <div class=""question-area"">
                            <p style=""font-size: 20px; font-weight: bold; margin: 0;"">Is there a person in this image?</p>
                        </div>
                    </div>","1","main_causal_task","7","museum_causal","","","",""
"","","","","","html-keyboard-response","106","350174","0.0-106.0","5F1A52C86AF248B5BE88E6175692917B","019ce67b-61f4-7f3a-8f2c-7da3f2aa62a4","019ce643-47c6-74a0-b3d2-7bf5651ded46","","null","
                    <div class=""stimulus-container"">
                        <img src=""images/causal_sequence/museum_causal/museum_causal_8.png"" class=""exp-image"">
                        <div class=""question-area""></div> 
                    </div>","null","","","","","","",""
"","","","","","html-button-response","107","350800","0.0-107.0","5F1A52C86AF248B5BE88E6175692917B","019ce67b-61f4-7f3a-8f2c-7da3f2aa62a4","019ce643-47c6-74a0-b3d2-7bf5651ded46","","625","
                    <div class=""stimulus-container"">
                        <img src=""images/causal_sequence/museum_causal/museum_causal_8.png"" class=""exp-image"">
                        <div class=""question-area"">
                            <p style=""font-size: 20px; font-weight: bold; margin: 0;"">Is there a person in this image?</p>
                        </div>
                    </div>","0","main_causal_task","8","museum_causal","","","",""
"","","","","","html-keyboard-response","108","355809","0.0-108.0","5F1A52C86AF248B5BE88E6175692917B","019ce67b-61f4-7f3a-8f2c-7da3f2aa62a4","019ce643-47c6-74a0-b3d2-7bf5651ded46","","null","
                    <div class=""stimulus-container"">
                        <img src=""images/causal_sequence/museum_causal/museum_causal_9.png"" class=""exp-image"">
                        <div class=""question-area""></div> 
                    </div>","null","","","","","","",""
"","","","","","html-button-response","109","356295","0.0-109.0","5F1A52C86AF248B5BE88E6175692917B","019ce67b-61f4-7f3a-8f2c-7da3f2aa62a4","019ce643-47c6-74a0-b3d2-7bf5651ded46","","485","
                    <div class=""stimulus-container"">
                        <img src=""images/causal_sequence/museum_causal/museum_causal_9.png"" class=""exp-image"">
                        <div class=""question-area"">
                            <p style=""font-size: 20px; font-weight: bold; margin: 0;"">Is there a person in this image?</p>
                        </div>
                    </div>","1","main_causal_task","9","museum_causal","","","",""
"","","","","","html-keyboard-response","110","357309","0.0-110.0","5F1A52C86AF248B5BE88E6175692917B","019ce67b-61f4-7f3a-8f2c-7da3f2aa62a4","019ce643-47c6-74a0-b3d2-7bf5651ded46","","null","<div style=""background-color: gray; width: 100vw; height: 100vh;""></div>","null","","","","","","",""
"","","","","","html-keyboard-response","111","362312","0.0-111.0","5F1A52C86AF248B5BE88E6175692917B","019ce67b-61f4-7f3a-8f2c-7da3f2aa62a4","019ce643-47c6-74a0-b3d2-7bf5651ded46","","null","
                    <div class=""stimulus-container"">
                        <img src=""images/causal_sequence/the_performance_causal/the_performance_causal_1.png"" class=""exp-image"">
                        <div class=""question-area""></div> 
                    </div>","null","","","","","","",""
"","","","","","html-button-response","112","362870","0.0-112.0","5F1A52C86AF248B5BE88E6175692917B","019ce67b-61f4-7f3a-8f2c-7da3f2aa62a4","019ce643-47c6-74a0-b3d2-7bf5651ded46","","557","
                    <div class=""stimulus-container"">
                        <img src=""images/causal_sequence/the_performance_causal/the_performance_causal_1.png"" class=""exp-image"">
                        <div class=""question-area"">
                            <p style=""font-size: 20px; font-weight: bold; margin: 0;"">Is there a person in this image?</p>
                        </div>
                    </div>","0","main_causal_task","1","the_performance_causal","","","",""
"","","","","","html-keyboard-response","113","367882","0.0-113.0","5F1A52C86AF248B5BE88E6175692917B","019ce67b-61f4-7f3a-8f2c-7da3f2aa62a4","019ce643-47c6-74a0-b3d2-7bf5651ded46","","null","
                    <div class=""stimulus-container"">
                        <img src=""images/causal_sequence/the_performance_causal/the_performance_causal_2.png"" class=""exp-image"">
                        <div class=""question-area""></div> 
                    </div>","null","","","","","","",""
"","","","","","html-button-response","114","369391","0.0-114.0","5F1A52C86AF248B5BE88E6175692917B","019ce67b-61f4-7f3a-8f2c-7da3f2aa62a4","019ce643-47c6-74a0-b3d2-7bf5651ded46","","1508","
                    <div class=""stimulus-container"">
                        <img src=""images/causal_sequence/the_performance_causal/the_performance_causal_2.png"" class=""exp-image"">
                        <div class=""question-area"">
                            <p style=""font-size: 20px; font-weight: bold; margin: 0;"">Is there a person in this image?</p>
                        </div>
                    </div>","0","main_causal_task","2","the_performance_causal","","","",""
"","","","","","html-keyboard-response","115","374393","0.0-115.0","5F1A52C86AF248B5BE88E6175692917B","019ce67b-61f4-7f3a-8f2c-7da3f2aa62a4","019ce643-47c6-74a0-b3d2-7bf5651ded46","","null","
                    <div class=""stimulus-container"">
                        <img src=""images/causal_sequence/the_performance_causal/the_performance_causal_3.png"" class=""exp-image"">
                        <div class=""question-area""></div> 
                    </div>","null","","","","","","",""
"","","","","","html-button-response","116","375428","0.0-116.0","5F1A52C86AF248B5BE88E6175692917B","019ce67b-61f4-7f3a-8f2c-7da3f2aa62a4","019ce643-47c6-74a0-b3d2-7bf5651ded46","","1035","
                    <div class=""stimulus-container"">
                        <img src=""images/causal_sequence/the_performance_causal/the_performance_causal_3.png"" class=""exp-image"">
                        <div class=""question-area"">
                            <p style=""font-size: 20px; font-weight: bold; margin: 0;"">Is there a person in this image?</p>
                        </div>
                    </div>","0","main_causal_task","3","the_performance_causal","","","",""
"","","","","","html-keyboard-response","117","380436","0.0-117.0","5F1A52C86AF248B5BE88E6175692917B","019ce67b-61f4-7f3a-8f2c-7da3f2aa62a4","019ce643-47c6-74a0-b3d2-7bf5651ded46","","null","
                    <div class=""stimulus-container"">
                        <img src=""images/causal_sequence/the_performance_causal/the_performance_causal_4.png"" class=""exp-image"">
                        <div class=""question-area""></div> 
                    </div>","null","","","","","","",""
"","","","","","html-button-response","118","380995","0.0-118.0","5F1A52C86AF248B5BE88E6175692917B","019ce67b-61f4-7f3a-8f2c-7da3f2aa62a4","019ce643-47c6-74a0-b3d2-7bf5651ded46","","557","
                    <div class=""stimulus-container"">
                        <img src=""images/causal_sequence/the_performance_causal/the_performance_causal_4.png"" class=""exp-image"">
                        <div class=""question-area"">
                            <p style=""font-size: 20px; font-weight: bold; margin: 0;"">Is there a person in this image?</p>
                        </div>
                    </div>","0","main_causal_task","4","the_performance_causal","","","",""
"","","","","","html-keyboard-response","119","386005","0.0-119.0","5F1A52C86AF248B5BE88E6175692917B","019ce67b-61f4-7f3a-8f2c-7da3f2aa62a4","019ce643-47c6-74a0-b3d2-7bf5651ded46","","null","
                    <div class=""stimulus-container"">
                        <img src=""images/causal_sequence/the_performance_causal/the_performance_causal_5.png"" class=""exp-image"">
                        <div class=""question-area""></div> 
                    </div>","null","","","","","","",""
"","","","","","html-button-response","120","387013","0.0-120.0","5F1A52C86AF248B5BE88E6175692917B","019ce67b-61f4-7f3a-8f2c-7da3f2aa62a4","019ce643-47c6-74a0-b3d2-7bf5651ded46","","1006","
                    <div class=""stimulus-container"">
                        <img src=""images/causal_sequence/the_performance_causal/the_performance_causal_5.png"" class=""exp-image"">
                        <div class=""question-area"">
                            <p style=""font-size: 20px; font-weight: bold; margin: 0;"">Is there a person in this image?</p>
                        </div>
                    </div>","0","main_causal_task","5","the_performance_causal","","","",""
"","","","","","html-keyboard-response","121","392019","0.0-121.0","5F1A52C86AF248B5BE88E6175692917B","019ce67b-61f4-7f3a-8f2c-7da3f2aa62a4","019ce643-47c6-74a0-b3d2-7bf5651ded46","","null","
                    <div class=""stimulus-container"">
                        <img src=""images/causal_sequence/the_performance_causal/the_performance_causal_6.png"" class=""exp-image"">
                        <div class=""question-area""></div> 
                    </div>","null","","","","","","",""
"","","","","","html-button-response","122","392676","0.0-122.0","5F1A52C86AF248B5BE88E6175692917B","019ce67b-61f4-7f3a-8f2c-7da3f2aa62a4","019ce643-47c6-74a0-b3d2-7bf5651ded46","","656","
                    <div class=""stimulus-container"">
                        <img src=""images/causal_sequence/the_performance_causal/the_performance_causal_6.png"" class=""exp-image"">
                        <div class=""question-area"">
                            <p style=""font-size: 20px; font-weight: bold; margin: 0;"">Is there a person in this image?</p>
                        </div>
                    </div>","0","main_causal_task","6","the_performance_causal","","","",""
"","","","","","html-keyboard-response","123","397687","0.0-123.0","5F1A52C86AF248B5BE88E6175692917B","019ce67b-61f4-7f3a-8f2c-7da3f2aa62a4","019ce643-47c6-74a0-b3d2-7bf5651ded46","","null","
                    <div class=""stimulus-container"">
                        <img src=""images/causal_sequence/the_performance_causal/the_performance_causal_7.png"" class=""exp-image"">
                        <div class=""question-area""></div> 
                    </div>","null","","","","","","",""
"","","","","","html-button-response","124","399324","0.0-124.0","5F1A52C86AF248B5BE88E6175692917B","019ce67b-61f4-7f3a-8f2c-7da3f2aa62a4","019ce643-47c6-74a0-b3d2-7bf5651ded46","","1636","
                    <div class=""stimulus-container"">
                        <img src=""images/causal_sequence/the_performance_causal/the_performance_causal_7.png"" class=""exp-image"">
                        <div class=""question-area"">
                            <p style=""font-size: 20px; font-weight: bold; margin: 0;"">Is there a person in this image?</p>
                        </div>
                    </div>","0","main_causal_task","7","the_performance_causal","","","",""
"","","","","","html-keyboard-response","125","404334","0.0-125.0","5F1A52C86AF248B5BE88E6175692917B","019ce67b-61f4-7f3a-8f2c-7da3f2aa62a4","019ce643-47c6-74a0-b3d2-7bf5651ded46","","null","
                    <div class=""stimulus-container"">
                        <img src=""images/causal_sequence/the_performance_causal/the_performance_causal_8.png"" class=""exp-image"">
                        <div class=""question-area""></div> 
                    </div>","null","","","","","","",""
"","","","","","html-button-response","126","405316","0.0-126.0","5F1A52C86AF248B5BE88E6175692917B","019ce67b-61f4-7f3a-8f2c-7da3f2aa62a4","019ce643-47c6-74a0-b3d2-7bf5651ded46","","981","
                    <div class=""stimulus-container"">
                        <img src=""images/causal_sequence/the_performance_causal/the_performance_causal_8.png"" class=""exp-image"">
                        <div class=""question-area"">
                            <p style=""font-size: 20px; font-weight: bold; margin: 0;"">Is there a person in this image?</p>
                        </div>
                    </div>","0","main_causal_task","8","the_performance_causal","","","",""
"","","","","","html-keyboard-response","127","410333","0.0-127.0","5F1A52C86AF248B5BE88E6175692917B","019ce67b-61f4-7f3a-8f2c-7da3f2aa62a4","019ce643-47c6-74a0-b3d2-7bf5651ded46","","null","
                    <div class=""stimulus-container"">
                        <img src=""images/causal_sequence/the_performance_causal/the_performance_causal_9.png"" class=""exp-image"">
                        <div class=""question-area""></div> 
                    </div>","null","","","","","","",""
"","","","","","html-button-response","128","411730","0.0-128.0","5F1A52C86AF248B5BE88E6175692917B","019ce67b-61f4-7f3a-8f2c-7da3f2aa62a4","019ce643-47c6-74a0-b3d2-7bf5651ded46","","1396","
                    <div class=""stimulus-container"">
                        <img src=""images/causal_sequence/the_performance_causal/the_performance_causal_9.png"" class=""exp-image"">
                        <div class=""question-area"">
                            <p style=""font-size: 20px; font-weight: bold; margin: 0;"">Is there a person in this image?</p>
                        </div>
                    </div>","0","main_causal_task","9","the_performance_causal","","","",""
"","","","","","instructions","129","413511","0.0-129.0","5F1A52C86AF248B5BE88E6175692917B","019ce67b-61f4-7f3a-8f2c-7da3f2aa62a4","019ce643-47c6-74a0-b3d2-7bf5651ded46","[{""page_index"":0,""viewing_time"":1780}]","1781","","","","","","","","",""
"","","","","","instructions","130","419291","0.0-130.0","5F1A52C86AF248B5BE88E6175692917B","019ce67b-61f4-7f3a-8f2c-7da3f2aa62a4","019ce643-47c6-74a0-b3d2-7bf5651ded46","[{""page_index"":0,""viewing_time"":5779}]","5779","","","","","","","","",""
"","","","","","html-keyboard-response","131","420294","0.0-131.0","5F1A52C86AF248B5BE88E6175692917B","019ce67b-61f4-7f3a-8f2c-7da3f2aa62a4","019ce643-47c6-74a0-b3d2-7bf5651ded46","","null","
        <div class=""stimulus-container"" style=""display: flex; align-items: center; justify-content: center; gap: 30px;"">
            <img src=""images/instructions/movie_1.png"" class=""exp-image"">
            <div style=""font-size: 40px; font-weight: bold; color: green; border: 5px solid green; padding: 25px; border-radius: 15px; background-color: #f0fff0;"">
                WORTH<br>$1
            </div>
        </div>
        <div class=""question-area""></div>","null","","","","","","",""
"","","","","","html-button-response","132","422077","0.0-132.0","5F1A52C86AF248B5BE88E6175692917B","019ce67b-61f4-7f3a-8f2c-7da3f2aa62a4","019ce643-47c6-74a0-b3d2-7bf5651ded46","","1782","
        <div class=""stimulus-container"" style=""display: flex; align-items: center; justify-content: center; gap: 30px;"">
            <img src=""images/instructions/movie_1.png"" class=""exp-image"">
            <div style=""font-size: 40px; font-weight: bold; color: green; border: 5px solid green; padding: 25px; border-radius: 15px; background-color: #f0fff0;"">
                WORTH<br>$1
            </div>
        </div>
        <div class=""question-area"">
            <p style=""font-size: 20px; font-weight: bold; margin: 0;"">Was there a person in this image?</p>
        </div>","0","","","","","","",""
"","","","","","instructions","133","427672","0.0-133.0","5F1A52C86AF248B5BE88E6175692917B","019ce67b-61f4-7f3a-8f2c-7da3f2aa62a4","019ce643-47c6-74a0-b3d2-7bf5651ded46","[{""page_index"":0,""viewing_time"":5594}]","5595","","","","","","","","",""
"","","","","","html-keyboard-response","134","437680","0.0-134.0","5F1A52C86AF248B5BE88E6175692917B","019ce67b-61f4-7f3a-8f2c-7da3f2aa62a4","019ce643-47c6-74a0-b3d2-7bf5651ded46","","null","
            <div class=""stimulus-container"" style=""display: flex; align-items: center; justify-content: center; gap: 30px;"">
                <img src=""images/causal_sequence/coin_causal/coin_causal_3.png"" class=""exp-image"">
                <div style=""font-size: 40px; font-weight: bold; color: green; border: 5px solid green; padding: 25px; border-radius: 15px; background-color: #f0fff0;"">
                    WORTH<br>$1
                </div>
            </div>
            <div class=""question-area""></div>","null","","","","","","",""
"","","","","","html-button-response","135","438944","0.0-135.0","5F1A52C86AF248B5BE88E6175692917B","019ce67b-61f4-7f3a-8f2c-7da3f2aa62a4","019ce643-47c6-74a0-b3d2-7bf5651ded46","","1263","
            <div class=""stimulus-container"" style=""display: flex; align-items: center; justify-content: center; gap: 30px;"">
                <img src=""images/causal_sequence/coin_causal/coin_causal_3.png"" class=""exp-image"">
                <div style=""font-size: 40px; font-weight: bold; color: green; border: 5px solid green; padding: 25px; border-radius: 15px; background-color: #f0fff0;"">
                    WORTH<br>$1
                </div>
            </div>
            <div class=""question-area"">
                <p style=""font-size: 20px; font-weight: bold; margin: 0;"">Was there a person in this image?</p>
            </div>","0","part2_value_learning","","coin_causal","3","","",""
"","","","","","html-keyboard-response","136","448948","0.0-136.0","5F1A52C86AF248B5BE88E6175692917B","019ce67b-61f4-7f3a-8f2c-7da3f2aa62a4","019ce643-47c6-74a0-b3d2-7bf5651ded46","","null","
            <div class=""stimulus-container"" style=""display: flex; align-items: center; justify-content: center; gap: 30px;"">
                <img src=""images/causal_sequence/dog_causal/dog_causal_3.png"" class=""exp-image"">
                <div style=""font-size: 40px; font-weight: bold; color: green; border: 5px solid green; padding: 25px; border-radius: 15px; background-color: #f0fff0;"">
                    WORTH<br>$1
                </div>
            </div>
            <div class=""question-area""></div>","null","","","","","","",""
"","","","","","html-button-response","137","449666","0.0-137.0","5F1A52C86AF248B5BE88E6175692917B","019ce67b-61f4-7f3a-8f2c-7da3f2aa62a4","019ce643-47c6-74a0-b3d2-7bf5651ded46","","716","
            <div class=""stimulus-container"" style=""display: flex; align-items: center; justify-content: center; gap: 30px;"">
                <img src=""images/causal_sequence/dog_causal/dog_causal_3.png"" class=""exp-image"">
                <div style=""font-size: 40px; font-weight: bold; color: green; border: 5px solid green; padding: 25px; border-radius: 15px; background-color: #f0fff0;"">
                    WORTH<br>$1
                </div>
            </div>
            <div class=""question-area"">
                <p style=""font-size: 20px; font-weight: bold; margin: 0;"">Was there a person in this image?</p>
            </div>","0","part2_value_learning","","dog_causal","3","","",""
"","","","","","html-keyboard-response","138","459682","0.0-138.0","5F1A52C86AF248B5BE88E6175692917B","019ce67b-61f4-7f3a-8f2c-7da3f2aa62a4","019ce643-47c6-74a0-b3d2-7bf5651ded46","","null","
            <div class=""stimulus-container"" style=""display: flex; align-items: center; justify-content: center; gap: 30px;"">
                <img src=""images/causal_sequence/package_causal/package_causal_3.png"" class=""exp-image"">
                <div style=""font-size: 40px; font-weight: bold; color: green; border: 5px solid green; padding: 25px; border-radius: 15px; background-color: #f0fff0;"">
                    WORTH<br>$1
                </div>
            </div>
            <div class=""question-area""></div>","null","","","","","","",""
"","","","","","html-button-response","139","462697","0.0-139.0","5F1A52C86AF248B5BE88E6175692917B","019ce67b-61f4-7f3a-8f2c-7da3f2aa62a4","019ce643-47c6-74a0-b3d2-7bf5651ded46","","null","
            <div class=""stimulus-container"" style=""display: flex; align-items: center; justify-content: center; gap: 30px;"">
                <img src=""images/causal_sequence/package_causal/package_causal_3.png"" class=""exp-image"">
                <div style=""font-size: 40px; font-weight: bold; color: green; border: 5px solid green; padding: 25px; border-radius: 15px; background-color: #f0fff0;"">
                    WORTH<br>$1
                </div>
            </div>
            <div class=""question-area"">
                <p style=""font-size: 20px; font-weight: bold; margin: 0;"">Was there a person in this image?</p>
            </div>","null","part2_value_learning","","package_causal","3","","",""
"","","","","","html-keyboard-response","140","472702","0.0-140.0","5F1A52C86AF248B5BE88E6175692917B","019ce67b-61f4-7f3a-8f2c-7da3f2aa62a4","019ce643-47c6-74a0-b3d2-7bf5651ded46","","null","
            <div class=""stimulus-container"" style=""display: flex; align-items: center; justify-content: center; gap: 30px;"">
                <img src=""images/causal_sequence/the_performance_causal/the_performance_causal_4.png"" class=""exp-image"">
                <div style=""font-size: 40px; font-weight: bold; color: green; border: 5px solid green; padding: 25px; border-radius: 15px; background-color: #f0fff0;"">
                    WORTH<br>$1
                </div>
            </div>
            <div class=""question-area""></div>","null","","","","","","",""
"","","","","","html-button-response","141","473716","0.0-141.0","5F1A52C86AF248B5BE88E6175692917B","019ce67b-61f4-7f3a-8f2c-7da3f2aa62a4","019ce643-47c6-74a0-b3d2-7bf5651ded46","","1013","
            <div class=""stimulus-container"" style=""display: flex; align-items: center; justify-content: center; gap: 30px;"">
                <img src=""images/causal_sequence/the_performance_causal/the_performance_causal_4.png"" class=""exp-image"">
                <div style=""font-size: 40px; font-weight: bold; color: green; border: 5px solid green; padding: 25px; border-radius: 15px; background-color: #f0fff0;"">
                    WORTH<br>$1
                </div>
            </div>
            <div class=""question-area"">
                <p style=""font-size: 20px; font-weight: bold; margin: 0;"">Was there a person in this image?</p>
            </div>","0","part2_value_learning","","the_performance_causal","4","","",""
"","","","","","html-keyboard-response","142","483727","0.0-142.0","5F1A52C86AF248B5BE88E6175692917B","019ce67b-61f4-7f3a-8f2c-7da3f2aa62a4","019ce643-47c6-74a0-b3d2-7bf5651ded46","","null","
            <div class=""stimulus-container"" style=""display: flex; align-items: center; justify-content: center; gap: 30px;"">
                <img src=""images/causal_sequence/saving_a_cat_causal/saving_a_cat_causal_6.png"" class=""exp-image"">
                <div style=""font-size: 40px; font-weight: bold; color: green; border: 5px solid green; padding: 25px; border-radius: 15px; background-color: #f0fff0;"">
                    WORTH<br>$1
                </div>
            </div>
            <div class=""question-area""></div>","null","","","","","","",""
"","","","","","html-button-response","143","485161","0.0-143.0","5F1A52C86AF248B5BE88E6175692917B","019ce67b-61f4-7f3a-8f2c-7da3f2aa62a4","019ce643-47c6-74a0-b3d2-7bf5651ded46","","1432","
            <div class=""stimulus-container"" style=""display: flex; align-items: center; justify-content: center; gap: 30px;"">
                <img src=""images/causal_sequence/saving_a_cat_causal/saving_a_cat_causal_6.png"" class=""exp-image"">
                <div style=""font-size: 40px; font-weight: bold; color: green; border: 5px solid green; padding: 25px; border-radius: 15px; background-color: #f0fff0;"">
                    WORTH<br>$1
                </div>
            </div>
            <div class=""question-area"">
                <p style=""font-size: 20px; font-weight: bold; margin: 0;"">Was there a person in this image?</p>
            </div>","0","part2_value_learning","","saving_a_cat_causal","6","","",""
"","","","","","html-keyboard-response","144","495168","0.0-144.0","5F1A52C86AF248B5BE88E6175692917B","019ce67b-61f4-7f3a-8f2c-7da3f2aa62a4","019ce643-47c6-74a0-b3d2-7bf5651ded46","","null","
            <div class=""stimulus-container"" style=""display: flex; align-items: center; justify-content: center; gap: 30px;"">
                <img src=""images/causal_sequence/museum_causal/museum_causal_3.png"" class=""exp-image"">
                <div style=""font-size: 40px; font-weight: bold; color: green; border: 5px solid green; padding: 25px; border-radius: 15px; background-color: #f0fff0;"">
                    WORTH<br>$1
                </div>
            </div>
            <div class=""question-area""></div>","null","","","","","","",""
"","","","","","html-button-response","145","495961","0.0-145.0","5F1A52C86AF248B5BE88E6175692917B","019ce67b-61f4-7f3a-8f2c-7da3f2aa62a4","019ce643-47c6-74a0-b3d2-7bf5651ded46","","791","
            <div class=""stimulus-container"" style=""display: flex; align-items: center; justify-content: center; gap: 30px;"">
                <img src=""images/causal_sequence/museum_causal/museum_causal_3.png"" class=""exp-image"">
                <div style=""font-size: 40px; font-weight: bold; color: green; border: 5px solid green; padding: 25px; border-radius: 15px; background-color: #f0fff0;"">
                    WORTH<br>$1
                </div>
            </div>
            <div class=""question-area"">
                <p style=""font-size: 20px; font-weight: bold; margin: 0;"">Was there a person in this image?</p>
            </div>","0","part2_value_learning","","museum_causal","3","","",""
"","","","","","instructions","146","499939","0.0-146.0","5F1A52C86AF248B5BE88E6175692917B","019ce67b-61f4-7f3a-8f2c-7da3f2aa62a4","019ce643-47c6-74a0-b3d2-7bf5651ded46","[{""page_index"":0,""viewing_time"":3977}]","3977","","","","","","","","",""
"","","","","","instructions","147","502038","0.0-147.0","5F1A52C86AF248B5BE88E6175692917B","019ce67b-61f4-7f3a-8f2c-7da3f2aa62a4","019ce643-47c6-74a0-b3d2-7bf5651ded46","[{""page_index"":0,""viewing_time"":2099}]","2099","","","","","","","","",""
"","","","","","html-keyboard-response","148","512041","0.0-148.0-0.0","5F1A52C86AF248B5BE88E6175692917B","019ce67b-61f4-7f3a-8f2c-7da3f2aa62a4","019ce643-47c6-74a0-b3d2-7bf5651ded46","","null","
                        <div style=""font-family: Arial; margin-bottom: 20px;""><h3>Which image is more valuable?</h3></div>
                        <div class=""stimulus-container"" style=""display: flex; width: 1100px; justify-content: center; gap: 50px;"">
                            <img src=""images/causal_sequence/package_causal/package_causal_2.png"" class=""exp-image"">
                            <img src=""images/causal_sequence/package_causal/package_causal_4.png"" class=""exp-image"">
                        </div>","null","","","","","","",""
"","","","","","html-button-response","149","513478","0.0-148.0-1.0","5F1A52C86AF248B5BE88E6175692917B","019ce67b-61f4-7f3a-8f2c-7da3f2aa62a4","019ce643-47c6-74a0-b3d2-7bf5651ded46","","1436","
                        <div style=""font-family: Arial; margin-bottom: 20px;""><h3>Which image is more valuable?</h3></div>
                        <div class=""stimulus-container"" style=""display: flex; width: 1100px; justify-content: center; gap: 50px;"">
                            <img src=""images/causal_sequence/package_causal/package_causal_2.png"" class=""exp-image"">
                            <img src=""images/causal_sequence/package_causal/package_causal_4.png"" class=""exp-image"">
                        </div>","0","part3_final_choice","","package_causal","","3","2","-1"
"","","","","","html-keyboard-response","150","523484","0.0-149.0-0.0","5F1A52C86AF248B5BE88E6175692917B","019ce67b-61f4-7f3a-8f2c-7da3f2aa62a4","019ce643-47c6-74a0-b3d2-7bf5651ded46","","null","
                        <div style=""font-family: Arial; margin-bottom: 20px;""><h3>Which image is more valuable?</h3></div>
                        <div class=""stimulus-container"" style=""display: flex; width: 1100px; justify-content: center; gap: 50px;"">
                            <img src=""images/causal_sequence/museum_causal/museum_causal_4.png"" class=""exp-image"">
                            <img src=""images/causal_sequence/museum_causal/museum_causal_2.png"" class=""exp-image"">
                        </div>","null","","","","","","",""
"","","","","","html-button-response","151","524409","0.0-149.0-1.0","5F1A52C86AF248B5BE88E6175692917B","019ce67b-61f4-7f3a-8f2c-7da3f2aa62a4","019ce643-47c6-74a0-b3d2-7bf5651ded46","","924","
                        <div style=""font-family: Arial; margin-bottom: 20px;""><h3>Which image is more valuable?</h3></div>
                        <div class=""stimulus-container"" style=""display: flex; width: 1100px; justify-content: center; gap: 50px;"">
                            <img src=""images/causal_sequence/museum_causal/museum_causal_4.png"" class=""exp-image"">
                            <img src=""images/causal_sequence/museum_causal/museum_causal_2.png"" class=""exp-image"">
                        </div>","0","part3_final_choice","","museum_causal","","3","4","1"
"","","","","","html-keyboard-response","152","534426","0.0-150.0-0.0","5F1A52C86AF248B5BE88E6175692917B","019ce67b-61f4-7f3a-8f2c-7da3f2aa62a4","019ce643-47c6-74a0-b3d2-7bf5651ded46","","null","
                        <div style=""font-family: Arial; margin-bottom: 20px;""><h3>Which image is more valuable?</h3></div>
                        <div class=""stimulus-container"" style=""display: flex; width: 1100px; justify-content: center; gap: 50px;"">
                            <img src=""images/causal_sequence/the_performance_causal/the_performance_causal_3.png"" class=""exp-image"">
                            <img src=""images/causal_sequence/the_performance_causal/the_performance_causal_5.png"" class=""exp-image"">
                        </div>","null","","","","","","",""
"","","","","","html-button-response","153","535788","0.0-150.0-1.0","5F1A52C86AF248B5BE88E6175692917B","019ce67b-61f4-7f3a-8f2c-7da3f2aa62a4","019ce643-47c6-74a0-b3d2-7bf5651ded46","","1361","
                        <div style=""font-family: Arial; margin-bottom: 20px;""><h3>Which image is more valuable?</h3></div>
                        <div class=""stimulus-container"" style=""display: flex; width: 1100px; justify-content: center; gap: 50px;"">
                            <img src=""images/causal_sequence/the_performance_causal/the_performance_causal_3.png"" class=""exp-image"">
                            <img src=""images/causal_sequence/the_performance_causal/the_performance_causal_5.png"" class=""exp-image"">
                        </div>","1","part3_final_choice","","the_performance_causal","","4","5","1"
"","","","","","html-keyboard-response","154","545794","0.0-151.0-0.0","5F1A52C86AF248B5BE88E6175692917B","019ce67b-61f4-7f3a-8f2c-7da3f2aa62a4","019ce643-47c6-74a0-b3d2-7bf5651ded46","","null","
                        <div style=""font-family: Arial; margin-bottom: 20px;""><h3>Which image is more valuable?</h3></div>
                        <div class=""stimulus-container"" style=""display: flex; width: 1100px; justify-content: center; gap: 50px;"">
                            <img src=""images/causal_sequence/saving_a_cat_causal/saving_a_cat_causal_7.png"" class=""exp-image"">
                            <img src=""images/causal_sequence/saving_a_cat_causal/saving_a_cat_causal_5.png"" class=""exp-image"">
                        </div>","null","","","","","","",""
"","","","","","html-button-response","155","547106","0.0-151.0-1.0","5F1A52C86AF248B5BE88E6175692917B","019ce67b-61f4-7f3a-8f2c-7da3f2aa62a4","019ce643-47c6-74a0-b3d2-7bf5651ded46","","1311","
                        <div style=""font-family: Arial; margin-bottom: 20px;""><h3>Which image is more valuable?</h3></div>
                        <div class=""stimulus-container"" style=""display: flex; width: 1100px; justify-content: center; gap: 50px;"">
                            <img src=""images/causal_sequence/saving_a_cat_causal/saving_a_cat_causal_7.png"" class=""exp-image"">
                            <img src=""images/causal_sequence/saving_a_cat_causal/saving_a_cat_causal_5.png"" class=""exp-image"">
                        </div>","0","part3_final_choice","","saving_a_cat_causal","","6","7","1"
"","","","","","html-keyboard-response","156","557115","0.0-152.0-0.0","5F1A52C86AF248B5BE88E6175692917B","019ce67b-61f4-7f3a-8f2c-7da3f2aa62a4","019ce643-47c6-74a0-b3d2-7bf5651ded46","","null","
                        <div style=""font-family: Arial; margin-bottom: 20px;""><h3>Which image is more valuable?</h3></div>
                        <div class=""stimulus-container"" style=""display: flex; width: 1100px; justify-content: center; gap: 50px;"">
                            <img src=""images/causal_sequence/coin_causal/coin_causal_4.png"" class=""exp-image"">
                            <img src=""images/causal_sequence/coin_causal/coin_causal_2.png"" class=""exp-image"">
                        </div>","null","","","","","","",""
"","","","","","html-button-response","157","558351","0.0-152.0-1.0","5F1A52C86AF248B5BE88E6175692917B","019ce67b-61f4-7f3a-8f2c-7da3f2aa62a4","019ce643-47c6-74a0-b3d2-7bf5651ded46","","1235","
                        <div style=""font-family: Arial; margin-bottom: 20px;""><h3>Which image is more valuable?</h3></div>
                        <div class=""stimulus-container"" style=""display: flex; width: 1100px; justify-content: center; gap: 50px;"">
                            <img src=""images/causal_sequence/coin_causal/coin_causal_4.png"" class=""exp-image"">
                            <img src=""images/causal_sequence/coin_causal/coin_causal_2.png"" class=""exp-image"">
                        </div>","0","part3_final_choice","","coin_causal","","3","4","1"
"","","","","","html-keyboard-response","158","568355","0.0-153.0-0.0","5F1A52C86AF248B5BE88E6175692917B","019ce67b-61f4-7f3a-8f2c-7da3f2aa62a4","019ce643-47c6-74a0-b3d2-7bf5651ded46","","null","
                        <div style=""font-family: Arial; margin-bottom: 20px;""><h3>Which image is more valuable?</h3></div>
                        <div class=""stimulus-container"" style=""display: flex; width: 1100px; justify-content: center; gap: 50px;"">
                            <img src=""images/causal_sequence/dog_causal/dog_causal_2.png"" class=""exp-image"">
                            <img src=""images/causal_sequence/dog_causal/dog_causal_4.png"" class=""exp-image"">
                        </div>","null","","","","","","",""
"","","","","","html-button-response","159","569133","0.0-153.0-1.0","5F1A52C86AF248B5BE88E6175692917B","019ce67b-61f4-7f3a-8f2c-7da3f2aa62a4","019ce643-47c6-74a0-b3d2-7bf5651ded46","","777","
                        <div style=""font-family: Arial; margin-bottom: 20px;""><h3>Which image is more valuable?</h3></div>
                        <div class=""stimulus-container"" style=""display: flex; width: 1100px; justify-content: center; gap: 50px;"">
                            <img src=""images/causal_sequence/dog_causal/dog_causal_2.png"" class=""exp-image"">
                            <img src=""images/causal_sequence/dog_causal/dog_causal_4.png"" class=""exp-image"">
                        </div>","1","part3_final_choice","","dog_causal","","3","4","1"
"","","","","","survey-text","160","596903","0.0-154.0","5F1A52C86AF248B5BE88E6175692917B","019ce67b-61f4-7f3a-8f2c-7da3f2aa62a4","019ce643-47c6-74a0-b3d2-7bf5651ded46","","27760","","{""gender"":""fenale"",""age"":""35"",""decision_strategy"":""some of them was already shown as valuable"",""consistency_check"":""no ""}","demographics_and_strategy","","","","","",""
"","","","","","instructions","161","604566","0.0-155.0","5F1A52C86AF248B5BE88E6175692917B","019ce67b-61f4-7f3a-8f2c-7da3f2aa62a4","019ce643-47c6-74a0-b3d2-7bf5651ded46","[{""page_index"":0,""viewing_time"":7661}]","7662","","","","","","","","",""
