"success","timeout","failed_images","failed_audio","failed_video","trial_type","trial_index","time_elapsed","internal_node_id","view_history","rt","stimulus","response","task","folder","sequence_type","img_idx","value","version","comparison_type","block_story","block_info","left_path","right_path"
"true","false","[]","[]","[]","preload","0","1841","0.0-0.0","","","","","","","","","","","","","","",""
"","","","","","instructions","1","4242","0.0-1.0","[{""page_index"":0,""viewing_time"":2401}]","2401","","","","","","","","","","","","",""
"","","","","","instructions","2","11342","0.0-2.0","[{""page_index"":0,""viewing_time"":7098}]","7098","","","","","","","","","","","","",""
"true","","","","","fullscreen","3","13910","0.0-3.0","","1563","","","","","","","","","","","","",""
"","","","","","instructions","4","20776","0.0-4.0","[{""page_index"":0,""viewing_time"":6865}]","6866","","","","","","","","","","","","",""
"","","","","","html-keyboard-response","5","22779","0.0-5.0","","null","<div class=""transition-square""></div>","null","","","","","","","","","","",""
"","","","","","html-keyboard-response","6","27782","0.0-6.0","","null","<div class=""stimulus-container""><img src=""images_story_vs_info/info_3_1.png"" class=""exp-image""><div class=""question-area""></div></div>","null","","","","","","","","","","",""
"","","","","","html-button-response","7","30108","0.0-7.0","","2323","<div class=""stimulus-container""><img src=""images_story_vs_info/info_3_1.png"" class=""exp-image""><div class=""question-area""><p style=""font-size: 20px; font-weight: bold; margin: 0;"">Is there a person in the description or image?</p></div></div>","1","observation","info_3","info","1","","","","","","",""
"","","","","","html-keyboard-response","8","35111","0.0-8.0","","null","<div class=""stimulus-container""><img src=""images_story_vs_info/info_3_2.png"" class=""exp-image""><div class=""question-area""></div></div>","null","","","","","","","","","","",""
"","","","","","html-button-response","9","36025","0.0-9.0","","912","<div class=""stimulus-container""><img src=""images_story_vs_info/info_3_2.png"" class=""exp-image""><div class=""question-area""><p style=""font-size: 20px; font-weight: bold; margin: 0;"">Is there a person in the description or image?</p></div></div>","1","observation","info_3","info","2","","","","","","",""
"","","","","","html-keyboard-response","10","41027","0.0-10.0","","null","<div class=""stimulus-container""><img src=""images_story_vs_info/info_3_3.png"" class=""exp-image""><div class=""question-area""></div></div>","null","","","","","","","","","","",""
"","","","","","html-button-response","11","42174","0.0-11.0","","1145","<div class=""stimulus-container""><img src=""images_story_vs_info/info_3_3.png"" class=""exp-image""><div class=""question-area""><p style=""font-size: 20px; font-weight: bold; margin: 0;"">Is there a person in the description or image?</p></div></div>","1","observation","info_3","info","3","","","","","","",""
"","","","","","html-keyboard-response","12","47177","0.0-12.0","","null","<div class=""stimulus-container""><img src=""images_story_vs_info/info_3_4.png"" class=""exp-image""><div class=""question-area""></div></div>","null","","","","","","","","","","",""
"","","","","","html-button-response","13","49191","0.0-13.0","","2013","<div class=""stimulus-container""><img src=""images_story_vs_info/info_3_4.png"" class=""exp-image""><div class=""question-area""><p style=""font-size: 20px; font-weight: bold; margin: 0;"">Is there a person in the description or image?</p></div></div>","0","observation","info_3","info","4","","","","","","",""
"","","","","","html-keyboard-response","14","54192","0.0-14.0","","null","<div class=""stimulus-container""><img src=""images_story_vs_info/info_3_5.png"" class=""exp-image""><div class=""question-area""></div></div>","null","","","","","","","","","","",""
"","","","","","html-button-response","15","54974","0.0-15.0","","780","<div class=""stimulus-container""><img src=""images_story_vs_info/info_3_5.png"" class=""exp-image""><div class=""question-area""><p style=""font-size: 20px; font-weight: bold; margin: 0;"">Is there a person in the description or image?</p></div></div>","1","observation","info_3","info","5","","","","","","",""
"","","","","","html-keyboard-response","16","56976","0.0-16.0","","null","<div class=""transition-square""></div>","null","","","","","","","","","","",""
"","","","","","html-keyboard-response","17","61978","0.0-17.0","","null","<div class=""stimulus-container""><img src=""images_story_vs_info/story_4_1.png"" class=""exp-image""><div class=""question-area""></div></div>","null","","","","","","","","","","",""
"","","","","","html-button-response","18","64639","0.0-18.0","","2660","<div class=""stimulus-container""><img src=""images_story_vs_info/story_4_1.png"" class=""exp-image""><div class=""question-area""><p style=""font-size: 20px; font-weight: bold; margin: 0;"">Is there a person in the description or image?</p></div></div>","0","observation","story_4","story","1","","","","","","",""
"","","","","","html-keyboard-response","19","69642","0.0-19.0","","null","<div class=""stimulus-container""><img src=""images_story_vs_info/story_4_2.png"" class=""exp-image""><div class=""question-area""></div></div>","null","","","","","","","","","","",""
"","","","","","html-button-response","20","70292","0.0-20.0","","648","<div class=""stimulus-container""><img src=""images_story_vs_info/story_4_2.png"" class=""exp-image""><div class=""question-area""><p style=""font-size: 20px; font-weight: bold; margin: 0;"">Is there a person in the description or image?</p></div></div>","0","observation","story_4","story","2","","","","","","",""
"","","","","","html-keyboard-response","21","75294","0.0-21.0","","null","<div class=""stimulus-container""><img src=""images_story_vs_info/story_4_3.png"" class=""exp-image""><div class=""question-area""></div></div>","null","","","","","","","","","","",""
"","","","","","html-button-response","22","75891","0.0-22.0","","595","<div class=""stimulus-container""><img src=""images_story_vs_info/story_4_3.png"" class=""exp-image""><div class=""question-area""><p style=""font-size: 20px; font-weight: bold; margin: 0;"">Is there a person in the description or image?</p></div></div>","0","observation","story_4","story","3","","","","","","",""
"","","","","","html-keyboard-response","23","80894","0.0-23.0","","null","<div class=""stimulus-container""><img src=""images_story_vs_info/story_4_4.png"" class=""exp-image""><div class=""question-area""></div></div>","null","","","","","","","","","","",""
"","","","","","html-button-response","24","81675","0.0-24.0","","779","<div class=""stimulus-container""><img src=""images_story_vs_info/story_4_4.png"" class=""exp-image""><div class=""question-area""><p style=""font-size: 20px; font-weight: bold; margin: 0;"">Is there a person in the description or image?</p></div></div>","0","observation","story_4","story","4","","","","","","",""
"","","","","","html-keyboard-response","25","86677","0.0-25.0","","null","<div class=""stimulus-container""><img src=""images_story_vs_info/story_4_5.png"" class=""exp-image""><div class=""question-area""></div></div>","null","","","","","","","","","","",""
"","","","","","html-button-response","26","87225","0.0-26.0","","546","<div class=""stimulus-container""><img src=""images_story_vs_info/story_4_5.png"" class=""exp-image""><div class=""question-area""><p style=""font-size: 20px; font-weight: bold; margin: 0;"">Is there a person in the description or image?</p></div></div>","0","observation","story_4","story","5","","","","","","",""
"","","","","","html-keyboard-response","27","89227","0.0-27.0","","null","<div class=""transition-square""></div>","null","","","","","","","","","","",""
"","","","","","html-keyboard-response","28","94230","0.0-28.0","","null","<div class=""stimulus-container""><img src=""images_story_vs_info/info_2_1.png"" class=""exp-image""><div class=""question-area""></div></div>","null","","","","","","","","","","",""
"","","","","","html-button-response","29","94924","0.0-29.0","","693","<div class=""stimulus-container""><img src=""images_story_vs_info/info_2_1.png"" class=""exp-image""><div class=""question-area""><p style=""font-size: 20px; font-weight: bold; margin: 0;"">Is there a person in the description or image?</p></div></div>","1","observation","info_2","info","1","","","","","","",""
"","","","","","html-keyboard-response","30","99927","0.0-30.0","","null","<div class=""stimulus-container""><img src=""images_story_vs_info/info_2_2.png"" class=""exp-image""><div class=""question-area""></div></div>","null","","","","","","","","","","",""
"","","","","","html-button-response","31","100591","0.0-31.0","","662","<div class=""stimulus-container""><img src=""images_story_vs_info/info_2_2.png"" class=""exp-image""><div class=""question-area""><p style=""font-size: 20px; font-weight: bold; margin: 0;"">Is there a person in the description or image?</p></div></div>","1","observation","info_2","info","2","","","","","","",""
"","","","","","html-keyboard-response","32","105594","0.0-32.0","","null","<div class=""stimulus-container""><img src=""images_story_vs_info/info_2_3.png"" class=""exp-image""><div class=""question-area""></div></div>","null","","","","","","","","","","",""
"","","","","","html-button-response","33","106224","0.0-33.0","","629","<div class=""stimulus-container""><img src=""images_story_vs_info/info_2_3.png"" class=""exp-image""><div class=""question-area""><p style=""font-size: 20px; font-weight: bold; margin: 0;"">Is there a person in the description or image?</p></div></div>","1","observation","info_2","info","3","","","","","","",""
"","","","","","html-keyboard-response","34","111227","0.0-34.0","","null","<div class=""stimulus-container""><img src=""images_story_vs_info/info_2_4.png"" class=""exp-image""><div class=""question-area""></div></div>","null","","","","","","","","","","",""
"","","","","","html-button-response","35","112107","0.0-35.0","","879","<div class=""stimulus-container""><img src=""images_story_vs_info/info_2_4.png"" class=""exp-image""><div class=""question-area""><p style=""font-size: 20px; font-weight: bold; margin: 0;"">Is there a person in the description or image?</p></div></div>","1","observation","info_2","info","4","","","","","","",""
"","","","","","html-keyboard-response","36","117110","0.0-36.0","","null","<div class=""stimulus-container""><img src=""images_story_vs_info/info_2_5.png"" class=""exp-image""><div class=""question-area""></div></div>","null","","","","","","","","","","",""
"","","","","","html-button-response","37","117791","0.0-37.0","","680","<div class=""stimulus-container""><img src=""images_story_vs_info/info_2_5.png"" class=""exp-image""><div class=""question-area""><p style=""font-size: 20px; font-weight: bold; margin: 0;"">Is there a person in the description or image?</p></div></div>","1","observation","info_2","info","5","","","","","","",""
"","","","","","html-keyboard-response","38","119794","0.0-38.0","","null","<div class=""transition-square""></div>","null","","","","","","","","","","",""
"","","","","","html-keyboard-response","39","124796","0.0-39.0","","null","<div class=""stimulus-container""><img src=""images_story_vs_info/story_1_1.png"" class=""exp-image""><div class=""question-area""></div></div>","null","","","","","","","","","","",""
"","","","","","html-button-response","40","126709","0.0-40.0","","1912","<div class=""stimulus-container""><img src=""images_story_vs_info/story_1_1.png"" class=""exp-image""><div class=""question-area""><p style=""font-size: 20px; font-weight: bold; margin: 0;"">Is there a person in the description or image?</p></div></div>","0","observation","story_1","story","1","","","","","","",""
"","","","","","html-keyboard-response","41","131712","0.0-41.0","","null","<div class=""stimulus-container""><img src=""images_story_vs_info/story_1_2.png"" class=""exp-image""><div class=""question-area""></div></div>","null","","","","","","","","","","",""
"","","","","","html-button-response","42","132258","0.0-42.0","","544","<div class=""stimulus-container""><img src=""images_story_vs_info/story_1_2.png"" class=""exp-image""><div class=""question-area""><p style=""font-size: 20px; font-weight: bold; margin: 0;"">Is there a person in the description or image?</p></div></div>","1","observation","story_1","story","2","","","","","","",""
"","","","","","html-keyboard-response","43","137261","0.0-43.0","","null","<div class=""stimulus-container""><img src=""images_story_vs_info/story_1_3.png"" class=""exp-image""><div class=""question-area""></div></div>","null","","","","","","","","","","",""
"","","","","","html-button-response","44","137759","0.0-44.0","","497","<div class=""stimulus-container""><img src=""images_story_vs_info/story_1_3.png"" class=""exp-image""><div class=""question-area""><p style=""font-size: 20px; font-weight: bold; margin: 0;"">Is there a person in the description or image?</p></div></div>","1","observation","story_1","story","3","","","","","","",""
"","","","","","html-keyboard-response","45","142762","0.0-45.0","","null","<div class=""stimulus-container""><img src=""images_story_vs_info/story_1_4.png"" class=""exp-image""><div class=""question-area""></div></div>","null","","","","","","","","","","",""
"","","","","","html-button-response","46","143274","0.0-46.0","","511","<div class=""stimulus-container""><img src=""images_story_vs_info/story_1_4.png"" class=""exp-image""><div class=""question-area""><p style=""font-size: 20px; font-weight: bold; margin: 0;"">Is there a person in the description or image?</p></div></div>","1","observation","story_1","story","4","","","","","","",""
"","","","","","html-keyboard-response","47","148277","0.0-47.0","","null","<div class=""stimulus-container""><img src=""images_story_vs_info/story_1_5.png"" class=""exp-image""><div class=""question-area""></div></div>","null","","","","","","","","","","",""
"","","","","","html-button-response","48","149491","0.0-48.0","","1213","<div class=""stimulus-container""><img src=""images_story_vs_info/story_1_5.png"" class=""exp-image""><div class=""question-area""><p style=""font-size: 20px; font-weight: bold; margin: 0;"">Is there a person in the description or image?</p></div></div>","1","observation","story_1","story","5","","","","","","",""
"","","","","","instructions","49","162708","0.0-49.0","[{""page_index"":0,""viewing_time"":13216}]","13217","","","","","","","","","","","","",""
"","","","","","html-button-response","50","166741","0.0-50.0","","4031","<div class=""stimulus-container""><p style=""font-family:Arial; font-size:20px;"">The event is reaching its end...</p><img src=""images_story_vs_info/info_2_5.png"" class=""exp-image""></div>","0","","","","","","","","","","",""
"","","","","","html-button-response","51","174458","0.0-51.0","","7715","<div class=""stimulus-container""><p style=""font-family:Arial; font-size:20px;"">The outcome:</p><img src=""images_story_vs_info/info_2_6_b.png"" class=""exp-image""><div class=""value-tag val-low"">This outcome is worth: $0</div></div>","0","learning","info_2","","","$0","b","","","","",""
"","","","","","html-button-response","52","175891","0.0-52.0","","1432","<div class=""stimulus-container""><p style=""font-family:Arial; font-size:20px;"">The event is reaching its end...</p><img src=""images_story_vs_info/story_4_5.png"" class=""exp-image""></div>","0","","","","","","","","","","",""
"","","","","","html-button-response","53","182508","0.0-53.0","","6615","<div class=""stimulus-container""><p style=""font-family:Arial; font-size:20px;"">The outcome:</p><img src=""images_story_vs_info/story_4_6_a.png"" class=""exp-image""><div class=""value-tag val-high"">This outcome is worth: $100</div></div>","0","learning","story_4","","","$100","a","","","","",""
"","","","","","html-button-response","54","183858","0.0-54.0","","1349","<div class=""stimulus-container""><p style=""font-family:Arial; font-size:20px;"">The event is reaching its end...</p><img src=""images_story_vs_info/info_3_5.png"" class=""exp-image""></div>","0","","","","","","","","","","",""
"","","","","","html-button-response","55","190691","0.0-55.0","","6831","<div class=""stimulus-container""><p style=""font-family:Arial; font-size:20px;"">The outcome:</p><img src=""images_story_vs_info/info_3_6_a.png"" class=""exp-image""><div class=""value-tag val-high"">This outcome is worth: $100</div></div>","0","learning","info_3","","","$100","a","","","","",""
"","","","","","html-button-response","56","192859","0.0-56.0","","2166","<div class=""stimulus-container""><p style=""font-family:Arial; font-size:20px;"">The event is reaching its end...</p><img src=""images_story_vs_info/story_1_5.png"" class=""exp-image""></div>","0","","","","","","","","","","",""
"","","","","","html-button-response","57","199558","0.0-57.0","","6697","<div class=""stimulus-container""><p style=""font-family:Arial; font-size:20px;"">The outcome:</p><img src=""images_story_vs_info/story_1_6_b.png"" class=""exp-image""><div class=""value-tag val-low"">This outcome is worth: $0</div></div>","0","learning","story_1","","","$0","b","","","","",""
"","","","","","instructions","58","206124","0.0-58.0","[{""page_index"":0,""viewing_time"":6566}]","6566","","","","","","","","","","","","",""
"","","","","","html-button-response","59","215658","0.0-59.0","","9531","
                <div style=""font-family: Arial; margin-bottom: 20px;""><h3>Which image is worth <b>more money</b>?</h3></div>
                <div class=""stimulus-container"" style=""display: flex; flex-direction: row; width: 800px; justify-content: center; gap: 30px;"">
                    <img src=""images_story_vs_info/info_3_2.png"" class=""small-image"">
                    <img src=""images_story_vs_info/story_4_2.png"" class=""small-image"">
                </div>","1","choice_comparison","","","2","","","Valuable_Story_vs_Info","story_4","info_3","images_story_vs_info/info_3_2.png","images_story_vs_info/story_4_2.png"
"","","","","","html-button-response","60","223159","0.0-60.0","","7499","
                <div style=""font-family: Arial; margin-bottom: 20px;""><h3>Which image is worth <b>more money</b>?</h3></div>
                <div class=""stimulus-container"" style=""display: flex; flex-direction: row; width: 800px; justify-content: center; gap: 30px;"">
                    <img src=""images_story_vs_info/info_2_2.png"" class=""small-image"">
                    <img src=""images_story_vs_info/story_1_2.png"" class=""small-image"">
                </div>","1","choice_comparison","","","2","","","Neutral_Story_vs_Info","story_1","info_2","images_story_vs_info/info_2_2.png","images_story_vs_info/story_1_2.png"
"","","","","","html-button-response","61","226208","0.0-61.0","","3048","
                <div style=""font-family: Arial; margin-bottom: 20px;""><h3>Which image is worth <b>more money</b>?</h3></div>
                <div class=""stimulus-container"" style=""display: flex; flex-direction: row; width: 800px; justify-content: center; gap: 30px;"">
                    <img src=""images_story_vs_info/story_1_1.png"" class=""small-image"">
                    <img src=""images_story_vs_info/info_2_1.png"" class=""small-image"">
                </div>","0","choice_comparison","","","1","","","Neutral_Story_vs_Info","story_1","info_2","images_story_vs_info/story_1_1.png","images_story_vs_info/info_2_1.png"
"","","","","","html-button-response","62","228441","0.0-62.0","","2231","
                <div style=""font-family: Arial; margin-bottom: 20px;""><h3>Which image is worth <b>more money</b>?</h3></div>
                <div class=""stimulus-container"" style=""display: flex; flex-direction: row; width: 800px; justify-content: center; gap: 30px;"">
                    <img src=""images_story_vs_info/info_3_3.png"" class=""small-image"">
                    <img src=""images_story_vs_info/story_4_3.png"" class=""small-image"">
                </div>","1","choice_comparison","","","3","","","Valuable_Story_vs_Info","story_4","info_3","images_story_vs_info/info_3_3.png","images_story_vs_info/story_4_3.png"
"","","","","","html-button-response","63","233291","0.0-63.0","","4849","
                <div style=""font-family: Arial; margin-bottom: 20px;""><h3>Which image is worth <b>more money</b>?</h3></div>
                <div class=""stimulus-container"" style=""display: flex; flex-direction: row; width: 800px; justify-content: center; gap: 30px;"">
                    <img src=""images_story_vs_info/info_3_6_b.png"" class=""small-image"">
                    <img src=""images_story_vs_info/story_4_6_b.png"" class=""small-image"">
                </div>","1","choice_comparison","","","6","","","Valuable_Story_vs_Info","story_4","info_3","images_story_vs_info/info_3_6_b.png","images_story_vs_info/story_4_6_b.png"
"","","","","","html-button-response","64","235343","0.0-64.0","","2050","
                <div style=""font-family: Arial; margin-bottom: 20px;""><h3>Which image is worth <b>more money</b>?</h3></div>
                <div class=""stimulus-container"" style=""display: flex; flex-direction: row; width: 800px; justify-content: center; gap: 30px;"">
                    <img src=""images_story_vs_info/story_1_3.png"" class=""small-image"">
                    <img src=""images_story_vs_info/info_2_3.png"" class=""small-image"">
                </div>","0","choice_comparison","","","3","","","Neutral_Story_vs_Info","story_1","info_2","images_story_vs_info/story_1_3.png","images_story_vs_info/info_2_3.png"
"","","","","","html-button-response","65","237241","0.0-65.0","","1896","
                <div style=""font-family: Arial; margin-bottom: 20px;""><h3>Which image is worth <b>more money</b>?</h3></div>
                <div class=""stimulus-container"" style=""display: flex; flex-direction: row; width: 800px; justify-content: center; gap: 30px;"">
                    <img src=""images_story_vs_info/story_1_4.png"" class=""small-image"">
                    <img src=""images_story_vs_info/info_2_4.png"" class=""small-image"">
                </div>","0","choice_comparison","","","4","","","Neutral_Story_vs_Info","story_1","info_2","images_story_vs_info/story_1_4.png","images_story_vs_info/info_2_4.png"
"","","","","","html-button-response","66","241740","0.0-66.0","","4497","
                <div style=""font-family: Arial; margin-bottom: 20px;""><h3>Which image is worth <b>more money</b>?</h3></div>
                <div class=""stimulus-container"" style=""display: flex; flex-direction: row; width: 800px; justify-content: center; gap: 30px;"">
                    <img src=""images_story_vs_info/story_4_1.png"" class=""small-image"">
                    <img src=""images_story_vs_info/info_3_1.png"" class=""small-image"">
                </div>","0","choice_comparison","","","1","","","Valuable_Story_vs_Info","story_4","info_3","images_story_vs_info/story_4_1.png","images_story_vs_info/info_3_1.png"
"","","","","","html-button-response","67","246142","0.0-67.0","","4401","
                <div style=""font-family: Arial; margin-bottom: 20px;""><h3>Which image is worth <b>more money</b>?</h3></div>
                <div class=""stimulus-container"" style=""display: flex; flex-direction: row; width: 800px; justify-content: center; gap: 30px;"">
                    <img src=""images_story_vs_info/story_4_5.png"" class=""small-image"">
                    <img src=""images_story_vs_info/info_3_5.png"" class=""small-image"">
                </div>","1","choice_comparison","","","5","","","Valuable_Story_vs_Info","story_4","info_3","images_story_vs_info/story_4_5.png","images_story_vs_info/info_3_5.png"
"","","","","","html-button-response","68","250158","0.0-68.0","","4014","
                <div style=""font-family: Arial; margin-bottom: 20px;""><h3>Which image is worth <b>more money</b>?</h3></div>
                <div class=""stimulus-container"" style=""display: flex; flex-direction: row; width: 800px; justify-content: center; gap: 30px;"">
                    <img src=""images_story_vs_info/story_4_4.png"" class=""small-image"">
                    <img src=""images_story_vs_info/info_3_4.png"" class=""small-image"">
                </div>","0","choice_comparison","","","4","","","Valuable_Story_vs_Info","story_4","info_3","images_story_vs_info/story_4_4.png","images_story_vs_info/info_3_4.png"
"","","","","","html-button-response","69","251974","0.0-69.0","","1815","
                <div style=""font-family: Arial; margin-bottom: 20px;""><h3>Which image is worth <b>more money</b>?</h3></div>
                <div class=""stimulus-container"" style=""display: flex; flex-direction: row; width: 800px; justify-content: center; gap: 30px;"">
                    <img src=""images_story_vs_info/story_1_5.png"" class=""small-image"">
                    <img src=""images_story_vs_info/info_2_5.png"" class=""small-image"">
                </div>","0","choice_comparison","","","5","","","Neutral_Story_vs_Info","story_1","info_2","images_story_vs_info/story_1_5.png","images_story_vs_info/info_2_5.png"
"","","","","","html-button-response","70","254709","0.0-70.0","","2733","
                <div style=""font-family: Arial; margin-bottom: 20px;""><h3>Which image is worth <b>more money</b>?</h3></div>
                <div class=""stimulus-container"" style=""display: flex; flex-direction: row; width: 800px; justify-content: center; gap: 30px;"">
                    <img src=""images_story_vs_info/story_1_6_b.png"" class=""small-image"">
                    <img src=""images_story_vs_info/info_2_6_b.png"" class=""small-image"">
                </div>","1","choice_comparison","","","6","","","Neutral_Story_vs_Info","story_1","info_2","images_story_vs_info/story_1_6_b.png","images_story_vs_info/info_2_6_b.png"
"","","","","","survey-text","71","385980","0.0-71.0","","131270","","{""choice_strategy"":""It seemed like when the picture features something tht contined something, it ws worth money. If it ist fetured  description (like jr is made of glass) describing wht it is, then it wasnt worth anything"",""gender"":""female"",""age"":""34""}","","","","","","","","","","",""
"","","","","","instructions","72","393873","0.0-72.0","[{""page_index"":0,""viewing_time"":7891}]","7892","","","","","","","","","","","","",""
