"success","timeout","failed_images","failed_audio","failed_video","trial_type","trial_index","time_elapsed","internal_node_id","subject_id","study_id","session_id","view_history","rt","stimulus","response","task","image_index","folder","sequence_type","valuable_image_index","reward_type","chosen_image_index","target_X","correct_choice"
"true","false","[]","[]","[]","preload","0","1803","0.0-0.0","9C6FFFBA22D141559B3804A811D42DAB","019cf071-3faf-7f1c-891b-806b3f778ddb","019ceff9-9f67-7034-9722-02cda2445e09","","","","","","","","","","","","",""
"","","","","","instructions","1","101507","0.0-1.0","9C6FFFBA22D141559B3804A811D42DAB","019cf071-3faf-7f1c-891b-806b3f778ddb","019ceff9-9f67-7034-9722-02cda2445e09","[{""page_index"":0,""viewing_time"":99703}]","99703","","","","","","","","","","",""
"","","","","","instructions","2","105381","0.0-2.0","9C6FFFBA22D141559B3804A811D42DAB","019cf071-3faf-7f1c-891b-806b3f778ddb","019ceff9-9f67-7034-9722-02cda2445e09","[{""page_index"":0,""viewing_time"":3874}]","3874","","","","","","","","","","",""
"true","","","","","fullscreen","3","299568","0.0-3.0","9C6FFFBA22D141559B3804A811D42DAB","019cf071-3faf-7f1c-891b-806b3f778ddb","019ceff9-9f67-7034-9722-02cda2445e09","","193182","","","","","","","","","","",""
"","","","","","instructions","4","395886","0.0-4.0","9C6FFFBA22D141559B3804A811D42DAB","019cf071-3faf-7f1c-891b-806b3f778ddb","019ceff9-9f67-7034-9722-02cda2445e09","[{""page_index"":0,""viewing_time"":96318}]","96318","","","","","","","","","","",""
"","","","","","instructions","5","435136","0.0-5.0","9C6FFFBA22D141559B3804A811D42DAB","019cf071-3faf-7f1c-891b-806b3f778ddb","019ceff9-9f67-7034-9722-02cda2445e09","[{""page_index"":0,""viewing_time"":39250}]","39250","","","","","","","","","","",""
"","","","","","html-keyboard-response","6","439152","0.0-6.0","9C6FFFBA22D141559B3804A811D42DAB","019cf071-3faf-7f1c-891b-806b3f778ddb","019ceff9-9f67-7034-9722-02cda2445e09","","null","
                <div class=""stimulus-container"">
                    <img src=""images/instructions/movie_1.png"" class=""exp-image"">
                    <div class=""question-area""></div> 
                </div>","null","","","","","","","","",""
"","","","","","html-button-response","7","441858","0.0-7.0","9C6FFFBA22D141559B3804A811D42DAB","019cf071-3faf-7f1c-891b-806b3f778ddb","019ceff9-9f67-7034-9722-02cda2445e09","","2704","
                <div class=""stimulus-container"">
                    <img src=""images/instructions/movie_1.png"" class=""exp-image"">
                    <div class=""question-area"">
                        <p style=""font-size: 20px; font-weight: bold; margin: 0;"">Was there a person in this image?</p>
                    </div>
                </div>","0","example_question","1","","","","","","",""
"","","","","","html-keyboard-response","8","445863","0.0-8.0","9C6FFFBA22D141559B3804A811D42DAB","019cf071-3faf-7f1c-891b-806b3f778ddb","019ceff9-9f67-7034-9722-02cda2445e09","","null","
                <div class=""stimulus-container"">
                    <img src=""images/instructions/movie_2.png"" class=""exp-image"">
                    <div class=""question-area""></div> 
                </div>","null","","","","","","","","",""
"","","","","","html-button-response","9","447986","0.0-9.0","9C6FFFBA22D141559B3804A811D42DAB","019cf071-3faf-7f1c-891b-806b3f778ddb","019ceff9-9f67-7034-9722-02cda2445e09","","2121","
                <div class=""stimulus-container"">
                    <img src=""images/instructions/movie_2.png"" class=""exp-image"">
                    <div class=""question-area"">
                        <p style=""font-size: 20px; font-weight: bold; margin: 0;"">Was there a person in this image?</p>
                    </div>
                </div>","0","example_question","2","","","","","","",""
"","","","","","html-keyboard-response","10","451996","0.0-10.0","9C6FFFBA22D141559B3804A811D42DAB","019cf071-3faf-7f1c-891b-806b3f778ddb","019ceff9-9f67-7034-9722-02cda2445e09","","null","
                <div class=""stimulus-container"">
                    <img src=""images/instructions/movie_3.png"" class=""exp-image"">
                    <div class=""question-area""></div> 
                </div>","null","","","","","","","","",""
"","","","","","html-button-response","11","453172","0.0-11.0","9C6FFFBA22D141559B3804A811D42DAB","019cf071-3faf-7f1c-891b-806b3f778ddb","019ceff9-9f67-7034-9722-02cda2445e09","","1175","
                <div class=""stimulus-container"">
                    <img src=""images/instructions/movie_3.png"" class=""exp-image"">
                    <div class=""question-area"">
                        <p style=""font-size: 20px; font-weight: bold; margin: 0;"">Was there a person in this image?</p>
                    </div>
                </div>","0","example_question","3","","","","","","",""
"","","","","","html-keyboard-response","12","457183","0.0-12.0","9C6FFFBA22D141559B3804A811D42DAB","019cf071-3faf-7f1c-891b-806b3f778ddb","019ceff9-9f67-7034-9722-02cda2445e09","","null","
                <div class=""stimulus-container"">
                    <img src=""images/instructions/movie_4.png"" class=""exp-image"">
                    <div class=""question-area""></div> 
                </div>","null","","","","","","","","",""
"","","","","","html-button-response","13","458076","0.0-13.0","9C6FFFBA22D141559B3804A811D42DAB","019cf071-3faf-7f1c-891b-806b3f778ddb","019ceff9-9f67-7034-9722-02cda2445e09","","893","
                <div class=""stimulus-container"">
                    <img src=""images/instructions/movie_4.png"" class=""exp-image"">
                    <div class=""question-area"">
                        <p style=""font-size: 20px; font-weight: bold; margin: 0;"">Was there a person in this image?</p>
                    </div>
                </div>","0","example_question","4","","","","","","",""
"","","","","","instructions","14","459654","0.0-14.0","9C6FFFBA22D141559B3804A811D42DAB","019cf071-3faf-7f1c-891b-806b3f778ddb","019ceff9-9f67-7034-9722-02cda2445e09","[{""page_index"":0,""viewing_time"":1577}]","1577","","","","","","","","","","",""
"","","","","","instructions","15","469213","0.0-15.0","9C6FFFBA22D141559B3804A811D42DAB","019cf071-3faf-7f1c-891b-806b3f778ddb","019ceff9-9f67-7034-9722-02cda2445e09","[{""page_index"":0,""viewing_time"":9559}]","9559","","","","","","","","","","",""
"","","","","","html-keyboard-response","16","470214","0.0-16.0","9C6FFFBA22D141559B3804A811D42DAB","019cf071-3faf-7f1c-891b-806b3f778ddb","019ceff9-9f67-7034-9722-02cda2445e09","","null","<div style=""background-color: white; width: 100vw; height: 100vh;""></div>","null","","","","","","","","",""
"","","","","","html-keyboard-response","17","475223","0.0-17.0","9C6FFFBA22D141559B3804A811D42DAB","019cf071-3faf-7f1c-891b-806b3f778ddb","019ceff9-9f67-7034-9722-02cda2445e09","","null","
                <div class=""stimulus-container"">
                    <img src=""images/causal_sequence/dog_causal/dog_causal_1.png"" class=""exp-image"">
                    <div class=""question-area""></div> 
                </div>","null","","","","","","","","",""
"","","","","","html-button-response","18","476720","0.0-18.0","9C6FFFBA22D141559B3804A811D42DAB","019cf071-3faf-7f1c-891b-806b3f778ddb","019ceff9-9f67-7034-9722-02cda2445e09","","1496","
                <div class=""stimulus-container"">
                    <img src=""images/causal_sequence/dog_causal/dog_causal_1.png"" class=""exp-image"">
                    <div class=""question-area"">
                        <p style=""font-size: 20px; font-weight: bold; margin: 0;"">Is there a person in this image?</p>
                    </div>
                </div>","0","main_experiment_trial","1","dog_causal","causal_sequence","","","","",""
"","","","","","html-keyboard-response","19","481725","0.0-19.0","9C6FFFBA22D141559B3804A811D42DAB","019cf071-3faf-7f1c-891b-806b3f778ddb","019ceff9-9f67-7034-9722-02cda2445e09","","null","
                <div class=""stimulus-container"">
                    <img src=""images/causal_sequence/dog_causal/dog_causal_2.png"" class=""exp-image"">
                    <div class=""question-area""></div> 
                </div>","null","","","","","","","","",""
"","","","","","html-button-response","20","482706","0.0-20.0","9C6FFFBA22D141559B3804A811D42DAB","019cf071-3faf-7f1c-891b-806b3f778ddb","019ceff9-9f67-7034-9722-02cda2445e09","","980","
                <div class=""stimulus-container"">
                    <img src=""images/causal_sequence/dog_causal/dog_causal_2.png"" class=""exp-image"">
                    <div class=""question-area"">
                        <p style=""font-size: 20px; font-weight: bold; margin: 0;"">Is there a person in this image?</p>
                    </div>
                </div>","0","main_experiment_trial","2","dog_causal","causal_sequence","","","","",""
"","","","","","html-keyboard-response","21","487719","0.0-21.0","9C6FFFBA22D141559B3804A811D42DAB","019cf071-3faf-7f1c-891b-806b3f778ddb","019ceff9-9f67-7034-9722-02cda2445e09","","null","
                <div class=""stimulus-container"">
                    <img src=""images/causal_sequence/dog_causal/dog_causal_3.png"" class=""exp-image"">
                    <div class=""question-area""></div> 
                </div>","null","","","","","","","","",""
"","","","","","html-button-response","22","488532","0.0-22.0","9C6FFFBA22D141559B3804A811D42DAB","019cf071-3faf-7f1c-891b-806b3f778ddb","019ceff9-9f67-7034-9722-02cda2445e09","","812","
                <div class=""stimulus-container"">
                    <img src=""images/causal_sequence/dog_causal/dog_causal_3.png"" class=""exp-image"">
                    <div class=""question-area"">
                        <p style=""font-size: 20px; font-weight: bold; margin: 0;"">Is there a person in this image?</p>
                    </div>
                </div>","0","main_experiment_trial","3","dog_causal","causal_sequence","","","","",""
"","","","","","html-keyboard-response","23","493540","0.0-23.0","9C6FFFBA22D141559B3804A811D42DAB","019cf071-3faf-7f1c-891b-806b3f778ddb","019ceff9-9f67-7034-9722-02cda2445e09","","null","
                <div class=""stimulus-container"">
                    <img src=""images/causal_sequence/dog_causal/dog_causal_4.png"" class=""exp-image"">
                    <div class=""question-area""></div> 
                </div>","null","","","","","","","","",""
"","","","","","html-button-response","24","494278","0.0-24.0","9C6FFFBA22D141559B3804A811D42DAB","019cf071-3faf-7f1c-891b-806b3f778ddb","019ceff9-9f67-7034-9722-02cda2445e09","","737","
                <div class=""stimulus-container"">
                    <img src=""images/causal_sequence/dog_causal/dog_causal_4.png"" class=""exp-image"">
                    <div class=""question-area"">
                        <p style=""font-size: 20px; font-weight: bold; margin: 0;"">Is there a person in this image?</p>
                    </div>
                </div>","0","main_experiment_trial","4","dog_causal","causal_sequence","","","","",""
"","","","","","html-keyboard-response","25","499295","0.0-25.0","9C6FFFBA22D141559B3804A811D42DAB","019cf071-3faf-7f1c-891b-806b3f778ddb","019ceff9-9f67-7034-9722-02cda2445e09","","null","
                <div class=""stimulus-container"">
                    <img src=""images/causal_sequence/dog_causal/dog_causal_5.png"" class=""exp-image"">
                    <div class=""question-area""></div> 
                </div>","null","","","","","","","","",""
"","","","","","html-button-response","26","499995","0.0-26.0","9C6FFFBA22D141559B3804A811D42DAB","019cf071-3faf-7f1c-891b-806b3f778ddb","019ceff9-9f67-7034-9722-02cda2445e09","","699","
                <div class=""stimulus-container"">
                    <img src=""images/causal_sequence/dog_causal/dog_causal_5.png"" class=""exp-image"">
                    <div class=""question-area"">
                        <p style=""font-size: 20px; font-weight: bold; margin: 0;"">Is there a person in this image?</p>
                    </div>
                </div>","0","main_experiment_trial","5","dog_causal","causal_sequence","","","","",""
"","","","","","html-keyboard-response","27","504999","0.0-27.0","9C6FFFBA22D141559B3804A811D42DAB","019cf071-3faf-7f1c-891b-806b3f778ddb","019ceff9-9f67-7034-9722-02cda2445e09","","null","
                <div class=""stimulus-container"">
                    <img src=""images/causal_sequence/dog_causal/dog_causal_6.png"" class=""exp-image"">
                    <div class=""question-area""></div> 
                </div>","null","","","","","","","","",""
"","","","","","html-button-response","28","506206","0.0-28.0","9C6FFFBA22D141559B3804A811D42DAB","019cf071-3faf-7f1c-891b-806b3f778ddb","019ceff9-9f67-7034-9722-02cda2445e09","","1206","
                <div class=""stimulus-container"">
                    <img src=""images/causal_sequence/dog_causal/dog_causal_6.png"" class=""exp-image"">
                    <div class=""question-area"">
                        <p style=""font-size: 20px; font-weight: bold; margin: 0;"">Is there a person in this image?</p>
                    </div>
                </div>","0","main_experiment_trial","6","dog_causal","causal_sequence","","","","",""
"","","","","","html-keyboard-response","29","511216","0.0-29.0","9C6FFFBA22D141559B3804A811D42DAB","019cf071-3faf-7f1c-891b-806b3f778ddb","019ceff9-9f67-7034-9722-02cda2445e09","","null","
                <div class=""stimulus-container"">
                    <img src=""images/causal_sequence/dog_causal/dog_causal_7.png"" class=""exp-image"">
                    <div class=""question-area""></div> 
                </div>","null","","","","","","","","",""
"","","","","","html-button-response","30","511972","0.0-30.0","9C6FFFBA22D141559B3804A811D42DAB","019cf071-3faf-7f1c-891b-806b3f778ddb","019ceff9-9f67-7034-9722-02cda2445e09","","756","
                <div class=""stimulus-container"">
                    <img src=""images/causal_sequence/dog_causal/dog_causal_7.png"" class=""exp-image"">
                    <div class=""question-area"">
                        <p style=""font-size: 20px; font-weight: bold; margin: 0;"">Is there a person in this image?</p>
                    </div>
                </div>","0","main_experiment_trial","7","dog_causal","causal_sequence","","","","",""
"","","","","","html-keyboard-response","31","516977","0.0-31.0","9C6FFFBA22D141559B3804A811D42DAB","019cf071-3faf-7f1c-891b-806b3f778ddb","019ceff9-9f67-7034-9722-02cda2445e09","","null","
                <div class=""stimulus-container"">
                    <img src=""images/causal_sequence/dog_causal/dog_causal_8.png"" class=""exp-image"">
                    <div class=""question-area""></div> 
                </div>","null","","","","","","","","",""
"","","","","","html-button-response","32","517774","0.0-32.0","9C6FFFBA22D141559B3804A811D42DAB","019cf071-3faf-7f1c-891b-806b3f778ddb","019ceff9-9f67-7034-9722-02cda2445e09","","797","
                <div class=""stimulus-container"">
                    <img src=""images/causal_sequence/dog_causal/dog_causal_8.png"" class=""exp-image"">
                    <div class=""question-area"">
                        <p style=""font-size: 20px; font-weight: bold; margin: 0;"">Is there a person in this image?</p>
                    </div>
                </div>","0","main_experiment_trial","8","dog_causal","causal_sequence","","","","",""
"","","","","","html-keyboard-response","33","522787","0.0-33.0","9C6FFFBA22D141559B3804A811D42DAB","019cf071-3faf-7f1c-891b-806b3f778ddb","019ceff9-9f67-7034-9722-02cda2445e09","","null","
                <div class=""stimulus-container"">
                    <img src=""images/causal_sequence/dog_causal/dog_causal_9.png"" class=""exp-image"">
                    <div class=""question-area""></div> 
                </div>","null","","","","","","","","",""
"","","","","","html-button-response","34","523466","0.0-34.0","9C6FFFBA22D141559B3804A811D42DAB","019cf071-3faf-7f1c-891b-806b3f778ddb","019ceff9-9f67-7034-9722-02cda2445e09","","679","
                <div class=""stimulus-container"">
                    <img src=""images/causal_sequence/dog_causal/dog_causal_9.png"" class=""exp-image"">
                    <div class=""question-area"">
                        <p style=""font-size: 20px; font-weight: bold; margin: 0;"">Is there a person in this image?</p>
                    </div>
                </div>","0","main_experiment_trial","9","dog_causal","causal_sequence","","","","",""
"","","","","","html-keyboard-response","35","528482","0.0-35.0","9C6FFFBA22D141559B3804A811D42DAB","019cf071-3faf-7f1c-891b-806b3f778ddb","019ceff9-9f67-7034-9722-02cda2445e09","","null","
                <div class=""stimulus-container"">
                    <img src=""images/causal_sequence/dog_causal/dog_causal_ten.png"" class=""exp-image"">
                    <div class=""question-area""></div> 
                </div>","null","","","","","","","","",""
"","","","","","html-button-response","36","529194","0.0-36.0","9C6FFFBA22D141559B3804A811D42DAB","019cf071-3faf-7f1c-891b-806b3f778ddb","019ceff9-9f67-7034-9722-02cda2445e09","","712","
                <div class=""stimulus-container"">
                    <img src=""images/causal_sequence/dog_causal/dog_causal_ten.png"" class=""exp-image"">
                    <div class=""question-area"">
                        <p style=""font-size: 20px; font-weight: bold; margin: 0;"">Is there a person in this image?</p>
                    </div>
                </div>","0","main_experiment_trial","ten","dog_causal","causal_sequence","","","","",""
"","","","","","html-keyboard-response","37","530199","0.0-37.0","9C6FFFBA22D141559B3804A811D42DAB","019cf071-3faf-7f1c-891b-806b3f778ddb","019ceff9-9f67-7034-9722-02cda2445e09","","null","<div style=""background-color: white; width: 100vw; height: 100vh;""></div>","null","","","","","","","","",""
"","","","","","html-keyboard-response","38","535204","0.0-38.0","9C6FFFBA22D141559B3804A811D42DAB","019cf071-3faf-7f1c-891b-806b3f778ddb","019ceff9-9f67-7034-9722-02cda2445e09","","null","
                <div class=""stimulus-container"">
                    <img src=""images/schematic_sequence/restaurant_scheme/restaurant_scheme_1.png"" class=""exp-image"">
                    <div class=""question-area""></div> 
                </div>","null","","","","","","","","",""
"","","","","","html-button-response","39","536223","0.0-39.0","9C6FFFBA22D141559B3804A811D42DAB","019cf071-3faf-7f1c-891b-806b3f778ddb","019ceff9-9f67-7034-9722-02cda2445e09","","1019","
                <div class=""stimulus-container"">
                    <img src=""images/schematic_sequence/restaurant_scheme/restaurant_scheme_1.png"" class=""exp-image"">
                    <div class=""question-area"">
                        <p style=""font-size: 20px; font-weight: bold; margin: 0;"">Is there a person in this image?</p>
                    </div>
                </div>","0","main_experiment_trial","1","restaurant_scheme","schematic_sequence","","","","",""
"","","","","","html-keyboard-response","40","541225","0.0-40.0","9C6FFFBA22D141559B3804A811D42DAB","019cf071-3faf-7f1c-891b-806b3f778ddb","019ceff9-9f67-7034-9722-02cda2445e09","","null","
                <div class=""stimulus-container"">
                    <img src=""images/schematic_sequence/restaurant_scheme/restaurant_scheme_2.png"" class=""exp-image"">
                    <div class=""question-area""></div> 
                </div>","null","","","","","","","","",""
"","","","","","html-button-response","41","542304","0.0-41.0","9C6FFFBA22D141559B3804A811D42DAB","019cf071-3faf-7f1c-891b-806b3f778ddb","019ceff9-9f67-7034-9722-02cda2445e09","","1078","
                <div class=""stimulus-container"">
                    <img src=""images/schematic_sequence/restaurant_scheme/restaurant_scheme_2.png"" class=""exp-image"">
                    <div class=""question-area"">
                        <p style=""font-size: 20px; font-weight: bold; margin: 0;"">Is there a person in this image?</p>
                    </div>
                </div>","1","main_experiment_trial","2","restaurant_scheme","schematic_sequence","","","","",""
"","","","","","html-keyboard-response","42","547311","0.0-42.0","9C6FFFBA22D141559B3804A811D42DAB","019cf071-3faf-7f1c-891b-806b3f778ddb","019ceff9-9f67-7034-9722-02cda2445e09","","null","
                <div class=""stimulus-container"">
                    <img src=""images/schematic_sequence/restaurant_scheme/restaurant_scheme_3.png"" class=""exp-image"">
                    <div class=""question-area""></div> 
                </div>","null","","","","","","","","",""
"","","","","","html-button-response","43","548170","0.0-43.0","9C6FFFBA22D141559B3804A811D42DAB","019cf071-3faf-7f1c-891b-806b3f778ddb","019ceff9-9f67-7034-9722-02cda2445e09","","858","
                <div class=""stimulus-container"">
                    <img src=""images/schematic_sequence/restaurant_scheme/restaurant_scheme_3.png"" class=""exp-image"">
                    <div class=""question-area"">
                        <p style=""font-size: 20px; font-weight: bold; margin: 0;"">Is there a person in this image?</p>
                    </div>
                </div>","1","main_experiment_trial","3","restaurant_scheme","schematic_sequence","","","","",""
"","","","","","html-keyboard-response","44","553170","0.0-44.0","9C6FFFBA22D141559B3804A811D42DAB","019cf071-3faf-7f1c-891b-806b3f778ddb","019ceff9-9f67-7034-9722-02cda2445e09","","null","
                <div class=""stimulus-container"">
                    <img src=""images/schematic_sequence/restaurant_scheme/restaurant_scheme_4.png"" class=""exp-image"">
                    <div class=""question-area""></div> 
                </div>","null","","","","","","","","",""
"","","","","","html-button-response","45","554040","0.0-45.0","9C6FFFBA22D141559B3804A811D42DAB","019cf071-3faf-7f1c-891b-806b3f778ddb","019ceff9-9f67-7034-9722-02cda2445e09","","869","
                <div class=""stimulus-container"">
                    <img src=""images/schematic_sequence/restaurant_scheme/restaurant_scheme_4.png"" class=""exp-image"">
                    <div class=""question-area"">
                        <p style=""font-size: 20px; font-weight: bold; margin: 0;"">Is there a person in this image?</p>
                    </div>
                </div>","0","main_experiment_trial","4","restaurant_scheme","schematic_sequence","","","","",""
"","","","","","html-keyboard-response","46","559054","0.0-46.0","9C6FFFBA22D141559B3804A811D42DAB","019cf071-3faf-7f1c-891b-806b3f778ddb","019ceff9-9f67-7034-9722-02cda2445e09","","null","
                <div class=""stimulus-container"">
                    <img src=""images/schematic_sequence/restaurant_scheme/restaurant_scheme_5.png"" class=""exp-image"">
                    <div class=""question-area""></div> 
                </div>","null","","","","","","","","",""
"","","","","","html-button-response","47","559884","0.0-47.0","9C6FFFBA22D141559B3804A811D42DAB","019cf071-3faf-7f1c-891b-806b3f778ddb","019ceff9-9f67-7034-9722-02cda2445e09","","829","
                <div class=""stimulus-container"">
                    <img src=""images/schematic_sequence/restaurant_scheme/restaurant_scheme_5.png"" class=""exp-image"">
                    <div class=""question-area"">
                        <p style=""font-size: 20px; font-weight: bold; margin: 0;"">Is there a person in this image?</p>
                    </div>
                </div>","0","main_experiment_trial","5","restaurant_scheme","schematic_sequence","","","","",""
"","","","","","html-keyboard-response","48","564889","0.0-48.0","9C6FFFBA22D141559B3804A811D42DAB","019cf071-3faf-7f1c-891b-806b3f778ddb","019ceff9-9f67-7034-9722-02cda2445e09","","null","
                <div class=""stimulus-container"">
                    <img src=""images/schematic_sequence/restaurant_scheme/restaurant_scheme_6.png"" class=""exp-image"">
                    <div class=""question-area""></div> 
                </div>","null","","","","","","","","",""
"","","","","","html-button-response","49","566355","0.0-49.0","9C6FFFBA22D141559B3804A811D42DAB","019cf071-3faf-7f1c-891b-806b3f778ddb","019ceff9-9f67-7034-9722-02cda2445e09","","1466","
                <div class=""stimulus-container"">
                    <img src=""images/schematic_sequence/restaurant_scheme/restaurant_scheme_6.png"" class=""exp-image"">
                    <div class=""question-area"">
                        <p style=""font-size: 20px; font-weight: bold; margin: 0;"">Is there a person in this image?</p>
                    </div>
                </div>","1","main_experiment_trial","6","restaurant_scheme","schematic_sequence","","","","",""
"","","","","","html-keyboard-response","50","571368","0.0-50.0","9C6FFFBA22D141559B3804A811D42DAB","019cf071-3faf-7f1c-891b-806b3f778ddb","019ceff9-9f67-7034-9722-02cda2445e09","","null","
                <div class=""stimulus-container"">
                    <img src=""images/schematic_sequence/restaurant_scheme/restaurant_scheme_7.png"" class=""exp-image"">
                    <div class=""question-area""></div> 
                </div>","null","","","","","","","","",""
"","","","","","html-button-response","51","572060","0.0-51.0","9C6FFFBA22D141559B3804A811D42DAB","019cf071-3faf-7f1c-891b-806b3f778ddb","019ceff9-9f67-7034-9722-02cda2445e09","","691","
                <div class=""stimulus-container"">
                    <img src=""images/schematic_sequence/restaurant_scheme/restaurant_scheme_7.png"" class=""exp-image"">
                    <div class=""question-area"">
                        <p style=""font-size: 20px; font-weight: bold; margin: 0;"">Is there a person in this image?</p>
                    </div>
                </div>","1","main_experiment_trial","7","restaurant_scheme","schematic_sequence","","","","",""
"","","","","","html-keyboard-response","52","577070","0.0-52.0","9C6FFFBA22D141559B3804A811D42DAB","019cf071-3faf-7f1c-891b-806b3f778ddb","019ceff9-9f67-7034-9722-02cda2445e09","","null","
                <div class=""stimulus-container"">
                    <img src=""images/schematic_sequence/restaurant_scheme/restaurant_scheme_8.png"" class=""exp-image"">
                    <div class=""question-area""></div> 
                </div>","null","","","","","","","","",""
"","","","","","html-button-response","53","577618","0.0-53.0","9C6FFFBA22D141559B3804A811D42DAB","019cf071-3faf-7f1c-891b-806b3f778ddb","019ceff9-9f67-7034-9722-02cda2445e09","","547","
                <div class=""stimulus-container"">
                    <img src=""images/schematic_sequence/restaurant_scheme/restaurant_scheme_8.png"" class=""exp-image"">
                    <div class=""question-area"">
                        <p style=""font-size: 20px; font-weight: bold; margin: 0;"">Is there a person in this image?</p>
                    </div>
                </div>","1","main_experiment_trial","8","restaurant_scheme","schematic_sequence","","","","",""
"","","","","","html-keyboard-response","54","582621","0.0-54.0","9C6FFFBA22D141559B3804A811D42DAB","019cf071-3faf-7f1c-891b-806b3f778ddb","019ceff9-9f67-7034-9722-02cda2445e09","","null","
                <div class=""stimulus-container"">
                    <img src=""images/schematic_sequence/restaurant_scheme/restaurant_scheme_9.png"" class=""exp-image"">
                    <div class=""question-area""></div> 
                </div>","null","","","","","","","","",""
"","","","","","html-button-response","55","583368","0.0-55.0","9C6FFFBA22D141559B3804A811D42DAB","019cf071-3faf-7f1c-891b-806b3f778ddb","019ceff9-9f67-7034-9722-02cda2445e09","","746","
                <div class=""stimulus-container"">
                    <img src=""images/schematic_sequence/restaurant_scheme/restaurant_scheme_9.png"" class=""exp-image"">
                    <div class=""question-area"">
                        <p style=""font-size: 20px; font-weight: bold; margin: 0;"">Is there a person in this image?</p>
                    </div>
                </div>","0","main_experiment_trial","9","restaurant_scheme","schematic_sequence","","","","",""
"","","","","","html-keyboard-response","56","588378","0.0-56.0","9C6FFFBA22D141559B3804A811D42DAB","019cf071-3faf-7f1c-891b-806b3f778ddb","019ceff9-9f67-7034-9722-02cda2445e09","","null","
                <div class=""stimulus-container"">
                    <img src=""images/schematic_sequence/restaurant_scheme/restaurant_scheme_ten.png"" class=""exp-image"">
                    <div class=""question-area""></div> 
                </div>","null","","","","","","","","",""
"","","","","","html-button-response","57","589817","0.0-57.0","9C6FFFBA22D141559B3804A811D42DAB","019cf071-3faf-7f1c-891b-806b3f778ddb","019ceff9-9f67-7034-9722-02cda2445e09","","1439","
                <div class=""stimulus-container"">
                    <img src=""images/schematic_sequence/restaurant_scheme/restaurant_scheme_ten.png"" class=""exp-image"">
                    <div class=""question-area"">
                        <p style=""font-size: 20px; font-weight: bold; margin: 0;"">Is there a person in this image?</p>
                    </div>
                </div>","0","main_experiment_trial","ten","restaurant_scheme","schematic_sequence","","","","",""
"","","","","","html-keyboard-response","58","590826","0.0-58.0","9C6FFFBA22D141559B3804A811D42DAB","019cf071-3faf-7f1c-891b-806b3f778ddb","019ceff9-9f67-7034-9722-02cda2445e09","","null","<div style=""background-color: white; width: 100vw; height: 100vh;""></div>","null","","","","","","","","",""
"","","","","","html-keyboard-response","59","595837","0.0-59.0","9C6FFFBA22D141559B3804A811D42DAB","019cf071-3faf-7f1c-891b-806b3f778ddb","019ceff9-9f67-7034-9722-02cda2445e09","","null","
                <div class=""stimulus-container"">
                    <img src=""images/schematic_sequence/interview_scheme/interview_scheme_1.png"" class=""exp-image"">
                    <div class=""question-area""></div> 
                </div>","null","","","","","","","","",""
"","","","","","html-button-response","60","596784","0.0-60.0","9C6FFFBA22D141559B3804A811D42DAB","019cf071-3faf-7f1c-891b-806b3f778ddb","019ceff9-9f67-7034-9722-02cda2445e09","","946","
                <div class=""stimulus-container"">
                    <img src=""images/schematic_sequence/interview_scheme/interview_scheme_1.png"" class=""exp-image"">
                    <div class=""question-area"">
                        <p style=""font-size: 20px; font-weight: bold; margin: 0;"">Is there a person in this image?</p>
                    </div>
                </div>","1","main_experiment_trial","1","interview_scheme","schematic_sequence","","","","",""
"","","","","","html-keyboard-response","61","601800","0.0-61.0","9C6FFFBA22D141559B3804A811D42DAB","019cf071-3faf-7f1c-891b-806b3f778ddb","019ceff9-9f67-7034-9722-02cda2445e09","","null","
                <div class=""stimulus-container"">
                    <img src=""images/schematic_sequence/interview_scheme/interview_scheme_2.png"" class=""exp-image"">
                    <div class=""question-area""></div> 
                </div>","null","","","","","","","","",""
"","","","","","html-button-response","62","602506","0.0-62.0","9C6FFFBA22D141559B3804A811D42DAB","019cf071-3faf-7f1c-891b-806b3f778ddb","019ceff9-9f67-7034-9722-02cda2445e09","","705","
                <div class=""stimulus-container"">
                    <img src=""images/schematic_sequence/interview_scheme/interview_scheme_2.png"" class=""exp-image"">
                    <div class=""question-area"">
                        <p style=""font-size: 20px; font-weight: bold; margin: 0;"">Is there a person in this image?</p>
                    </div>
                </div>","1","main_experiment_trial","2","interview_scheme","schematic_sequence","","","","",""
"","","","","","html-keyboard-response","63","607508","0.0-63.0","9C6FFFBA22D141559B3804A811D42DAB","019cf071-3faf-7f1c-891b-806b3f778ddb","019ceff9-9f67-7034-9722-02cda2445e09","","null","
                <div class=""stimulus-container"">
                    <img src=""images/schematic_sequence/interview_scheme/interview_scheme_3.png"" class=""exp-image"">
                    <div class=""question-area""></div> 
                </div>","null","","","","","","","","",""
"","","","","","html-button-response","64","608358","0.0-64.0","9C6FFFBA22D141559B3804A811D42DAB","019cf071-3faf-7f1c-891b-806b3f778ddb","019ceff9-9f67-7034-9722-02cda2445e09","","849","
                <div class=""stimulus-container"">
                    <img src=""images/schematic_sequence/interview_scheme/interview_scheme_3.png"" class=""exp-image"">
                    <div class=""question-area"">
                        <p style=""font-size: 20px; font-weight: bold; margin: 0;"">Is there a person in this image?</p>
                    </div>
                </div>","1","main_experiment_trial","3","interview_scheme","schematic_sequence","","","","",""
"","","","","","html-keyboard-response","65","613369","0.0-65.0","9C6FFFBA22D141559B3804A811D42DAB","019cf071-3faf-7f1c-891b-806b3f778ddb","019ceff9-9f67-7034-9722-02cda2445e09","","null","
                <div class=""stimulus-container"">
                    <img src=""images/schematic_sequence/interview_scheme/interview_scheme_4.png"" class=""exp-image"">
                    <div class=""question-area""></div> 
                </div>","null","","","","","","","","",""
"","","","","","html-button-response","66","613890","0.0-66.0","9C6FFFBA22D141559B3804A811D42DAB","019cf071-3faf-7f1c-891b-806b3f778ddb","019ceff9-9f67-7034-9722-02cda2445e09","","520","
                <div class=""stimulus-container"">
                    <img src=""images/schematic_sequence/interview_scheme/interview_scheme_4.png"" class=""exp-image"">
                    <div class=""question-area"">
                        <p style=""font-size: 20px; font-weight: bold; margin: 0;"">Is there a person in this image?</p>
                    </div>
                </div>","1","main_experiment_trial","4","interview_scheme","schematic_sequence","","","","",""
"","","","","","html-keyboard-response","67","618894","0.0-67.0","9C6FFFBA22D141559B3804A811D42DAB","019cf071-3faf-7f1c-891b-806b3f778ddb","019ceff9-9f67-7034-9722-02cda2445e09","","null","
                <div class=""stimulus-container"">
                    <img src=""images/schematic_sequence/interview_scheme/interview_scheme_5.png"" class=""exp-image"">
                    <div class=""question-area""></div> 
                </div>","null","","","","","","","","",""
"","","","","","html-button-response","68","619964","0.0-68.0","9C6FFFBA22D141559B3804A811D42DAB","019cf071-3faf-7f1c-891b-806b3f778ddb","019ceff9-9f67-7034-9722-02cda2445e09","","1069","
                <div class=""stimulus-container"">
                    <img src=""images/schematic_sequence/interview_scheme/interview_scheme_5.png"" class=""exp-image"">
                    <div class=""question-area"">
                        <p style=""font-size: 20px; font-weight: bold; margin: 0;"">Is there a person in this image?</p>
                    </div>
                </div>","0","main_experiment_trial","5","interview_scheme","schematic_sequence","","","","",""
"","","","","","html-keyboard-response","69","624968","0.0-69.0","9C6FFFBA22D141559B3804A811D42DAB","019cf071-3faf-7f1c-891b-806b3f778ddb","019ceff9-9f67-7034-9722-02cda2445e09","","null","
                <div class=""stimulus-container"">
                    <img src=""images/schematic_sequence/interview_scheme/interview_scheme_6.png"" class=""exp-image"">
                    <div class=""question-area""></div> 
                </div>","null","","","","","","","","",""
"","","","","","html-button-response","70","625448","0.0-70.0","9C6FFFBA22D141559B3804A811D42DAB","019cf071-3faf-7f1c-891b-806b3f778ddb","019ceff9-9f67-7034-9722-02cda2445e09","","479","
                <div class=""stimulus-container"">
                    <img src=""images/schematic_sequence/interview_scheme/interview_scheme_6.png"" class=""exp-image"">
                    <div class=""question-area"">
                        <p style=""font-size: 20px; font-weight: bold; margin: 0;"">Is there a person in this image?</p>
                    </div>
                </div>","0","main_experiment_trial","6","interview_scheme","schematic_sequence","","","","",""
"","","","","","html-keyboard-response","71","630450","0.0-71.0","9C6FFFBA22D141559B3804A811D42DAB","019cf071-3faf-7f1c-891b-806b3f778ddb","019ceff9-9f67-7034-9722-02cda2445e09","","null","
                <div class=""stimulus-container"">
                    <img src=""images/schematic_sequence/interview_scheme/interview_scheme_7.png"" class=""exp-image"">
                    <div class=""question-area""></div> 
                </div>","null","","","","","","","","",""
"","","","","","html-button-response","72","631134","0.0-72.0","9C6FFFBA22D141559B3804A811D42DAB","019cf071-3faf-7f1c-891b-806b3f778ddb","019ceff9-9f67-7034-9722-02cda2445e09","","683","
                <div class=""stimulus-container"">
                    <img src=""images/schematic_sequence/interview_scheme/interview_scheme_7.png"" class=""exp-image"">
                    <div class=""question-area"">
                        <p style=""font-size: 20px; font-weight: bold; margin: 0;"">Is there a person in this image?</p>
                    </div>
                </div>","0","main_experiment_trial","7","interview_scheme","schematic_sequence","","","","",""
"","","","","","html-keyboard-response","73","636144","0.0-73.0","9C6FFFBA22D141559B3804A811D42DAB","019cf071-3faf-7f1c-891b-806b3f778ddb","019ceff9-9f67-7034-9722-02cda2445e09","","null","
                <div class=""stimulus-container"">
                    <img src=""images/schematic_sequence/interview_scheme/interview_scheme_8.png"" class=""exp-image"">
                    <div class=""question-area""></div> 
                </div>","null","","","","","","","","",""
"","","","","","html-button-response","74","636644","0.0-74.0","9C6FFFBA22D141559B3804A811D42DAB","019cf071-3faf-7f1c-891b-806b3f778ddb","019ceff9-9f67-7034-9722-02cda2445e09","","499","
                <div class=""stimulus-container"">
                    <img src=""images/schematic_sequence/interview_scheme/interview_scheme_8.png"" class=""exp-image"">
                    <div class=""question-area"">
                        <p style=""font-size: 20px; font-weight: bold; margin: 0;"">Is there a person in this image?</p>
                    </div>
                </div>","0","main_experiment_trial","8","interview_scheme","schematic_sequence","","","","",""
"","","","","","html-keyboard-response","75","641647","0.0-75.0","9C6FFFBA22D141559B3804A811D42DAB","019cf071-3faf-7f1c-891b-806b3f778ddb","019ceff9-9f67-7034-9722-02cda2445e09","","null","
                <div class=""stimulus-container"">
                    <img src=""images/schematic_sequence/interview_scheme/interview_scheme_9.png"" class=""exp-image"">
                    <div class=""question-area""></div> 
                </div>","null","","","","","","","","",""
"","","","","","html-button-response","76","642223","0.0-76.0","9C6FFFBA22D141559B3804A811D42DAB","019cf071-3faf-7f1c-891b-806b3f778ddb","019ceff9-9f67-7034-9722-02cda2445e09","","576","
                <div class=""stimulus-container"">
                    <img src=""images/schematic_sequence/interview_scheme/interview_scheme_9.png"" class=""exp-image"">
                    <div class=""question-area"">
                        <p style=""font-size: 20px; font-weight: bold; margin: 0;"">Is there a person in this image?</p>
                    </div>
                </div>","0","main_experiment_trial","9","interview_scheme","schematic_sequence","","","","",""
"","","","","","html-keyboard-response","77","647227","0.0-77.0","9C6FFFBA22D141559B3804A811D42DAB","019cf071-3faf-7f1c-891b-806b3f778ddb","019ceff9-9f67-7034-9722-02cda2445e09","","null","
                <div class=""stimulus-container"">
                    <img src=""images/schematic_sequence/interview_scheme/interview_scheme_ten.png"" class=""exp-image"">
                    <div class=""question-area""></div> 
                </div>","null","","","","","","","","",""
"","","","","","html-button-response","78","647862","0.0-78.0","9C6FFFBA22D141559B3804A811D42DAB","019cf071-3faf-7f1c-891b-806b3f778ddb","019ceff9-9f67-7034-9722-02cda2445e09","","634","
                <div class=""stimulus-container"">
                    <img src=""images/schematic_sequence/interview_scheme/interview_scheme_ten.png"" class=""exp-image"">
                    <div class=""question-area"">
                        <p style=""font-size: 20px; font-weight: bold; margin: 0;"">Is there a person in this image?</p>
                    </div>
                </div>","0","main_experiment_trial","ten","interview_scheme","schematic_sequence","","","","",""
"","","","","","html-keyboard-response","79","648868","0.0-79.0","9C6FFFBA22D141559B3804A811D42DAB","019cf071-3faf-7f1c-891b-806b3f778ddb","019ceff9-9f67-7034-9722-02cda2445e09","","null","<div style=""background-color: white; width: 100vw; height: 100vh;""></div>","null","","","","","","","","",""
"","","","","","html-keyboard-response","80","653880","0.0-80.0","9C6FFFBA22D141559B3804A811D42DAB","019cf071-3faf-7f1c-891b-806b3f778ddb","019ceff9-9f67-7034-9722-02cda2445e09","","null","
                <div class=""stimulus-container"">
                    <img src=""images/causal_sequence/coin_causal/coin_causal_1.png"" class=""exp-image"">
                    <div class=""question-area""></div> 
                </div>","null","","","","","","","","",""
"","","","","","html-button-response","81","654648","0.0-81.0","9C6FFFBA22D141559B3804A811D42DAB","019cf071-3faf-7f1c-891b-806b3f778ddb","019ceff9-9f67-7034-9722-02cda2445e09","","768","
                <div class=""stimulus-container"">
                    <img src=""images/causal_sequence/coin_causal/coin_causal_1.png"" class=""exp-image"">
                    <div class=""question-area"">
                        <p style=""font-size: 20px; font-weight: bold; margin: 0;"">Is there a person in this image?</p>
                    </div>
                </div>","0","main_experiment_trial","1","coin_causal","causal_sequence","","","","",""
"","","","","","html-keyboard-response","82","659654","0.0-82.0","9C6FFFBA22D141559B3804A811D42DAB","019cf071-3faf-7f1c-891b-806b3f778ddb","019ceff9-9f67-7034-9722-02cda2445e09","","null","
                <div class=""stimulus-container"">
                    <img src=""images/causal_sequence/coin_causal/coin_causal_2.png"" class=""exp-image"">
                    <div class=""question-area""></div> 
                </div>","null","","","","","","","","",""
"","","","","","html-button-response","83","660229","0.0-83.0","9C6FFFBA22D141559B3804A811D42DAB","019cf071-3faf-7f1c-891b-806b3f778ddb","019ceff9-9f67-7034-9722-02cda2445e09","","575","
                <div class=""stimulus-container"">
                    <img src=""images/causal_sequence/coin_causal/coin_causal_2.png"" class=""exp-image"">
                    <div class=""question-area"">
                        <p style=""font-size: 20px; font-weight: bold; margin: 0;"">Is there a person in this image?</p>
                    </div>
                </div>","0","main_experiment_trial","2","coin_causal","causal_sequence","","","","",""
"","","","","","html-keyboard-response","84","665237","0.0-84.0","9C6FFFBA22D141559B3804A811D42DAB","019cf071-3faf-7f1c-891b-806b3f778ddb","019ceff9-9f67-7034-9722-02cda2445e09","","null","
                <div class=""stimulus-container"">
                    <img src=""images/causal_sequence/coin_causal/coin_causal_3.png"" class=""exp-image"">
                    <div class=""question-area""></div> 
                </div>","null","","","","","","","","",""
"","","","","","html-button-response","85","665702","0.0-85.0","9C6FFFBA22D141559B3804A811D42DAB","019cf071-3faf-7f1c-891b-806b3f778ddb","019ceff9-9f67-7034-9722-02cda2445e09","","464","
                <div class=""stimulus-container"">
                    <img src=""images/causal_sequence/coin_causal/coin_causal_3.png"" class=""exp-image"">
                    <div class=""question-area"">
                        <p style=""font-size: 20px; font-weight: bold; margin: 0;"">Is there a person in this image?</p>
                    </div>
                </div>","0","main_experiment_trial","3","coin_causal","causal_sequence","","","","",""
"","","","","","html-keyboard-response","86","670718","0.0-86.0","9C6FFFBA22D141559B3804A811D42DAB","019cf071-3faf-7f1c-891b-806b3f778ddb","019ceff9-9f67-7034-9722-02cda2445e09","","null","
                <div class=""stimulus-container"">
                    <img src=""images/causal_sequence/coin_causal/coin_causal_4.png"" class=""exp-image"">
                    <div class=""question-area""></div> 
                </div>","null","","","","","","","","",""
"","","","","","html-button-response","87","671208","0.0-87.0","9C6FFFBA22D141559B3804A811D42DAB","019cf071-3faf-7f1c-891b-806b3f778ddb","019ceff9-9f67-7034-9722-02cda2445e09","","490","
                <div class=""stimulus-container"">
                    <img src=""images/causal_sequence/coin_causal/coin_causal_4.png"" class=""exp-image"">
                    <div class=""question-area"">
                        <p style=""font-size: 20px; font-weight: bold; margin: 0;"">Is there a person in this image?</p>
                    </div>
                </div>","0","main_experiment_trial","4","coin_causal","causal_sequence","","","","",""
"","","","","","html-keyboard-response","88","676219","0.0-88.0","9C6FFFBA22D141559B3804A811D42DAB","019cf071-3faf-7f1c-891b-806b3f778ddb","019ceff9-9f67-7034-9722-02cda2445e09","","null","
                <div class=""stimulus-container"">
                    <img src=""images/causal_sequence/coin_causal/coin_causal_5.png"" class=""exp-image"">
                    <div class=""question-area""></div> 
                </div>","null","","","","","","","","",""
"","","","","","html-button-response","89","676755","0.0-89.0","9C6FFFBA22D141559B3804A811D42DAB","019cf071-3faf-7f1c-891b-806b3f778ddb","019ceff9-9f67-7034-9722-02cda2445e09","","536","
                <div class=""stimulus-container"">
                    <img src=""images/causal_sequence/coin_causal/coin_causal_5.png"" class=""exp-image"">
                    <div class=""question-area"">
                        <p style=""font-size: 20px; font-weight: bold; margin: 0;"">Is there a person in this image?</p>
                    </div>
                </div>","0","main_experiment_trial","5","coin_causal","causal_sequence","","","","",""
"","","","","","html-keyboard-response","90","681771","0.0-90.0","9C6FFFBA22D141559B3804A811D42DAB","019cf071-3faf-7f1c-891b-806b3f778ddb","019ceff9-9f67-7034-9722-02cda2445e09","","null","
                <div class=""stimulus-container"">
                    <img src=""images/causal_sequence/coin_causal/coin_causal_6.png"" class=""exp-image"">
                    <div class=""question-area""></div> 
                </div>","null","","","","","","","","",""
"","","","","","html-button-response","91","682302","0.0-91.0","9C6FFFBA22D141559B3804A811D42DAB","019cf071-3faf-7f1c-891b-806b3f778ddb","019ceff9-9f67-7034-9722-02cda2445e09","","530","
                <div class=""stimulus-container"">
                    <img src=""images/causal_sequence/coin_causal/coin_causal_6.png"" class=""exp-image"">
                    <div class=""question-area"">
                        <p style=""font-size: 20px; font-weight: bold; margin: 0;"">Is there a person in this image?</p>
                    </div>
                </div>","0","main_experiment_trial","6","coin_causal","causal_sequence","","","","",""
"","","","","","html-keyboard-response","92","687306","0.0-92.0","9C6FFFBA22D141559B3804A811D42DAB","019cf071-3faf-7f1c-891b-806b3f778ddb","019ceff9-9f67-7034-9722-02cda2445e09","","null","
                <div class=""stimulus-container"">
                    <img src=""images/causal_sequence/coin_causal/coin_causal_7.png"" class=""exp-image"">
                    <div class=""question-area""></div> 
                </div>","null","","","","","","","","",""
"","","","","","html-button-response","93","688098","0.0-93.0","9C6FFFBA22D141559B3804A811D42DAB","019cf071-3faf-7f1c-891b-806b3f778ddb","019ceff9-9f67-7034-9722-02cda2445e09","","791","
                <div class=""stimulus-container"">
                    <img src=""images/causal_sequence/coin_causal/coin_causal_7.png"" class=""exp-image"">
                    <div class=""question-area"">
                        <p style=""font-size: 20px; font-weight: bold; margin: 0;"">Is there a person in this image?</p>
                    </div>
                </div>","1","main_experiment_trial","7","coin_causal","causal_sequence","","","","",""
"","","","","","html-keyboard-response","94","693101","0.0-94.0","9C6FFFBA22D141559B3804A811D42DAB","019cf071-3faf-7f1c-891b-806b3f778ddb","019ceff9-9f67-7034-9722-02cda2445e09","","null","
                <div class=""stimulus-container"">
                    <img src=""images/causal_sequence/coin_causal/coin_causal_8.png"" class=""exp-image"">
                    <div class=""question-area""></div> 
                </div>","null","","","","","","","","",""
"","","","","","html-button-response","95","694268","0.0-95.0","9C6FFFBA22D141559B3804A811D42DAB","019cf071-3faf-7f1c-891b-806b3f778ddb","019ceff9-9f67-7034-9722-02cda2445e09","","1166","
                <div class=""stimulus-container"">
                    <img src=""images/causal_sequence/coin_causal/coin_causal_8.png"" class=""exp-image"">
                    <div class=""question-area"">
                        <p style=""font-size: 20px; font-weight: bold; margin: 0;"">Is there a person in this image?</p>
                    </div>
                </div>","0","main_experiment_trial","8","coin_causal","causal_sequence","","","","",""
"","","","","","html-keyboard-response","96","699270","0.0-96.0","9C6FFFBA22D141559B3804A811D42DAB","019cf071-3faf-7f1c-891b-806b3f778ddb","019ceff9-9f67-7034-9722-02cda2445e09","","null","
                <div class=""stimulus-container"">
                    <img src=""images/causal_sequence/coin_causal/coin_causal_9.png"" class=""exp-image"">
                    <div class=""question-area""></div> 
                </div>","null","","","","","","","","",""
"","","","","","html-button-response","97","700218","0.0-97.0","9C6FFFBA22D141559B3804A811D42DAB","019cf071-3faf-7f1c-891b-806b3f778ddb","019ceff9-9f67-7034-9722-02cda2445e09","","947","
                <div class=""stimulus-container"">
                    <img src=""images/causal_sequence/coin_causal/coin_causal_9.png"" class=""exp-image"">
                    <div class=""question-area"">
                        <p style=""font-size: 20px; font-weight: bold; margin: 0;"">Is there a person in this image?</p>
                    </div>
                </div>","0","main_experiment_trial","9","coin_causal","causal_sequence","","","","",""
"","","","","","html-keyboard-response","98","705233","0.0-98.0","9C6FFFBA22D141559B3804A811D42DAB","019cf071-3faf-7f1c-891b-806b3f778ddb","019ceff9-9f67-7034-9722-02cda2445e09","","null","
                <div class=""stimulus-container"">
                    <img src=""images/causal_sequence/coin_causal/coin_causal_ten.png"" class=""exp-image"">
                    <div class=""question-area""></div> 
                </div>","null","","","","","","","","",""
"","","","","","html-button-response","99","706246","0.0-99.0","9C6FFFBA22D141559B3804A811D42DAB","019cf071-3faf-7f1c-891b-806b3f778ddb","019ceff9-9f67-7034-9722-02cda2445e09","","1012","
                <div class=""stimulus-container"">
                    <img src=""images/causal_sequence/coin_causal/coin_causal_ten.png"" class=""exp-image"">
                    <div class=""question-area"">
                        <p style=""font-size: 20px; font-weight: bold; margin: 0;"">Is there a person in this image?</p>
                    </div>
                </div>","0","main_experiment_trial","ten","coin_causal","causal_sequence","","","","",""
"","","","","","html-keyboard-response","100","707248","0.0-100.0","9C6FFFBA22D141559B3804A811D42DAB","019cf071-3faf-7f1c-891b-806b3f778ddb","019ceff9-9f67-7034-9722-02cda2445e09","","null","<div style=""background-color: white; width: 100vw; height: 100vh;""></div>","null","","","","","","","","",""
"","","","","","html-keyboard-response","101","712261","0.0-101.0","9C6FFFBA22D141559B3804A811D42DAB","019cf071-3faf-7f1c-891b-806b3f778ddb","019ceff9-9f67-7034-9722-02cda2445e09","","null","
                <div class=""stimulus-container"">
                    <img src=""images/causal_sequence/the_performance_causal/the_performance_causal_1.png"" class=""exp-image"">
                    <div class=""question-area""></div> 
                </div>","null","","","","","","","","",""
"","","","","","html-button-response","102","712873","0.0-102.0","9C6FFFBA22D141559B3804A811D42DAB","019cf071-3faf-7f1c-891b-806b3f778ddb","019ceff9-9f67-7034-9722-02cda2445e09","","612","
                <div class=""stimulus-container"">
                    <img src=""images/causal_sequence/the_performance_causal/the_performance_causal_1.png"" class=""exp-image"">
                    <div class=""question-area"">
                        <p style=""font-size: 20px; font-weight: bold; margin: 0;"">Is there a person in this image?</p>
                    </div>
                </div>","0","main_experiment_trial","1","the_performance_causal","causal_sequence","","","","",""
"","","","","","html-keyboard-response","103","717883","0.0-103.0","9C6FFFBA22D141559B3804A811D42DAB","019cf071-3faf-7f1c-891b-806b3f778ddb","019ceff9-9f67-7034-9722-02cda2445e09","","null","
                <div class=""stimulus-container"">
                    <img src=""images/causal_sequence/the_performance_causal/the_performance_causal_2.png"" class=""exp-image"">
                    <div class=""question-area""></div> 
                </div>","null","","","","","","","","",""
"","","","","","html-button-response","104","718699","0.0-104.0","9C6FFFBA22D141559B3804A811D42DAB","019cf071-3faf-7f1c-891b-806b3f778ddb","019ceff9-9f67-7034-9722-02cda2445e09","","815","
                <div class=""stimulus-container"">
                    <img src=""images/causal_sequence/the_performance_causal/the_performance_causal_2.png"" class=""exp-image"">
                    <div class=""question-area"">
                        <p style=""font-size: 20px; font-weight: bold; margin: 0;"">Is there a person in this image?</p>
                    </div>
                </div>","0","main_experiment_trial","2","the_performance_causal","causal_sequence","","","","",""
"","","","","","html-keyboard-response","105","723711","0.0-105.0","9C6FFFBA22D141559B3804A811D42DAB","019cf071-3faf-7f1c-891b-806b3f778ddb","019ceff9-9f67-7034-9722-02cda2445e09","","null","
                <div class=""stimulus-container"">
                    <img src=""images/causal_sequence/the_performance_causal/the_performance_causal_3.png"" class=""exp-image"">
                    <div class=""question-area""></div> 
                </div>","null","","","","","","","","",""
"","","","","","html-button-response","106","724284","0.0-106.0","9C6FFFBA22D141559B3804A811D42DAB","019cf071-3faf-7f1c-891b-806b3f778ddb","019ceff9-9f67-7034-9722-02cda2445e09","","572","
                <div class=""stimulus-container"">
                    <img src=""images/causal_sequence/the_performance_causal/the_performance_causal_3.png"" class=""exp-image"">
                    <div class=""question-area"">
                        <p style=""font-size: 20px; font-weight: bold; margin: 0;"">Is there a person in this image?</p>
                    </div>
                </div>","0","main_experiment_trial","3","the_performance_causal","causal_sequence","","","","",""
"","","","","","html-keyboard-response","107","729297","0.0-107.0","9C6FFFBA22D141559B3804A811D42DAB","019cf071-3faf-7f1c-891b-806b3f778ddb","019ceff9-9f67-7034-9722-02cda2445e09","","null","
                <div class=""stimulus-container"">
                    <img src=""images/causal_sequence/the_performance_causal/the_performance_causal_4.png"" class=""exp-image"">
                    <div class=""question-area""></div> 
                </div>","null","","","","","","","","",""
"","","","","","html-button-response","108","729888","0.0-108.0","9C6FFFBA22D141559B3804A811D42DAB","019cf071-3faf-7f1c-891b-806b3f778ddb","019ceff9-9f67-7034-9722-02cda2445e09","","590","
                <div class=""stimulus-container"">
                    <img src=""images/causal_sequence/the_performance_causal/the_performance_causal_4.png"" class=""exp-image"">
                    <div class=""question-area"">
                        <p style=""font-size: 20px; font-weight: bold; margin: 0;"">Is there a person in this image?</p>
                    </div>
                </div>","0","main_experiment_trial","4","the_performance_causal","causal_sequence","","","","",""
"","","","","","html-keyboard-response","109","734897","0.0-109.0","9C6FFFBA22D141559B3804A811D42DAB","019cf071-3faf-7f1c-891b-806b3f778ddb","019ceff9-9f67-7034-9722-02cda2445e09","","null","
                <div class=""stimulus-container"">
                    <img src=""images/causal_sequence/the_performance_causal/the_performance_causal_5.png"" class=""exp-image"">
                    <div class=""question-area""></div> 
                </div>","null","","","","","","","","",""
"","","","","","html-button-response","110","735404","0.0-110.0","9C6FFFBA22D141559B3804A811D42DAB","019cf071-3faf-7f1c-891b-806b3f778ddb","019ceff9-9f67-7034-9722-02cda2445e09","","506","
                <div class=""stimulus-container"">
                    <img src=""images/causal_sequence/the_performance_causal/the_performance_causal_5.png"" class=""exp-image"">
                    <div class=""question-area"">
                        <p style=""font-size: 20px; font-weight: bold; margin: 0;"">Is there a person in this image?</p>
                    </div>
                </div>","0","main_experiment_trial","5","the_performance_causal","causal_sequence","","","","",""
"","","","","","html-keyboard-response","111","740407","0.0-111.0","9C6FFFBA22D141559B3804A811D42DAB","019cf071-3faf-7f1c-891b-806b3f778ddb","019ceff9-9f67-7034-9722-02cda2445e09","","null","
                <div class=""stimulus-container"">
                    <img src=""images/causal_sequence/the_performance_causal/the_performance_causal_6.png"" class=""exp-image"">
                    <div class=""question-area""></div> 
                </div>","null","","","","","","","","",""
"","","","","","html-button-response","112","740924","0.0-112.0","9C6FFFBA22D141559B3804A811D42DAB","019cf071-3faf-7f1c-891b-806b3f778ddb","019ceff9-9f67-7034-9722-02cda2445e09","","516","
                <div class=""stimulus-container"">
                    <img src=""images/causal_sequence/the_performance_causal/the_performance_causal_6.png"" class=""exp-image"">
                    <div class=""question-area"">
                        <p style=""font-size: 20px; font-weight: bold; margin: 0;"">Is there a person in this image?</p>
                    </div>
                </div>","0","main_experiment_trial","6","the_performance_causal","causal_sequence","","","","",""
"","","","","","html-keyboard-response","113","745936","0.0-113.0","9C6FFFBA22D141559B3804A811D42DAB","019cf071-3faf-7f1c-891b-806b3f778ddb","019ceff9-9f67-7034-9722-02cda2445e09","","null","
                <div class=""stimulus-container"">
                    <img src=""images/causal_sequence/the_performance_causal/the_performance_causal_7.png"" class=""exp-image"">
                    <div class=""question-area""></div> 
                </div>","null","","","","","","","","",""
"","","","","","html-button-response","114","746668","0.0-114.0","9C6FFFBA22D141559B3804A811D42DAB","019cf071-3faf-7f1c-891b-806b3f778ddb","019ceff9-9f67-7034-9722-02cda2445e09","","731","
                <div class=""stimulus-container"">
                    <img src=""images/causal_sequence/the_performance_causal/the_performance_causal_7.png"" class=""exp-image"">
                    <div class=""question-area"">
                        <p style=""font-size: 20px; font-weight: bold; margin: 0;"">Is there a person in this image?</p>
                    </div>
                </div>","0","main_experiment_trial","7","the_performance_causal","causal_sequence","","","","",""
"","","","","","html-keyboard-response","115","751681","0.0-115.0","9C6FFFBA22D141559B3804A811D42DAB","019cf071-3faf-7f1c-891b-806b3f778ddb","019ceff9-9f67-7034-9722-02cda2445e09","","null","
                <div class=""stimulus-container"">
                    <img src=""images/causal_sequence/the_performance_causal/the_performance_causal_8.png"" class=""exp-image"">
                    <div class=""question-area""></div> 
                </div>","null","","","","","","","","",""
"","","","","","html-button-response","116","752540","0.0-116.0","9C6FFFBA22D141559B3804A811D42DAB","019cf071-3faf-7f1c-891b-806b3f778ddb","019ceff9-9f67-7034-9722-02cda2445e09","","858","
                <div class=""stimulus-container"">
                    <img src=""images/causal_sequence/the_performance_causal/the_performance_causal_8.png"" class=""exp-image"">
                    <div class=""question-area"">
                        <p style=""font-size: 20px; font-weight: bold; margin: 0;"">Is there a person in this image?</p>
                    </div>
                </div>","0","main_experiment_trial","8","the_performance_causal","causal_sequence","","","","",""
"","","","","","html-keyboard-response","117","757550","0.0-117.0","9C6FFFBA22D141559B3804A811D42DAB","019cf071-3faf-7f1c-891b-806b3f778ddb","019ceff9-9f67-7034-9722-02cda2445e09","","null","
                <div class=""stimulus-container"">
                    <img src=""images/causal_sequence/the_performance_causal/the_performance_causal_9.png"" class=""exp-image"">
                    <div class=""question-area""></div> 
                </div>","null","","","","","","","","",""
"","","","","","html-button-response","118","758379","0.0-118.0","9C6FFFBA22D141559B3804A811D42DAB","019cf071-3faf-7f1c-891b-806b3f778ddb","019ceff9-9f67-7034-9722-02cda2445e09","","829","
                <div class=""stimulus-container"">
                    <img src=""images/causal_sequence/the_performance_causal/the_performance_causal_9.png"" class=""exp-image"">
                    <div class=""question-area"">
                        <p style=""font-size: 20px; font-weight: bold; margin: 0;"">Is there a person in this image?</p>
                    </div>
                </div>","0","main_experiment_trial","9","the_performance_causal","causal_sequence","","","","",""
"","","","","","html-keyboard-response","119","763385","0.0-119.0","9C6FFFBA22D141559B3804A811D42DAB","019cf071-3faf-7f1c-891b-806b3f778ddb","019ceff9-9f67-7034-9722-02cda2445e09","","null","
                <div class=""stimulus-container"">
                    <img src=""images/causal_sequence/the_performance_causal/the_performance_causal_ten.png"" class=""exp-image"">
                    <div class=""question-area""></div> 
                </div>","null","","","","","","","","",""
"","","","","","html-button-response","120","763931","0.0-120.0","9C6FFFBA22D141559B3804A811D42DAB","019cf071-3faf-7f1c-891b-806b3f778ddb","019ceff9-9f67-7034-9722-02cda2445e09","","546","
                <div class=""stimulus-container"">
                    <img src=""images/causal_sequence/the_performance_causal/the_performance_causal_ten.png"" class=""exp-image"">
                    <div class=""question-area"">
                        <p style=""font-size: 20px; font-weight: bold; margin: 0;"">Is there a person in this image?</p>
                    </div>
                </div>","0","main_experiment_trial","ten","the_performance_causal","causal_sequence","","","","",""
"","","","","","html-keyboard-response","121","764940","0.0-121.0","9C6FFFBA22D141559B3804A811D42DAB","019cf071-3faf-7f1c-891b-806b3f778ddb","019ceff9-9f67-7034-9722-02cda2445e09","","null","<div style=""background-color: white; width: 100vw; height: 100vh;""></div>","null","","","","","","","","",""
"","","","","","html-keyboard-response","122","769944","0.0-122.0","9C6FFFBA22D141559B3804A811D42DAB","019cf071-3faf-7f1c-891b-806b3f778ddb","019ceff9-9f67-7034-9722-02cda2445e09","","null","
                <div class=""stimulus-container"">
                    <img src=""images/causal_sequence/museum_causal/museum_causal_1.png"" class=""exp-image"">
                    <div class=""question-area""></div> 
                </div>","null","","","","","","","","",""
"","","","","","html-button-response","123","771424","0.0-123.0","9C6FFFBA22D141559B3804A811D42DAB","019cf071-3faf-7f1c-891b-806b3f778ddb","019ceff9-9f67-7034-9722-02cda2445e09","","1479","
                <div class=""stimulus-container"">
                    <img src=""images/causal_sequence/museum_causal/museum_causal_1.png"" class=""exp-image"">
                    <div class=""question-area"">
                        <p style=""font-size: 20px; font-weight: bold; margin: 0;"">Is there a person in this image?</p>
                    </div>
                </div>","0","main_experiment_trial","1","museum_causal","causal_sequence","","","","",""
"","","","","","html-keyboard-response","124","776434","0.0-124.0","9C6FFFBA22D141559B3804A811D42DAB","019cf071-3faf-7f1c-891b-806b3f778ddb","019ceff9-9f67-7034-9722-02cda2445e09","","null","
                <div class=""stimulus-container"">
                    <img src=""images/causal_sequence/museum_causal/museum_causal_2.png"" class=""exp-image"">
                    <div class=""question-area""></div> 
                </div>","null","","","","","","","","",""
"","","","","","html-button-response","125","777003","0.0-125.0","9C6FFFBA22D141559B3804A811D42DAB","019cf071-3faf-7f1c-891b-806b3f778ddb","019ceff9-9f67-7034-9722-02cda2445e09","","569","
                <div class=""stimulus-container"">
                    <img src=""images/causal_sequence/museum_causal/museum_causal_2.png"" class=""exp-image"">
                    <div class=""question-area"">
                        <p style=""font-size: 20px; font-weight: bold; margin: 0;"">Is there a person in this image?</p>
                    </div>
                </div>","1","main_experiment_trial","2","museum_causal","causal_sequence","","","","",""
"","","","","","html-keyboard-response","126","782016","0.0-126.0","9C6FFFBA22D141559B3804A811D42DAB","019cf071-3faf-7f1c-891b-806b3f778ddb","019ceff9-9f67-7034-9722-02cda2445e09","","null","
                <div class=""stimulus-container"">
                    <img src=""images/causal_sequence/museum_causal/museum_causal_3.png"" class=""exp-image"">
                    <div class=""question-area""></div> 
                </div>","null","","","","","","","","",""
"","","","","","html-button-response","127","782628","0.0-127.0","9C6FFFBA22D141559B3804A811D42DAB","019cf071-3faf-7f1c-891b-806b3f778ddb","019ceff9-9f67-7034-9722-02cda2445e09","","611","
                <div class=""stimulus-container"">
                    <img src=""images/causal_sequence/museum_causal/museum_causal_3.png"" class=""exp-image"">
                    <div class=""question-area"">
                        <p style=""font-size: 20px; font-weight: bold; margin: 0;"">Is there a person in this image?</p>
                    </div>
                </div>","0","main_experiment_trial","3","museum_causal","causal_sequence","","","","",""
"","","","","","html-keyboard-response","128","787636","0.0-128.0","9C6FFFBA22D141559B3804A811D42DAB","019cf071-3faf-7f1c-891b-806b3f778ddb","019ceff9-9f67-7034-9722-02cda2445e09","","null","
                <div class=""stimulus-container"">
                    <img src=""images/causal_sequence/museum_causal/museum_causal_4.png"" class=""exp-image"">
                    <div class=""question-area""></div> 
                </div>","null","","","","","","","","",""
"","","","","","html-button-response","129","788296","0.0-129.0","9C6FFFBA22D141559B3804A811D42DAB","019cf071-3faf-7f1c-891b-806b3f778ddb","019ceff9-9f67-7034-9722-02cda2445e09","","659","
                <div class=""stimulus-container"">
                    <img src=""images/causal_sequence/museum_causal/museum_causal_4.png"" class=""exp-image"">
                    <div class=""question-area"">
                        <p style=""font-size: 20px; font-weight: bold; margin: 0;"">Is there a person in this image?</p>
                    </div>
                </div>","1","main_experiment_trial","4","museum_causal","causal_sequence","","","","",""
"","","","","","html-keyboard-response","130","793307","0.0-130.0","9C6FFFBA22D141559B3804A811D42DAB","019cf071-3faf-7f1c-891b-806b3f778ddb","019ceff9-9f67-7034-9722-02cda2445e09","","null","
                <div class=""stimulus-container"">
                    <img src=""images/causal_sequence/museum_causal/museum_causal_5.png"" class=""exp-image"">
                    <div class=""question-area""></div> 
                </div>","null","","","","","","","","",""
"","","","","","html-button-response","131","794149","0.0-131.0","9C6FFFBA22D141559B3804A811D42DAB","019cf071-3faf-7f1c-891b-806b3f778ddb","019ceff9-9f67-7034-9722-02cda2445e09","","842","
                <div class=""stimulus-container"">
                    <img src=""images/causal_sequence/museum_causal/museum_causal_5.png"" class=""exp-image"">
                    <div class=""question-area"">
                        <p style=""font-size: 20px; font-weight: bold; margin: 0;"">Is there a person in this image?</p>
                    </div>
                </div>","0","main_experiment_trial","5","museum_causal","causal_sequence","","","","",""
"","","","","","html-keyboard-response","132","799156","0.0-132.0","9C6FFFBA22D141559B3804A811D42DAB","019cf071-3faf-7f1c-891b-806b3f778ddb","019ceff9-9f67-7034-9722-02cda2445e09","","null","
                <div class=""stimulus-container"">
                    <img src=""images/causal_sequence/museum_causal/museum_causal_6.png"" class=""exp-image"">
                    <div class=""question-area""></div> 
                </div>","null","","","","","","","","",""
"","","","","","html-button-response","133","799904","0.0-133.0","9C6FFFBA22D141559B3804A811D42DAB","019cf071-3faf-7f1c-891b-806b3f778ddb","019ceff9-9f67-7034-9722-02cda2445e09","","747","
                <div class=""stimulus-container"">
                    <img src=""images/causal_sequence/museum_causal/museum_causal_6.png"" class=""exp-image"">
                    <div class=""question-area"">
                        <p style=""font-size: 20px; font-weight: bold; margin: 0;"">Is there a person in this image?</p>
                    </div>
                </div>","0","main_experiment_trial","6","museum_causal","causal_sequence","","","","",""
"","","","","","html-keyboard-response","134","804913","0.0-134.0","9C6FFFBA22D141559B3804A811D42DAB","019cf071-3faf-7f1c-891b-806b3f778ddb","019ceff9-9f67-7034-9722-02cda2445e09","","null","
                <div class=""stimulus-container"">
                    <img src=""images/causal_sequence/museum_causal/museum_causal_7.png"" class=""exp-image"">
                    <div class=""question-area""></div> 
                </div>","null","","","","","","","","",""
"","","","","","html-button-response","135","805519","0.0-135.0","9C6FFFBA22D141559B3804A811D42DAB","019cf071-3faf-7f1c-891b-806b3f778ddb","019ceff9-9f67-7034-9722-02cda2445e09","","605","
                <div class=""stimulus-container"">
                    <img src=""images/causal_sequence/museum_causal/museum_causal_7.png"" class=""exp-image"">
                    <div class=""question-area"">
                        <p style=""font-size: 20px; font-weight: bold; margin: 0;"">Is there a person in this image?</p>
                    </div>
                </div>","1","main_experiment_trial","7","museum_causal","causal_sequence","","","","",""
"","","","","","html-keyboard-response","136","810530","0.0-136.0","9C6FFFBA22D141559B3804A811D42DAB","019cf071-3faf-7f1c-891b-806b3f778ddb","019ceff9-9f67-7034-9722-02cda2445e09","","null","
                <div class=""stimulus-container"">
                    <img src=""images/causal_sequence/museum_causal/museum_causal_8.png"" class=""exp-image"">
                    <div class=""question-area""></div> 
                </div>","null","","","","","","","","",""
"","","","","","html-button-response","137","811424","0.0-137.0","9C6FFFBA22D141559B3804A811D42DAB","019cf071-3faf-7f1c-891b-806b3f778ddb","019ceff9-9f67-7034-9722-02cda2445e09","","893","
                <div class=""stimulus-container"">
                    <img src=""images/causal_sequence/museum_causal/museum_causal_8.png"" class=""exp-image"">
                    <div class=""question-area"">
                        <p style=""font-size: 20px; font-weight: bold; margin: 0;"">Is there a person in this image?</p>
                    </div>
                </div>","0","main_experiment_trial","8","museum_causal","causal_sequence","","","","",""
"","","","","","html-keyboard-response","138","816427","0.0-138.0","9C6FFFBA22D141559B3804A811D42DAB","019cf071-3faf-7f1c-891b-806b3f778ddb","019ceff9-9f67-7034-9722-02cda2445e09","","null","
                <div class=""stimulus-container"">
                    <img src=""images/causal_sequence/museum_causal/museum_causal_9.png"" class=""exp-image"">
                    <div class=""question-area""></div> 
                </div>","null","","","","","","","","",""
"","","","","","html-button-response","139","817160","0.0-139.0","9C6FFFBA22D141559B3804A811D42DAB","019cf071-3faf-7f1c-891b-806b3f778ddb","019ceff9-9f67-7034-9722-02cda2445e09","","732","
                <div class=""stimulus-container"">
                    <img src=""images/causal_sequence/museum_causal/museum_causal_9.png"" class=""exp-image"">
                    <div class=""question-area"">
                        <p style=""font-size: 20px; font-weight: bold; margin: 0;"">Is there a person in this image?</p>
                    </div>
                </div>","1","main_experiment_trial","9","museum_causal","causal_sequence","","","","",""
"","","","","","html-keyboard-response","140","822171","0.0-140.0","9C6FFFBA22D141559B3804A811D42DAB","019cf071-3faf-7f1c-891b-806b3f778ddb","019ceff9-9f67-7034-9722-02cda2445e09","","null","
                <div class=""stimulus-container"">
                    <img src=""images/causal_sequence/museum_causal/museum_causal_ten.png"" class=""exp-image"">
                    <div class=""question-area""></div> 
                </div>","null","","","","","","","","",""
"","","","","","html-button-response","141","822854","0.0-141.0","9C6FFFBA22D141559B3804A811D42DAB","019cf071-3faf-7f1c-891b-806b3f778ddb","019ceff9-9f67-7034-9722-02cda2445e09","","682","
                <div class=""stimulus-container"">
                    <img src=""images/causal_sequence/museum_causal/museum_causal_ten.png"" class=""exp-image"">
                    <div class=""question-area"">
                        <p style=""font-size: 20px; font-weight: bold; margin: 0;"">Is there a person in this image?</p>
                    </div>
                </div>","0","main_experiment_trial","ten","museum_causal","causal_sequence","","","","",""
"","","","","","html-keyboard-response","142","823855","0.0-142.0","9C6FFFBA22D141559B3804A811D42DAB","019cf071-3faf-7f1c-891b-806b3f778ddb","019ceff9-9f67-7034-9722-02cda2445e09","","null","<div style=""background-color: white; width: 100vw; height: 100vh;""></div>","null","","","","","","","","",""
"","","","","","html-keyboard-response","143","828865","0.0-143.0","9C6FFFBA22D141559B3804A811D42DAB","019cf071-3faf-7f1c-891b-806b3f778ddb","019ceff9-9f67-7034-9722-02cda2445e09","","null","
                <div class=""stimulus-container"">
                    <img src=""images/causal_sequence/package_causal/package_causal_1.png"" class=""exp-image"">
                    <div class=""question-area""></div> 
                </div>","null","","","","","","","","",""
"","","","","","html-button-response","144","829695","0.0-144.0","9C6FFFBA22D141559B3804A811D42DAB","019cf071-3faf-7f1c-891b-806b3f778ddb","019ceff9-9f67-7034-9722-02cda2445e09","","830","
                <div class=""stimulus-container"">
                    <img src=""images/causal_sequence/package_causal/package_causal_1.png"" class=""exp-image"">
                    <div class=""question-area"">
                        <p style=""font-size: 20px; font-weight: bold; margin: 0;"">Is there a person in this image?</p>
                    </div>
                </div>","0","main_experiment_trial","1","package_causal","causal_sequence","","","","",""
"","","","","","html-keyboard-response","145","834702","0.0-145.0","9C6FFFBA22D141559B3804A811D42DAB","019cf071-3faf-7f1c-891b-806b3f778ddb","019ceff9-9f67-7034-9722-02cda2445e09","","null","
                <div class=""stimulus-container"">
                    <img src=""images/causal_sequence/package_causal/package_causal_2.png"" class=""exp-image"">
                    <div class=""question-area""></div> 
                </div>","null","","","","","","","","",""
"","","","","","html-button-response","146","835395","0.0-146.0","9C6FFFBA22D141559B3804A811D42DAB","019cf071-3faf-7f1c-891b-806b3f778ddb","019ceff9-9f67-7034-9722-02cda2445e09","","692","
                <div class=""stimulus-container"">
                    <img src=""images/causal_sequence/package_causal/package_causal_2.png"" class=""exp-image"">
                    <div class=""question-area"">
                        <p style=""font-size: 20px; font-weight: bold; margin: 0;"">Is there a person in this image?</p>
                    </div>
                </div>","0","main_experiment_trial","2","package_causal","causal_sequence","","","","",""
"","","","","","html-keyboard-response","147","840411","0.0-147.0","9C6FFFBA22D141559B3804A811D42DAB","019cf071-3faf-7f1c-891b-806b3f778ddb","019ceff9-9f67-7034-9722-02cda2445e09","","null","
                <div class=""stimulus-container"">
                    <img src=""images/causal_sequence/package_causal/package_causal_3.png"" class=""exp-image"">
                    <div class=""question-area""></div> 
                </div>","null","","","","","","","","",""
"","","","","","html-button-response","148","841123","0.0-148.0","9C6FFFBA22D141559B3804A811D42DAB","019cf071-3faf-7f1c-891b-806b3f778ddb","019ceff9-9f67-7034-9722-02cda2445e09","","711","
                <div class=""stimulus-container"">
                    <img src=""images/causal_sequence/package_causal/package_causal_3.png"" class=""exp-image"">
                    <div class=""question-area"">
                        <p style=""font-size: 20px; font-weight: bold; margin: 0;"">Is there a person in this image?</p>
                    </div>
                </div>","0","main_experiment_trial","3","package_causal","causal_sequence","","","","",""
"","","","","","html-keyboard-response","149","846135","0.0-149.0","9C6FFFBA22D141559B3804A811D42DAB","019cf071-3faf-7f1c-891b-806b3f778ddb","019ceff9-9f67-7034-9722-02cda2445e09","","null","
                <div class=""stimulus-container"">
                    <img src=""images/causal_sequence/package_causal/package_causal_4.png"" class=""exp-image"">
                    <div class=""question-area""></div> 
                </div>","null","","","","","","","","",""
"","","","","","html-button-response","150","846999","0.0-150.0","9C6FFFBA22D141559B3804A811D42DAB","019cf071-3faf-7f1c-891b-806b3f778ddb","019ceff9-9f67-7034-9722-02cda2445e09","","864","
                <div class=""stimulus-container"">
                    <img src=""images/causal_sequence/package_causal/package_causal_4.png"" class=""exp-image"">
                    <div class=""question-area"">
                        <p style=""font-size: 20px; font-weight: bold; margin: 0;"">Is there a person in this image?</p>
                    </div>
                </div>","1","main_experiment_trial","4","package_causal","causal_sequence","","","","",""
"","","","","","html-keyboard-response","151","852007","0.0-151.0","9C6FFFBA22D141559B3804A811D42DAB","019cf071-3faf-7f1c-891b-806b3f778ddb","019ceff9-9f67-7034-9722-02cda2445e09","","null","
                <div class=""stimulus-container"">
                    <img src=""images/causal_sequence/package_causal/package_causal_5.png"" class=""exp-image"">
                    <div class=""question-area""></div> 
                </div>","null","","","","","","","","",""
"","","","","","html-button-response","152","853194","0.0-152.0","9C6FFFBA22D141559B3804A811D42DAB","019cf071-3faf-7f1c-891b-806b3f778ddb","019ceff9-9f67-7034-9722-02cda2445e09","","1186","
                <div class=""stimulus-container"">
                    <img src=""images/causal_sequence/package_causal/package_causal_5.png"" class=""exp-image"">
                    <div class=""question-area"">
                        <p style=""font-size: 20px; font-weight: bold; margin: 0;"">Is there a person in this image?</p>
                    </div>
                </div>","0","main_experiment_trial","5","package_causal","causal_sequence","","","","",""
"","","","","","html-keyboard-response","153","858199","0.0-153.0","9C6FFFBA22D141559B3804A811D42DAB","019cf071-3faf-7f1c-891b-806b3f778ddb","019ceff9-9f67-7034-9722-02cda2445e09","","null","
                <div class=""stimulus-container"">
                    <img src=""images/causal_sequence/package_causal/package_causal_6.png"" class=""exp-image"">
                    <div class=""question-area""></div> 
                </div>","null","","","","","","","","",""
"","","","","","html-button-response","154","858825","0.0-154.0","9C6FFFBA22D141559B3804A811D42DAB","019cf071-3faf-7f1c-891b-806b3f778ddb","019ceff9-9f67-7034-9722-02cda2445e09","","625","
                <div class=""stimulus-container"">
                    <img src=""images/causal_sequence/package_causal/package_causal_6.png"" class=""exp-image"">
                    <div class=""question-area"">
                        <p style=""font-size: 20px; font-weight: bold; margin: 0;"">Is there a person in this image?</p>
                    </div>
                </div>","0","main_experiment_trial","6","package_causal","causal_sequence","","","","",""
"","","","","","html-keyboard-response","155","863827","0.0-155.0","9C6FFFBA22D141559B3804A811D42DAB","019cf071-3faf-7f1c-891b-806b3f778ddb","019ceff9-9f67-7034-9722-02cda2445e09","","null","
                <div class=""stimulus-container"">
                    <img src=""images/causal_sequence/package_causal/package_causal_7.png"" class=""exp-image"">
                    <div class=""question-area""></div> 
                </div>","null","","","","","","","","",""
"","","","","","html-button-response","156","865082","0.0-156.0","9C6FFFBA22D141559B3804A811D42DAB","019cf071-3faf-7f1c-891b-806b3f778ddb","019ceff9-9f67-7034-9722-02cda2445e09","","1254","
                <div class=""stimulus-container"">
                    <img src=""images/causal_sequence/package_causal/package_causal_7.png"" class=""exp-image"">
                    <div class=""question-area"">
                        <p style=""font-size: 20px; font-weight: bold; margin: 0;"">Is there a person in this image?</p>
                    </div>
                </div>","0","main_experiment_trial","7","package_causal","causal_sequence","","","","",""
"","","","","","html-keyboard-response","157","870097","0.0-157.0","9C6FFFBA22D141559B3804A811D42DAB","019cf071-3faf-7f1c-891b-806b3f778ddb","019ceff9-9f67-7034-9722-02cda2445e09","","null","
                <div class=""stimulus-container"">
                    <img src=""images/causal_sequence/package_causal/package_causal_8.png"" class=""exp-image"">
                    <div class=""question-area""></div> 
                </div>","null","","","","","","","","",""
"","","","","","html-button-response","158","870983","0.0-158.0","9C6FFFBA22D141559B3804A811D42DAB","019cf071-3faf-7f1c-891b-806b3f778ddb","019ceff9-9f67-7034-9722-02cda2445e09","","887","
                <div class=""stimulus-container"">
                    <img src=""images/causal_sequence/package_causal/package_causal_8.png"" class=""exp-image"">
                    <div class=""question-area"">
                        <p style=""font-size: 20px; font-weight: bold; margin: 0;"">Is there a person in this image?</p>
                    </div>
                </div>","0","main_experiment_trial","8","package_causal","causal_sequence","","","","",""
"","","","","","html-keyboard-response","159","875999","0.0-159.0","9C6FFFBA22D141559B3804A811D42DAB","019cf071-3faf-7f1c-891b-806b3f778ddb","019ceff9-9f67-7034-9722-02cda2445e09","","null","
                <div class=""stimulus-container"">
                    <img src=""images/causal_sequence/package_causal/package_causal_9.png"" class=""exp-image"">
                    <div class=""question-area""></div> 
                </div>","null","","","","","","","","",""
"","","","","","html-button-response","160","876701","0.0-160.0","9C6FFFBA22D141559B3804A811D42DAB","019cf071-3faf-7f1c-891b-806b3f778ddb","019ceff9-9f67-7034-9722-02cda2445e09","","701","
                <div class=""stimulus-container"">
                    <img src=""images/causal_sequence/package_causal/package_causal_9.png"" class=""exp-image"">
                    <div class=""question-area"">
                        <p style=""font-size: 20px; font-weight: bold; margin: 0;"">Is there a person in this image?</p>
                    </div>
                </div>","0","main_experiment_trial","9","package_causal","causal_sequence","","","","",""
"","","","","","html-keyboard-response","161","881707","0.0-161.0","9C6FFFBA22D141559B3804A811D42DAB","019cf071-3faf-7f1c-891b-806b3f778ddb","019ceff9-9f67-7034-9722-02cda2445e09","","null","
                <div class=""stimulus-container"">
                    <img src=""images/causal_sequence/package_causal/package_causal_ten.png"" class=""exp-image"">
                    <div class=""question-area""></div> 
                </div>","null","","","","","","","","",""
"","","","","","html-button-response","162","882345","0.0-162.0","9C6FFFBA22D141559B3804A811D42DAB","019cf071-3faf-7f1c-891b-806b3f778ddb","019ceff9-9f67-7034-9722-02cda2445e09","","637","
                <div class=""stimulus-container"">
                    <img src=""images/causal_sequence/package_causal/package_causal_ten.png"" class=""exp-image"">
                    <div class=""question-area"">
                        <p style=""font-size: 20px; font-weight: bold; margin: 0;"">Is there a person in this image?</p>
                    </div>
                </div>","0","main_experiment_trial","ten","package_causal","causal_sequence","","","","",""
"","","","","","html-keyboard-response","163","883359","0.0-163.0","9C6FFFBA22D141559B3804A811D42DAB","019cf071-3faf-7f1c-891b-806b3f778ddb","019ceff9-9f67-7034-9722-02cda2445e09","","null","<div style=""background-color: white; width: 100vw; height: 100vh;""></div>","null","","","","","","","","",""
"","","","","","html-keyboard-response","164","888362","0.0-164.0","9C6FFFBA22D141559B3804A811D42DAB","019cf071-3faf-7f1c-891b-806b3f778ddb","019ceff9-9f67-7034-9722-02cda2445e09","","null","
                <div class=""stimulus-container"">
                    <img src=""images/schematic_sequence/hotel_scheme/hotel_scheme_1.png"" class=""exp-image"">
                    <div class=""question-area""></div> 
                </div>","null","","","","","","","","",""
"","","","","","html-button-response","165","889541","0.0-165.0","9C6FFFBA22D141559B3804A811D42DAB","019cf071-3faf-7f1c-891b-806b3f778ddb","019ceff9-9f67-7034-9722-02cda2445e09","","1179","
                <div class=""stimulus-container"">
                    <img src=""images/schematic_sequence/hotel_scheme/hotel_scheme_1.png"" class=""exp-image"">
                    <div class=""question-area"">
                        <p style=""font-size: 20px; font-weight: bold; margin: 0;"">Is there a person in this image?</p>
                    </div>
                </div>","1","main_experiment_trial","1","hotel_scheme","schematic_sequence","","","","",""
"","","","","","html-keyboard-response","166","894553","0.0-166.0","9C6FFFBA22D141559B3804A811D42DAB","019cf071-3faf-7f1c-891b-806b3f778ddb","019ceff9-9f67-7034-9722-02cda2445e09","","null","
                <div class=""stimulus-container"">
                    <img src=""images/schematic_sequence/hotel_scheme/hotel_scheme_2.png"" class=""exp-image"">
                    <div class=""question-area""></div> 
                </div>","null","","","","","","","","",""
"","","","","","html-button-response","167","895327","0.0-167.0","9C6FFFBA22D141559B3804A811D42DAB","019cf071-3faf-7f1c-891b-806b3f778ddb","019ceff9-9f67-7034-9722-02cda2445e09","","774","
                <div class=""stimulus-container"">
                    <img src=""images/schematic_sequence/hotel_scheme/hotel_scheme_2.png"" class=""exp-image"">
                    <div class=""question-area"">
                        <p style=""font-size: 20px; font-weight: bold; margin: 0;"">Is there a person in this image?</p>
                    </div>
                </div>","0","main_experiment_trial","2","hotel_scheme","schematic_sequence","","","","",""
"","","","","","html-keyboard-response","168","900337","0.0-168.0","9C6FFFBA22D141559B3804A811D42DAB","019cf071-3faf-7f1c-891b-806b3f778ddb","019ceff9-9f67-7034-9722-02cda2445e09","","null","
                <div class=""stimulus-container"">
                    <img src=""images/schematic_sequence/hotel_scheme/hotel_scheme_3.png"" class=""exp-image"">
                    <div class=""question-area""></div> 
                </div>","null","","","","","","","","",""
"","","","","","html-button-response","169","901145","0.0-169.0","9C6FFFBA22D141559B3804A811D42DAB","019cf071-3faf-7f1c-891b-806b3f778ddb","019ceff9-9f67-7034-9722-02cda2445e09","","808","
                <div class=""stimulus-container"">
                    <img src=""images/schematic_sequence/hotel_scheme/hotel_scheme_3.png"" class=""exp-image"">
                    <div class=""question-area"">
                        <p style=""font-size: 20px; font-weight: bold; margin: 0;"">Is there a person in this image?</p>
                    </div>
                </div>","0","main_experiment_trial","3","hotel_scheme","schematic_sequence","","","","",""
"","","","","","html-keyboard-response","170","906161","0.0-170.0","9C6FFFBA22D141559B3804A811D42DAB","019cf071-3faf-7f1c-891b-806b3f778ddb","019ceff9-9f67-7034-9722-02cda2445e09","","null","
                <div class=""stimulus-container"">
                    <img src=""images/schematic_sequence/hotel_scheme/hotel_scheme_4.png"" class=""exp-image"">
                    <div class=""question-area""></div> 
                </div>","null","","","","","","","","",""
"","","","","","html-button-response","171","907123","0.0-171.0","9C6FFFBA22D141559B3804A811D42DAB","019cf071-3faf-7f1c-891b-806b3f778ddb","019ceff9-9f67-7034-9722-02cda2445e09","","962","
                <div class=""stimulus-container"">
                    <img src=""images/schematic_sequence/hotel_scheme/hotel_scheme_4.png"" class=""exp-image"">
                    <div class=""question-area"">
                        <p style=""font-size: 20px; font-weight: bold; margin: 0;"">Is there a person in this image?</p>
                    </div>
                </div>","1","main_experiment_trial","4","hotel_scheme","schematic_sequence","","","","",""
"","","","","","html-keyboard-response","172","912126","0.0-172.0","9C6FFFBA22D141559B3804A811D42DAB","019cf071-3faf-7f1c-891b-806b3f778ddb","019ceff9-9f67-7034-9722-02cda2445e09","","null","
                <div class=""stimulus-container"">
                    <img src=""images/schematic_sequence/hotel_scheme/hotel_scheme_5.png"" class=""exp-image"">
                    <div class=""question-area""></div> 
                </div>","null","","","","","","","","",""
"","","","","","html-button-response","173","913225","0.0-173.0","9C6FFFBA22D141559B3804A811D42DAB","019cf071-3faf-7f1c-891b-806b3f778ddb","019ceff9-9f67-7034-9722-02cda2445e09","","1099","
                <div class=""stimulus-container"">
                    <img src=""images/schematic_sequence/hotel_scheme/hotel_scheme_5.png"" class=""exp-image"">
                    <div class=""question-area"">
                        <p style=""font-size: 20px; font-weight: bold; margin: 0;"">Is there a person in this image?</p>
                    </div>
                </div>","0","main_experiment_trial","5","hotel_scheme","schematic_sequence","","","","",""
"","","","","","html-keyboard-response","174","918228","0.0-174.0","9C6FFFBA22D141559B3804A811D42DAB","019cf071-3faf-7f1c-891b-806b3f778ddb","019ceff9-9f67-7034-9722-02cda2445e09","","null","
                <div class=""stimulus-container"">
                    <img src=""images/schematic_sequence/hotel_scheme/hotel_scheme_6.png"" class=""exp-image"">
                    <div class=""question-area""></div> 
                </div>","null","","","","","","","","",""
"","","","","","html-button-response","175","919443","0.0-175.0","9C6FFFBA22D141559B3804A811D42DAB","019cf071-3faf-7f1c-891b-806b3f778ddb","019ceff9-9f67-7034-9722-02cda2445e09","","1215","
                <div class=""stimulus-container"">
                    <img src=""images/schematic_sequence/hotel_scheme/hotel_scheme_6.png"" class=""exp-image"">
                    <div class=""question-area"">
                        <p style=""font-size: 20px; font-weight: bold; margin: 0;"">Is there a person in this image?</p>
                    </div>
                </div>","0","main_experiment_trial","6","hotel_scheme","schematic_sequence","","","","",""
"","","","","","html-keyboard-response","176","924453","0.0-176.0","9C6FFFBA22D141559B3804A811D42DAB","019cf071-3faf-7f1c-891b-806b3f778ddb","019ceff9-9f67-7034-9722-02cda2445e09","","null","
                <div class=""stimulus-container"">
                    <img src=""images/schematic_sequence/hotel_scheme/hotel_scheme_7.png"" class=""exp-image"">
                    <div class=""question-area""></div> 
                </div>","null","","","","","","","","",""
"","","","","","html-button-response","177","925333","0.0-177.0","9C6FFFBA22D141559B3804A811D42DAB","019cf071-3faf-7f1c-891b-806b3f778ddb","019ceff9-9f67-7034-9722-02cda2445e09","","879","
                <div class=""stimulus-container"">
                    <img src=""images/schematic_sequence/hotel_scheme/hotel_scheme_7.png"" class=""exp-image"">
                    <div class=""question-area"">
                        <p style=""font-size: 20px; font-weight: bold; margin: 0;"">Is there a person in this image?</p>
                    </div>
                </div>","0","main_experiment_trial","7","hotel_scheme","schematic_sequence","","","","",""
"","","","","","html-keyboard-response","178","930338","0.0-178.0","9C6FFFBA22D141559B3804A811D42DAB","019cf071-3faf-7f1c-891b-806b3f778ddb","019ceff9-9f67-7034-9722-02cda2445e09","","null","
                <div class=""stimulus-container"">
                    <img src=""images/schematic_sequence/hotel_scheme/hotel_scheme_8.png"" class=""exp-image"">
                    <div class=""question-area""></div> 
                </div>","null","","","","","","","","",""
"","","","","","html-button-response","179","931084","0.0-179.0","9C6FFFBA22D141559B3804A811D42DAB","019cf071-3faf-7f1c-891b-806b3f778ddb","019ceff9-9f67-7034-9722-02cda2445e09","","745","
                <div class=""stimulus-container"">
                    <img src=""images/schematic_sequence/hotel_scheme/hotel_scheme_8.png"" class=""exp-image"">
                    <div class=""question-area"">
                        <p style=""font-size: 20px; font-weight: bold; margin: 0;"">Is there a person in this image?</p>
                    </div>
                </div>","0","main_experiment_trial","8","hotel_scheme","schematic_sequence","","","","",""
"","","","","","html-keyboard-response","180","936094","0.0-180.0","9C6FFFBA22D141559B3804A811D42DAB","019cf071-3faf-7f1c-891b-806b3f778ddb","019ceff9-9f67-7034-9722-02cda2445e09","","null","
                <div class=""stimulus-container"">
                    <img src=""images/schematic_sequence/hotel_scheme/hotel_scheme_9.png"" class=""exp-image"">
                    <div class=""question-area""></div> 
                </div>","null","","","","","","","","",""
"","","","","","html-button-response","181","936881","0.0-181.0","9C6FFFBA22D141559B3804A811D42DAB","019cf071-3faf-7f1c-891b-806b3f778ddb","019ceff9-9f67-7034-9722-02cda2445e09","","787","
                <div class=""stimulus-container"">
                    <img src=""images/schematic_sequence/hotel_scheme/hotel_scheme_9.png"" class=""exp-image"">
                    <div class=""question-area"">
                        <p style=""font-size: 20px; font-weight: bold; margin: 0;"">Is there a person in this image?</p>
                    </div>
                </div>","0","main_experiment_trial","9","hotel_scheme","schematic_sequence","","","","",""
"","","","","","html-keyboard-response","182","941883","0.0-182.0","9C6FFFBA22D141559B3804A811D42DAB","019cf071-3faf-7f1c-891b-806b3f778ddb","019ceff9-9f67-7034-9722-02cda2445e09","","null","
                <div class=""stimulus-container"">
                    <img src=""images/schematic_sequence/hotel_scheme/hotel_scheme_ten.png"" class=""exp-image"">
                    <div class=""question-area""></div> 
                </div>","null","","","","","","","","",""
"","","","","","html-button-response","183","942663","0.0-183.0","9C6FFFBA22D141559B3804A811D42DAB","019cf071-3faf-7f1c-891b-806b3f778ddb","019ceff9-9f67-7034-9722-02cda2445e09","","780","
                <div class=""stimulus-container"">
                    <img src=""images/schematic_sequence/hotel_scheme/hotel_scheme_ten.png"" class=""exp-image"">
                    <div class=""question-area"">
                        <p style=""font-size: 20px; font-weight: bold; margin: 0;"">Is there a person in this image?</p>
                    </div>
                </div>","0","main_experiment_trial","ten","hotel_scheme","schematic_sequence","","","","",""
"","","","","","html-keyboard-response","184","943677","0.0-184.0","9C6FFFBA22D141559B3804A811D42DAB","019cf071-3faf-7f1c-891b-806b3f778ddb","019ceff9-9f67-7034-9722-02cda2445e09","","null","<div style=""background-color: white; width: 100vw; height: 100vh;""></div>","null","","","","","","","","",""
