"success","timeout","failed_images","failed_audio","failed_video","trial_type","trial_index","time_elapsed","internal_node_id","rt","view_history","stimulus","response","task","folder","image_index","valuable_image_index","reward_type","distance_from_x","v_index","n_index","sequence_type","valuable_folder","neutral_folder","chosen_valuable"
"true","false","[]","[]","[]","preload","0","4508","0.0-0.0","","","","","","","","","","","","","","","",""
"true","","","","","fullscreen","1","27757","0.0-1.0","22243","","","","","","","","","","","","","","",""
"","","","","","instructions","2","30008","0.0-2.0","2247","[{""page_index"":0,""viewing_time"":2245}]","","","","","","","","","","","","","",""
"","","","","","html-keyboard-response","3","33013","0.0-3.0","null","","<div style=""background-color: white; width: 100vw; height: 100vh;""></div>","null","","","","","","","","","","","",""
"","","","","","html-keyboard-response","4","37025","0.0-4.0","null","","<div class=""stimulus-container""><img src=""images/schematic_sequence/restaurant_scheme/restaurant_scheme_1.png"" class=""exp-image""></div>","null","","","","","","","","","","","",""
"","","","","","html-button-response","5","40185","0.0-5.0","3154","","<div class=""stimulus-container""><img src=""images/schematic_sequence/restaurant_scheme/restaurant_scheme_1.png"" class=""exp-image""><div class=""question-area""><b>Is there a person?</b></div></div>","0","person_check","restaurant_scheme","1","","","","","","","","",""
"","","","","","html-keyboard-response","6","44202","0.0-6.0","null","","<div class=""stimulus-container""><img src=""images/schematic_sequence/restaurant_scheme/restaurant_scheme_2.png"" class=""exp-image""></div>","null","","","","","","","","","","","",""
"","","","","","html-button-response","7","46918","0.0-7.0","2714","","<div class=""stimulus-container""><img src=""images/schematic_sequence/restaurant_scheme/restaurant_scheme_2.png"" class=""exp-image""><div class=""question-area""><b>Is there a person?</b></div></div>","1","person_check","restaurant_scheme","2","","","","","","","","",""
"","","","","","html-keyboard-response","8","50925","0.0-8.0","null","","<div class=""stimulus-container""><img src=""images/schematic_sequence/restaurant_scheme/restaurant_scheme_3.png"" class=""exp-image""></div>","null","","","","","","","","","","","",""
"","","","","","html-button-response","9","53667","0.0-9.0","2740","","<div class=""stimulus-container""><img src=""images/schematic_sequence/restaurant_scheme/restaurant_scheme_3.png"" class=""exp-image""><div class=""question-area""><b>Is there a person?</b></div></div>","1","person_check","restaurant_scheme","3","","","","","","","","",""
"","","","","","html-keyboard-response","10","57677","0.0-10.0","null","","<div class=""stimulus-container""><img src=""images/schematic_sequence/restaurant_scheme/restaurant_scheme_4.png"" class=""exp-image""></div>","null","","","","","","","","","","","",""
"","","","","","html-button-response","11","60633","0.0-11.0","2953","","<div class=""stimulus-container""><img src=""images/schematic_sequence/restaurant_scheme/restaurant_scheme_4.png"" class=""exp-image""><div class=""question-area""><b>Is there a person?</b></div></div>","0","person_check","restaurant_scheme","4","","","","","","","","",""
"","","","","","html-keyboard-response","12","64636","0.0-12.0","null","","<div class=""stimulus-container""><img src=""images/schematic_sequence/restaurant_scheme/restaurant_scheme_5.png"" class=""exp-image""></div>","null","","","","","","","","","","","",""
"","","","","","html-button-response","13","65825","0.0-13.0","1187","","<div class=""stimulus-container""><img src=""images/schematic_sequence/restaurant_scheme/restaurant_scheme_5.png"" class=""exp-image""><div class=""question-area""><b>Is there a person?</b></div></div>","0","person_check","restaurant_scheme","5","","","","","","","","",""
"","","","","","html-keyboard-response","14","69829","0.0-14.0","null","","<div class=""stimulus-container""><img src=""images/schematic_sequence/restaurant_scheme/restaurant_scheme_6.png"" class=""exp-image""></div>","null","","","","","","","","","","","",""
"","","","","","html-button-response","15","72218","0.0-15.0","2387","","<div class=""stimulus-container""><img src=""images/schematic_sequence/restaurant_scheme/restaurant_scheme_6.png"" class=""exp-image""><div class=""question-area""><b>Is there a person?</b></div></div>","1","person_check","restaurant_scheme","6","","","","","","","","",""
"","","","","","html-keyboard-response","16","76225","0.0-16.0","null","","<div class=""stimulus-container""><img src=""images/schematic_sequence/restaurant_scheme/restaurant_scheme_7.png"" class=""exp-image""></div>","null","","","","","","","","","","","",""
"","","","","","html-button-response","17","78740","0.0-17.0","2513","","<div class=""stimulus-container""><img src=""images/schematic_sequence/restaurant_scheme/restaurant_scheme_7.png"" class=""exp-image""><div class=""question-area""><b>Is there a person?</b></div></div>","1","person_check","restaurant_scheme","7","","","","","","","","",""
"","","","","","html-keyboard-response","18","82749","0.0-18.0","null","","<div class=""stimulus-container""><img src=""images/schematic_sequence/restaurant_scheme/restaurant_scheme_8.png"" class=""exp-image""></div>","null","","","","","","","","","","","",""
"","","","","","html-button-response","19","84980","0.0-19.0","2229","","<div class=""stimulus-container""><img src=""images/schematic_sequence/restaurant_scheme/restaurant_scheme_8.png"" class=""exp-image""><div class=""question-area""><b>Is there a person?</b></div></div>","0","person_check","restaurant_scheme","8","","","","","","","","",""
"","","","","","html-keyboard-response","20","88981","0.0-20.0","null","","<div class=""stimulus-container""><img src=""images/schematic_sequence/restaurant_scheme/restaurant_scheme_9.png"" class=""exp-image""></div>","null","","","","","","","","","","","",""
"","","","","","html-button-response","21","90000","0.0-21.0","1017","","<div class=""stimulus-container""><img src=""images/schematic_sequence/restaurant_scheme/restaurant_scheme_9.png"" class=""exp-image""><div class=""question-area""><b>Is there a person?</b></div></div>","0","person_check","restaurant_scheme","9","","","","","","","","",""
"","","","","","html-keyboard-response","22","94018","0.0-22.0","null","","<div class=""stimulus-container""><img src=""images/schematic_sequence/restaurant_scheme/restaurant_scheme_ten.png"" class=""exp-image""></div>","null","","","","","","","","","","","",""
"","","","","","html-button-response","23","96934","0.0-23.0","2912","","<div class=""stimulus-container""><img src=""images/schematic_sequence/restaurant_scheme/restaurant_scheme_ten.png"" class=""exp-image""><div class=""question-area""><b>Is there a person?</b></div></div>","0","person_check","restaurant_scheme","10","","","","","","","","",""
"","","","","","html-keyboard-response","24","99936","0.0-24.0","null","","<div style=""background-color: white; width: 100vw; height: 100vh;""></div>","null","","","","","","","","","","","",""
"","","","","","html-keyboard-response","25","103947","0.0-25.0","null","","<div class=""stimulus-container""><img src=""images/schematic_sequence/supermarket_scheme/supermarket_scheme_1.png"" class=""exp-image""></div>","null","","","","","","","","","","","",""
"","","","","","html-button-response","26","105976","0.0-26.0","2028","","<div class=""stimulus-container""><img src=""images/schematic_sequence/supermarket_scheme/supermarket_scheme_1.png"" class=""exp-image""><div class=""question-area""><b>Is there a person?</b></div></div>","1","person_check","supermarket_scheme","1","","","","","","","","",""
"","","","","","html-keyboard-response","27","109979","0.0-27.0","null","","<div class=""stimulus-container""><img src=""images/schematic_sequence/supermarket_scheme/supermarket_scheme_2.png"" class=""exp-image""></div>","null","","","","","","","","","","","",""
"","","","","","html-button-response","28","111130","0.0-28.0","1150","","<div class=""stimulus-container""><img src=""images/schematic_sequence/supermarket_scheme/supermarket_scheme_2.png"" class=""exp-image""><div class=""question-area""><b>Is there a person?</b></div></div>","1","person_check","supermarket_scheme","2","","","","","","","","",""
"","","","","","html-keyboard-response","29","115147","0.0-29.0","null","","<div class=""stimulus-container""><img src=""images/schematic_sequence/supermarket_scheme/supermarket_scheme_3.png"" class=""exp-image""></div>","null","","","","","","","","","","","",""
"","","","","","html-button-response","30","116949","0.0-30.0","1799","","<div class=""stimulus-container""><img src=""images/schematic_sequence/supermarket_scheme/supermarket_scheme_3.png"" class=""exp-image""><div class=""question-area""><b>Is there a person?</b></div></div>","1","person_check","supermarket_scheme","3","","","","","","","","",""
"","","","","","html-keyboard-response","31","120951","0.0-31.0","null","","<div class=""stimulus-container""><img src=""images/schematic_sequence/supermarket_scheme/supermarket_scheme_4.png"" class=""exp-image""></div>","null","","","","","","","","","","","",""
"","","","","","html-button-response","32","121999","0.0-32.0","1047","","<div class=""stimulus-container""><img src=""images/schematic_sequence/supermarket_scheme/supermarket_scheme_4.png"" class=""exp-image""><div class=""question-area""><b>Is there a person?</b></div></div>","0","person_check","supermarket_scheme","4","","","","","","","","",""
"","","","","","html-keyboard-response","33","126013","0.0-33.0","null","","<div class=""stimulus-container""><img src=""images/schematic_sequence/supermarket_scheme/supermarket_scheme_5.png"" class=""exp-image""></div>","null","","","","","","","","","","","",""
"","","","","","html-button-response","34","127184","0.0-34.0","1168","","<div class=""stimulus-container""><img src=""images/schematic_sequence/supermarket_scheme/supermarket_scheme_5.png"" class=""exp-image""><div class=""question-area""><b>Is there a person?</b></div></div>","1","person_check","supermarket_scheme","5","","","","","","","","",""
"","","","","","html-keyboard-response","35","131189","0.0-35.0","null","","<div class=""stimulus-container""><img src=""images/schematic_sequence/supermarket_scheme/supermarket_scheme_6.png"" class=""exp-image""></div>","null","","","","","","","","","","","",""
"","","","","","html-button-response","36","133206","0.0-36.0","2012","","<div class=""stimulus-container""><img src=""images/schematic_sequence/supermarket_scheme/supermarket_scheme_6.png"" class=""exp-image""><div class=""question-area""><b>Is there a person?</b></div></div>","0","person_check","supermarket_scheme","6","","","","","","","","",""
"","","","","","html-keyboard-response","37","137223","0.0-37.0","null","","<div class=""stimulus-container""><img src=""images/schematic_sequence/supermarket_scheme/supermarket_scheme_7.png"" class=""exp-image""></div>","null","","","","","","","","","","","",""
"","","","","","html-button-response","38","138535","0.0-38.0","1310","","<div class=""stimulus-container""><img src=""images/schematic_sequence/supermarket_scheme/supermarket_scheme_7.png"" class=""exp-image""><div class=""question-area""><b>Is there a person?</b></div></div>","0","person_check","supermarket_scheme","7","","","","","","","","",""
"","","","","","html-keyboard-response","39","142536","0.0-39.0","null","","<div class=""stimulus-container""><img src=""images/schematic_sequence/supermarket_scheme/supermarket_scheme_8.png"" class=""exp-image""></div>","null","","","","","","","","","","","",""
"","","","","","html-button-response","40","143364","0.0-40.0","826","","<div class=""stimulus-container""><img src=""images/schematic_sequence/supermarket_scheme/supermarket_scheme_8.png"" class=""exp-image""><div class=""question-area""><b>Is there a person?</b></div></div>","0","person_check","supermarket_scheme","8","","","","","","","","",""
"","","","","","html-keyboard-response","41","147381","0.0-41.0","null","","<div class=""stimulus-container""><img src=""images/schematic_sequence/supermarket_scheme/supermarket_scheme_9.png"" class=""exp-image""></div>","null","","","","","","","","","","","",""
"","","","","","html-button-response","42","150000","0.0-42.0","2617","","<div class=""stimulus-container""><img src=""images/schematic_sequence/supermarket_scheme/supermarket_scheme_9.png"" class=""exp-image""><div class=""question-area""><b>Is there a person?</b></div></div>","0","person_check","supermarket_scheme","9","","","","","","","","",""
"","","","","","html-keyboard-response","43","154015","0.0-43.0","null","","<div class=""stimulus-container""><img src=""images/schematic_sequence/supermarket_scheme/supermarket_scheme_ten.png"" class=""exp-image""></div>","null","","","","","","","","","","","",""
"","","","","","html-button-response","44","159127","0.0-44.0","5108","","<div class=""stimulus-container""><img src=""images/schematic_sequence/supermarket_scheme/supermarket_scheme_ten.png"" class=""exp-image""><div class=""question-area""><b>Is there a person?</b></div></div>","1","person_check","supermarket_scheme","10","","","","","","","","",""
"","","","","","html-keyboard-response","45","162130","0.0-45.0","null","","<div style=""background-color: white; width: 100vw; height: 100vh;""></div>","null","","","","","","","","","","","",""
"","","","","","html-keyboard-response","46","166145","0.0-46.0","null","","<div class=""stimulus-container""><img src=""images/schematic_sequence/interview_scheme/interview_scheme_1.png"" class=""exp-image""></div>","null","","","","","","","","","","","",""
"","","","","","html-button-response","47","168822","0.0-47.0","2674","","<div class=""stimulus-container""><img src=""images/schematic_sequence/interview_scheme/interview_scheme_1.png"" class=""exp-image""><div class=""question-area""><b>Is there a person?</b></div></div>","1","person_check","interview_scheme","1","","","","","","","","",""
"","","","","","html-keyboard-response","48","172826","0.0-48.0","null","","<div class=""stimulus-container""><img src=""images/schematic_sequence/interview_scheme/interview_scheme_2.png"" class=""exp-image""></div>","null","","","","","","","","","","","",""
"","","","","","html-button-response","49","175406","0.0-49.0","2577","","<div class=""stimulus-container""><img src=""images/schematic_sequence/interview_scheme/interview_scheme_2.png"" class=""exp-image""><div class=""question-area""><b>Is there a person?</b></div></div>","1","person_check","interview_scheme","2","","","","","","","","",""
"","","","","","html-keyboard-response","50","179416","0.0-50.0","null","","<div class=""stimulus-container""><img src=""images/schematic_sequence/interview_scheme/interview_scheme_3.png"" class=""exp-image""></div>","null","","","","","","","","","","","",""
"","","","","","html-button-response","51","182000","0.0-51.0","2581","","<div class=""stimulus-container""><img src=""images/schematic_sequence/interview_scheme/interview_scheme_3.png"" class=""exp-image""><div class=""question-area""><b>Is there a person?</b></div></div>","1","person_check","interview_scheme","3","","","","","","","","",""
"","","","","","html-keyboard-response","52","186008","0.0-52.0","null","","<div class=""stimulus-container""><img src=""images/schematic_sequence/interview_scheme/interview_scheme_4.png"" class=""exp-image""></div>","null","","","","","","","","","","","",""
"","","","","","html-button-response","53","190677","0.0-53.0","4668","","<div class=""stimulus-container""><img src=""images/schematic_sequence/interview_scheme/interview_scheme_4.png"" class=""exp-image""><div class=""question-area""><b>Is there a person?</b></div></div>","1","person_check","interview_scheme","4","","","","","","","","",""
"","","","","","html-keyboard-response","54","194686","0.0-54.0","null","","<div class=""stimulus-container""><img src=""images/schematic_sequence/interview_scheme/interview_scheme_5.png"" class=""exp-image""></div>","null","","","","","","","","","","","",""
"","","","","","html-button-response","55","198159","0.0-55.0","3470","","<div class=""stimulus-container""><img src=""images/schematic_sequence/interview_scheme/interview_scheme_5.png"" class=""exp-image""><div class=""question-area""><b>Is there a person?</b></div></div>","0","person_check","interview_scheme","5","","","","","","","","",""
"","","","","","html-keyboard-response","56","202168","0.0-56.0","null","","<div class=""stimulus-container""><img src=""images/schematic_sequence/interview_scheme/interview_scheme_6.png"" class=""exp-image""></div>","null","","","","","","","","","","","",""
"","","","","","html-button-response","57","204447","0.0-57.0","2276","","<div class=""stimulus-container""><img src=""images/schematic_sequence/interview_scheme/interview_scheme_6.png"" class=""exp-image""><div class=""question-area""><b>Is there a person?</b></div></div>","0","person_check","interview_scheme","6","","","","","","","","",""
"","","","","","html-keyboard-response","58","208449","0.0-58.0","null","","<div class=""stimulus-container""><img src=""images/schematic_sequence/interview_scheme/interview_scheme_7.png"" class=""exp-image""></div>","null","","","","","","","","","","","",""
"","","","","","html-button-response","59","209387","0.0-59.0","937","","<div class=""stimulus-container""><img src=""images/schematic_sequence/interview_scheme/interview_scheme_7.png"" class=""exp-image""><div class=""question-area""><b>Is there a person?</b></div></div>","0","person_check","interview_scheme","7","","","","","","","","",""
"","","","","","html-keyboard-response","60","213877","0.0-60.0","null","","<div class=""stimulus-container""><img src=""images/schematic_sequence/interview_scheme/interview_scheme_8.png"" class=""exp-image""></div>","null","","","","","","","","","","","",""
"","","","","","html-button-response","61","219134","0.0-61.0","5256","","<div class=""stimulus-container""><img src=""images/schematic_sequence/interview_scheme/interview_scheme_8.png"" class=""exp-image""><div class=""question-area""><b>Is there a person?</b></div></div>","0","person_check","interview_scheme","8","","","","","","","","",""
"","","","","","html-keyboard-response","62","223144","0.0-62.0","null","","<div class=""stimulus-container""><img src=""images/schematic_sequence/interview_scheme/interview_scheme_9.png"" class=""exp-image""></div>","null","","","","","","","","","","","",""
"","","","","","html-button-response","63","224523","0.0-63.0","1375","","<div class=""stimulus-container""><img src=""images/schematic_sequence/interview_scheme/interview_scheme_9.png"" class=""exp-image""><div class=""question-area""><b>Is there a person?</b></div></div>","0","person_check","interview_scheme","9","","","","","","","","",""
"","","","","","html-keyboard-response","64","228534","0.0-64.0","null","","<div class=""stimulus-container""><img src=""images/schematic_sequence/interview_scheme/interview_scheme_ten.png"" class=""exp-image""></div>","null","","","","","","","","","","","",""
"","","","","","html-button-response","65","229691","0.0-65.0","1155","","<div class=""stimulus-container""><img src=""images/schematic_sequence/interview_scheme/interview_scheme_ten.png"" class=""exp-image""><div class=""question-area""><b>Is there a person?</b></div></div>","0","person_check","interview_scheme","10","","","","","","","","",""
"","","","","","html-keyboard-response","66","232710","0.0-66.0","null","","<div style=""background-color: white; width: 100vw; height: 100vh;""></div>","null","","","","","","","","","","","",""
"","","","","","html-keyboard-response","67","236712","0.0-67.0","null","","<div class=""stimulus-container""><img src=""images/causal_sequence/saving_a_cat_causal/saving_a_cat_causal_1.png"" class=""exp-image""></div>","null","","","","","","","","","","","",""
"","","","","","html-button-response","68","237813","0.0-68.0","1099","","<div class=""stimulus-container""><img src=""images/causal_sequence/saving_a_cat_causal/saving_a_cat_causal_1.png"" class=""exp-image""><div class=""question-area""><b>Is there a person?</b></div></div>","0","person_check","saving_a_cat_causal","1","","","","","","","","",""
"","","","","","html-keyboard-response","69","241826","0.0-69.0","null","","<div class=""stimulus-container""><img src=""images/causal_sequence/saving_a_cat_causal/saving_a_cat_causal_2.png"" class=""exp-image""></div>","null","","","","","","","","","","","",""
"","","","","","html-button-response","70","244201","0.0-70.0","2373","","<div class=""stimulus-container""><img src=""images/causal_sequence/saving_a_cat_causal/saving_a_cat_causal_2.png"" class=""exp-image""><div class=""question-area""><b>Is there a person?</b></div></div>","1","person_check","saving_a_cat_causal","2","","","","","","","","",""
"","","","","","html-keyboard-response","71","248218","0.0-71.0","null","","<div class=""stimulus-container""><img src=""images/causal_sequence/saving_a_cat_causal/saving_a_cat_causal_3.png"" class=""exp-image""></div>","null","","","","","","","","","","","",""
"","","","","","html-button-response","72","253171","0.0-72.0","4949","","<div class=""stimulus-container""><img src=""images/causal_sequence/saving_a_cat_causal/saving_a_cat_causal_3.png"" class=""exp-image""><div class=""question-area""><b>Is there a person?</b></div></div>","1","person_check","saving_a_cat_causal","3","","","","","","","","",""
"","","","","","html-keyboard-response","73","257190","0.0-73.0","null","","<div class=""stimulus-container""><img src=""images/causal_sequence/saving_a_cat_causal/saving_a_cat_causal_4.png"" class=""exp-image""></div>","null","","","","","","","","","","","",""
"","","","","","html-button-response","74","269103","0.0-74.0","11910","","<div class=""stimulus-container""><img src=""images/causal_sequence/saving_a_cat_causal/saving_a_cat_causal_4.png"" class=""exp-image""><div class=""question-area""><b>Is there a person?</b></div></div>","0","person_check","saving_a_cat_causal","4","","","","","","","","",""
"","","","","","html-keyboard-response","75","273111","0.0-75.0","null","","<div class=""stimulus-container""><img src=""images/causal_sequence/saving_a_cat_causal/saving_a_cat_causal_5.png"" class=""exp-image""></div>","null","","","","","","","","","","","",""
"","","","","","html-button-response","76","280574","0.0-76.0","7460","","<div class=""stimulus-container""><img src=""images/causal_sequence/saving_a_cat_causal/saving_a_cat_causal_5.png"" class=""exp-image""><div class=""question-area""><b>Is there a person?</b></div></div>","0","person_check","saving_a_cat_causal","5","","","","","","","","",""
"","","","","","html-keyboard-response","77","284584","0.0-77.0","null","","<div class=""stimulus-container""><img src=""images/causal_sequence/saving_a_cat_causal/saving_a_cat_causal_6.png"" class=""exp-image""></div>","null","","","","","","","","","","","",""
"","","","","","html-button-response","78","286013","0.0-78.0","1428","","<div class=""stimulus-container""><img src=""images/causal_sequence/saving_a_cat_causal/saving_a_cat_causal_6.png"" class=""exp-image""><div class=""question-area""><b>Is there a person?</b></div></div>","0","person_check","saving_a_cat_causal","6","","","","","","","","",""
"","","","","","html-keyboard-response","79","290026","0.0-79.0","null","","<div class=""stimulus-container""><img src=""images/causal_sequence/saving_a_cat_causal/saving_a_cat_causal_7.png"" class=""exp-image""></div>","null","","","","","","","","","","","",""
"","","","","","html-button-response","80","298182","0.0-80.0","8152","","<div class=""stimulus-container""><img src=""images/causal_sequence/saving_a_cat_causal/saving_a_cat_causal_7.png"" class=""exp-image""><div class=""question-area""><b>Is there a person?</b></div></div>","0","person_check","saving_a_cat_causal","7","","","","","","","","",""
"","","","","","html-keyboard-response","81","302191","0.0-81.0","null","","<div class=""stimulus-container""><img src=""images/causal_sequence/saving_a_cat_causal/saving_a_cat_causal_8.png"" class=""exp-image""></div>","null","","","","","","","","","","","",""
"","","","","","html-button-response","82","313355","0.0-82.0","11163","","<div class=""stimulus-container""><img src=""images/causal_sequence/saving_a_cat_causal/saving_a_cat_causal_8.png"" class=""exp-image""><div class=""question-area""><b>Is there a person?</b></div></div>","0","person_check","saving_a_cat_causal","8","","","","","","","","",""
"","","","","","html-keyboard-response","83","317874","0.0-83.0","null","","<div class=""stimulus-container""><img src=""images/causal_sequence/saving_a_cat_causal/saving_a_cat_causal_9.png"" class=""exp-image""></div>","null","","","","","","","","","","","",""
"","","","","","html-button-response","84","322993","0.0-84.0","5118","","<div class=""stimulus-container""><img src=""images/causal_sequence/saving_a_cat_causal/saving_a_cat_causal_9.png"" class=""exp-image""><div class=""question-area""><b>Is there a person?</b></div></div>","0","person_check","saving_a_cat_causal","9","","","","","","","","",""
"","","","","","html-keyboard-response","85","327878","0.0-85.0","null","","<div class=""stimulus-container""><img src=""images/causal_sequence/saving_a_cat_causal/saving_a_cat_causal_ten.png"" class=""exp-image""></div>","null","","","","","","","","","","","",""
"","","","","","html-button-response","86","330636","0.0-86.0","2756","","<div class=""stimulus-container""><img src=""images/causal_sequence/saving_a_cat_causal/saving_a_cat_causal_ten.png"" class=""exp-image""><div class=""question-area""><b>Is there a person?</b></div></div>","0","person_check","saving_a_cat_causal","10","","","","","","","","",""
"","","","","","html-keyboard-response","87","333638","0.0-87.0","null","","<div style=""background-color: white; width: 100vw; height: 100vh;""></div>","null","","","","","","","","","","","",""
"","","","","","html-keyboard-response","88","337639","0.0-88.0","null","","<div class=""stimulus-container""><img src=""images/schematic_sequence/hotel_scheme/hotel_scheme_1.png"" class=""exp-image""></div>","null","","","","","","","","","","","",""
"","","","","","html-button-response","89","338485","0.0-89.0","843","","<div class=""stimulus-container""><img src=""images/schematic_sequence/hotel_scheme/hotel_scheme_1.png"" class=""exp-image""><div class=""question-area""><b>Is there a person?</b></div></div>","1","person_check","hotel_scheme","1","","","","","","","","",""
"","","","","","html-keyboard-response","90","342866","0.0-90.0","null","","<div class=""stimulus-container""><img src=""images/schematic_sequence/hotel_scheme/hotel_scheme_2.png"" class=""exp-image""></div>","null","","","","","","","","","","","",""
"","","","","","html-button-response","91","365652","0.0-91.0","22784","","<div class=""stimulus-container""><img src=""images/schematic_sequence/hotel_scheme/hotel_scheme_2.png"" class=""exp-image""><div class=""question-area""><b>Is there a person?</b></div></div>","0","person_check","hotel_scheme","2","","","","","","","","",""
"","","","","","html-keyboard-response","92","369659","0.0-92.0","null","","<div class=""stimulus-container""><img src=""images/schematic_sequence/hotel_scheme/hotel_scheme_3.png"" class=""exp-image""></div>","null","","","","","","","","","","","",""
"","","","","","html-button-response","93","379331","0.0-93.0","9669","","<div class=""stimulus-container""><img src=""images/schematic_sequence/hotel_scheme/hotel_scheme_3.png"" class=""exp-image""><div class=""question-area""><b>Is there a person?</b></div></div>","0","person_check","hotel_scheme","3","","","","","","","","",""
"","","","","","html-keyboard-response","94","383884","0.0-94.0","null","","<div class=""stimulus-container""><img src=""images/schematic_sequence/hotel_scheme/hotel_scheme_4.png"" class=""exp-image""></div>","null","","","","","","","","","","","",""
"","","","","","html-button-response","95","427149","0.0-95.0","43265","","<div class=""stimulus-container""><img src=""images/schematic_sequence/hotel_scheme/hotel_scheme_4.png"" class=""exp-image""><div class=""question-area""><b>Is there a person?</b></div></div>","1","person_check","hotel_scheme","4","","","","","","","","",""
"","","","","","html-keyboard-response","96","431877","0.0-96.0","null","","<div class=""stimulus-container""><img src=""images/schematic_sequence/hotel_scheme/hotel_scheme_5.png"" class=""exp-image""></div>","null","","","","","","","","","","","",""
"","","","","","html-button-response","97","436182","0.0-97.0","4303","","<div class=""stimulus-container""><img src=""images/schematic_sequence/hotel_scheme/hotel_scheme_5.png"" class=""exp-image""><div class=""question-area""><b>Is there a person?</b></div></div>","0","person_check","hotel_scheme","5","","","","","","","","",""
"","","","","","html-keyboard-response","98","440875","0.0-98.0","null","","<div class=""stimulus-container""><img src=""images/schematic_sequence/hotel_scheme/hotel_scheme_6.png"" class=""exp-image""></div>","null","","","","","","","","","","","",""
"","","","","","html-button-response","99","454036","0.0-99.0","13158","","<div class=""stimulus-container""><img src=""images/schematic_sequence/hotel_scheme/hotel_scheme_6.png"" class=""exp-image""><div class=""question-area""><b>Is there a person?</b></div></div>","0","person_check","hotel_scheme","6","","","","","","","","",""
"","","","","","html-keyboard-response","100","458878","0.0-100.0","null","","<div class=""stimulus-container""><img src=""images/schematic_sequence/hotel_scheme/hotel_scheme_7.png"" class=""exp-image""></div>","null","","","","","","","","","","","",""
"","","","","","html-button-response","101","461478","0.0-101.0","2596","","<div class=""stimulus-container""><img src=""images/schematic_sequence/hotel_scheme/hotel_scheme_7.png"" class=""exp-image""><div class=""question-area""><b>Is there a person?</b></div></div>","0","person_check","hotel_scheme","7","","","","","","","","",""
"","","","","","html-keyboard-response","102","465888","0.0-102.0","null","","<div class=""stimulus-container""><img src=""images/schematic_sequence/hotel_scheme/hotel_scheme_8.png"" class=""exp-image""></div>","null","","","","","","","","","","","",""
"","","","","","html-button-response","103","478392","0.0-103.0","12503","","<div class=""stimulus-container""><img src=""images/schematic_sequence/hotel_scheme/hotel_scheme_8.png"" class=""exp-image""><div class=""question-area""><b>Is there a person?</b></div></div>","0","person_check","hotel_scheme","8","","","","","","","","",""
"","","","","","html-keyboard-response","104","482400","0.0-104.0","null","","<div class=""stimulus-container""><img src=""images/schematic_sequence/hotel_scheme/hotel_scheme_9.png"" class=""exp-image""></div>","null","","","","","","","","","","","",""
"","","","","","html-button-response","105","483309","0.0-105.0","907","","<div class=""stimulus-container""><img src=""images/schematic_sequence/hotel_scheme/hotel_scheme_9.png"" class=""exp-image""><div class=""question-area""><b>Is there a person?</b></div></div>","0","person_check","hotel_scheme","9","","","","","","","","",""
"","","","","","html-keyboard-response","106","487882","0.0-106.0","null","","<div class=""stimulus-container""><img src=""images/schematic_sequence/hotel_scheme/hotel_scheme_ten.png"" class=""exp-image""></div>","null","","","","","","","","","","","",""
"","","","","","html-button-response","107","494446","0.0-107.0","6558","","<div class=""stimulus-container""><img src=""images/schematic_sequence/hotel_scheme/hotel_scheme_ten.png"" class=""exp-image""><div class=""question-area""><b>Is there a person?</b></div></div>","0","person_check","hotel_scheme","10","","","","","","","","",""
"","","","","","html-keyboard-response","108","498313","0.0-108.0","null","","<div style=""background-color: white; width: 100vw; height: 100vh;""></div>","null","","","","","","","","","","","",""
"","","","","","html-keyboard-response","109","502875","0.0-109.0","null","","<div class=""stimulus-container""><img src=""images/semantic_sequence/housework_semantic/housework_semantic_1.png"" class=""exp-image""></div>","null","","","","","","","","","","","",""
"","","","","","html-button-response","110","507369","0.0-110.0","4492","","<div class=""stimulus-container""><img src=""images/semantic_sequence/housework_semantic/housework_semantic_1.png"" class=""exp-image""><div class=""question-area""><b>Is there a person?</b></div></div>","0","person_check","housework_semantic","1","","","","","","","","",""
"","","","","","html-keyboard-response","111","511386","0.0-111.0","null","","<div class=""stimulus-container""><img src=""images/semantic_sequence/housework_semantic/housework_semantic_2.png"" class=""exp-image""></div>","null","","","","","","","","","","","",""
"","","","","","html-button-response","112","512122","0.0-112.0","734","","<div class=""stimulus-container""><img src=""images/semantic_sequence/housework_semantic/housework_semantic_2.png"" class=""exp-image""><div class=""question-area""><b>Is there a person?</b></div></div>","0","person_check","housework_semantic","2","","","","","","","","",""
"","","","","","html-keyboard-response","113","516137","0.0-113.0","null","","<div class=""stimulus-container""><img src=""images/semantic_sequence/housework_semantic/housework_semantic_3.png"" class=""exp-image""></div>","null","","","","","","","","","","","",""
"","","","","","html-button-response","114","517432","0.0-114.0","1293","","<div class=""stimulus-container""><img src=""images/semantic_sequence/housework_semantic/housework_semantic_3.png"" class=""exp-image""><div class=""question-area""><b>Is there a person?</b></div></div>","0","person_check","housework_semantic","3","","","","","","","","",""
"","","","","","html-keyboard-response","115","521444","0.0-115.0","null","","<div class=""stimulus-container""><img src=""images/semantic_sequence/housework_semantic/housework_semantic_4.png"" class=""exp-image""></div>","null","","","","","","","","","","","",""
"","","","","","html-button-response","116","522076","0.0-116.0","630","","<div class=""stimulus-container""><img src=""images/semantic_sequence/housework_semantic/housework_semantic_4.png"" class=""exp-image""><div class=""question-area""><b>Is there a person?</b></div></div>","0","person_check","housework_semantic","4","","","","","","","","",""
"","","","","","html-keyboard-response","117","526084","0.0-117.0","null","","<div class=""stimulus-container""><img src=""images/semantic_sequence/housework_semantic/housework_semantic_5.png"" class=""exp-image""></div>","null","","","","","","","","","","","",""
"","","","","","html-button-response","118","528687","0.0-118.0","2600","","<div class=""stimulus-container""><img src=""images/semantic_sequence/housework_semantic/housework_semantic_5.png"" class=""exp-image""><div class=""question-area""><b>Is there a person?</b></div></div>","0","person_check","housework_semantic","5","","","","","","","","",""
"","","","","","html-keyboard-response","119","532689","0.0-119.0","null","","<div class=""stimulus-container""><img src=""images/semantic_sequence/housework_semantic/housework_semantic_6.png"" class=""exp-image""></div>","null","","","","","","","","","","","",""
"","","","","","html-button-response","120","537357","0.0-120.0","4666","","<div class=""stimulus-container""><img src=""images/semantic_sequence/housework_semantic/housework_semantic_6.png"" class=""exp-image""><div class=""question-area""><b>Is there a person?</b></div></div>","0","person_check","housework_semantic","6","","","","","","","","",""
"","","","","","html-keyboard-response","121","541361","0.0-121.0","null","","<div class=""stimulus-container""><img src=""images/semantic_sequence/housework_semantic/housework_semantic_7.png"" class=""exp-image""></div>","null","","","","","","","","","","","",""
"","","","","","html-button-response","122","545239","0.0-122.0","3874","","<div class=""stimulus-container""><img src=""images/semantic_sequence/housework_semantic/housework_semantic_7.png"" class=""exp-image""><div class=""question-area""><b>Is there a person?</b></div></div>","0","person_check","housework_semantic","7","","","","","","","","",""
"","","","","","html-keyboard-response","123","549243","0.0-123.0","null","","<div class=""stimulus-container""><img src=""images/semantic_sequence/housework_semantic/housework_semantic_8.png"" class=""exp-image""></div>","null","","","","","","","","","","","",""
"","","","","","html-button-response","124","564893","0.0-124.0","15647","","<div class=""stimulus-container""><img src=""images/semantic_sequence/housework_semantic/housework_semantic_8.png"" class=""exp-image""><div class=""question-area""><b>Is there a person?</b></div></div>","0","person_check","housework_semantic","8","","","","","","","","",""
"","","","","","html-keyboard-response","125","568905","0.0-125.0","null","","<div class=""stimulus-container""><img src=""images/semantic_sequence/housework_semantic/housework_semantic_9.png"" class=""exp-image""></div>","null","","","","","","","","","","","",""
"","","","","","html-button-response","126","580235","0.0-126.0","11329","","<div class=""stimulus-container""><img src=""images/semantic_sequence/housework_semantic/housework_semantic_9.png"" class=""exp-image""><div class=""question-area""><b>Is there a person?</b></div></div>","0","person_check","housework_semantic","9","","","","","","","","",""
"","","","","","html-keyboard-response","127","584239","0.0-127.0","null","","<div class=""stimulus-container""><img src=""images/semantic_sequence/housework_semantic/housework_semantic_ten.png"" class=""exp-image""></div>","null","","","","","","","","","","","",""
"","","","","","html-button-response","128","594238","0.0-128.0","9996","","<div class=""stimulus-container""><img src=""images/semantic_sequence/housework_semantic/housework_semantic_ten.png"" class=""exp-image""><div class=""question-area""><b>Is there a person?</b></div></div>","0","person_check","housework_semantic","10","","","","","","","","",""
"","","","","","html-keyboard-response","129","597246","0.0-129.0","null","","<div style=""background-color: white; width: 100vw; height: 100vh;""></div>","null","","","","","","","","","","","",""
"","","","","","html-keyboard-response","130","601260","0.0-130.0","null","","<div class=""stimulus-container""><img src=""images/causal_sequence/coin_causal/coin_causal_1.png"" class=""exp-image""></div>","null","","","","","","","","","","","",""
"","","","","","html-button-response","131","602290","0.0-131.0","1028","","<div class=""stimulus-container""><img src=""images/causal_sequence/coin_causal/coin_causal_1.png"" class=""exp-image""><div class=""question-area""><b>Is there a person?</b></div></div>","0","person_check","coin_causal","1","","","","","","","","",""
"","","","","","html-keyboard-response","132","606301","0.0-132.0","null","","<div class=""stimulus-container""><img src=""images/causal_sequence/coin_causal/coin_causal_2.png"" class=""exp-image""></div>","null","","","","","","","","","","","",""
"","","","","","html-button-response","133","613812","0.0-133.0","7508","","<div class=""stimulus-container""><img src=""images/causal_sequence/coin_causal/coin_causal_2.png"" class=""exp-image""><div class=""question-area""><b>Is there a person?</b></div></div>","0","person_check","coin_causal","2","","","","","","","","",""
"","","","","","html-keyboard-response","134","617822","0.0-134.0","null","","<div class=""stimulus-container""><img src=""images/causal_sequence/coin_causal/coin_causal_3.png"" class=""exp-image""></div>","null","","","","","","","","","","","",""
"","","","","","html-button-response","135","645837","0.0-135.0","28011","","<div class=""stimulus-container""><img src=""images/causal_sequence/coin_causal/coin_causal_3.png"" class=""exp-image""><div class=""question-area""><b>Is there a person?</b></div></div>","0","person_check","coin_causal","3","","","","","","","","",""
"","","","","","html-keyboard-response","136","649868","0.0-136.0","null","","<div class=""stimulus-container""><img src=""images/causal_sequence/coin_causal/coin_causal_4.png"" class=""exp-image""></div>","null","","","","","","","","","","","",""
"","","","","","html-button-response","137","827032","0.0-137.0","177162","","<div class=""stimulus-container""><img src=""images/causal_sequence/coin_causal/coin_causal_4.png"" class=""exp-image""><div class=""question-area""><b>Is there a person?</b></div></div>","0","person_check","coin_causal","4","","","","","","","","",""
"","","","","","html-keyboard-response","138","831866","0.0-138.0","null","","<div class=""stimulus-container""><img src=""images/causal_sequence/coin_causal/coin_causal_5.png"" class=""exp-image""></div>","null","","","","","","","","","","","",""
"","","","","","html-button-response","139","843208","0.0-139.0","11339","","<div class=""stimulus-container""><img src=""images/causal_sequence/coin_causal/coin_causal_5.png"" class=""exp-image""><div class=""question-area""><b>Is there a person?</b></div></div>","0","person_check","coin_causal","5","","","","","","","","",""
"","","","","","html-keyboard-response","140","847217","0.0-140.0","null","","<div class=""stimulus-container""><img src=""images/causal_sequence/coin_causal/coin_causal_6.png"" class=""exp-image""></div>","null","","","","","","","","","","","",""
"","","","","","html-button-response","141","848596","0.0-141.0","1377","","<div class=""stimulus-container""><img src=""images/causal_sequence/coin_causal/coin_causal_6.png"" class=""exp-image""><div class=""question-area""><b>Is there a person?</b></div></div>","0","person_check","coin_causal","6","","","","","","","","",""
"","","","","","html-keyboard-response","142","852614","0.0-142.0","null","","<div class=""stimulus-container""><img src=""images/causal_sequence/coin_causal/coin_causal_7.png"" class=""exp-image""></div>","null","","","","","","","","","","","",""
"","","","","","html-button-response","143","857674","0.0-143.0","5058","","<div class=""stimulus-container""><img src=""images/causal_sequence/coin_causal/coin_causal_7.png"" class=""exp-image""><div class=""question-area""><b>Is there a person?</b></div></div>","1","person_check","coin_causal","7","","","","","","","","",""
"","","","","","html-keyboard-response","144","861679","0.0-144.0","null","","<div class=""stimulus-container""><img src=""images/causal_sequence/coin_causal/coin_causal_8.png"" class=""exp-image""></div>","null","","","","","","","","","","","",""
"","","","","","html-button-response","145","862988","0.0-145.0","1308","","<div class=""stimulus-container""><img src=""images/causal_sequence/coin_causal/coin_causal_8.png"" class=""exp-image""><div class=""question-area""><b>Is there a person?</b></div></div>","0","person_check","coin_causal","8","","","","","","","","",""
"","","","","","html-keyboard-response","146","867001","0.0-146.0","null","","<div class=""stimulus-container""><img src=""images/causal_sequence/coin_causal/coin_causal_9.png"" class=""exp-image""></div>","null","","","","","","","","","","","",""
"","","","","","html-button-response","147","869779","0.0-147.0","2775","","<div class=""stimulus-container""><img src=""images/causal_sequence/coin_causal/coin_causal_9.png"" class=""exp-image""><div class=""question-area""><b>Is there a person?</b></div></div>","0","person_check","coin_causal","9","","","","","","","","",""
"","","","","","html-keyboard-response","148","873880","0.0-148.0","null","","<div class=""stimulus-container""><img src=""images/causal_sequence/coin_causal/coin_causal_ten.png"" class=""exp-image""></div>","null","","","","","","","","","","","",""
"","","","","","html-button-response","149","888049","0.0-149.0","14168","","<div class=""stimulus-container""><img src=""images/causal_sequence/coin_causal/coin_causal_ten.png"" class=""exp-image""><div class=""question-area""><b>Is there a person?</b></div></div>","0","person_check","coin_causal","10","","","","","","","","",""
"","","","","","html-keyboard-response","150","891055","0.0-150.0","null","","<div style=""background-color: white; width: 100vw; height: 100vh;""></div>","null","","","","","","","","","","","",""
"","","","","","html-keyboard-response","151","895069","0.0-151.0","null","","<div class=""stimulus-container""><img src=""images/semantic_sequence/visiting_cities_semantic/visiting_cities_semantic_1.png"" class=""exp-image""></div>","null","","","","","","","","","","","",""
"","","","","","html-button-response","152","897741","0.0-152.0","2672","","<div class=""stimulus-container""><img src=""images/semantic_sequence/visiting_cities_semantic/visiting_cities_semantic_1.png"" class=""exp-image""><div class=""question-area""><b>Is there a person?</b></div></div>","0","person_check","visiting_cities_semantic","1","","","","","","","","",""
"","","","","","html-keyboard-response","153","901749","0.0-153.0","null","","<div class=""stimulus-container""><img src=""images/semantic_sequence/visiting_cities_semantic/visiting_cities_semantic_2.png"" class=""exp-image""></div>","null","","","","","","","","","","","",""
"","","","","","html-button-response","154","912045","0.0-154.0","10294","","<div class=""stimulus-container""><img src=""images/semantic_sequence/visiting_cities_semantic/visiting_cities_semantic_2.png"" class=""exp-image""><div class=""question-area""><b>Is there a person?</b></div></div>","1","person_check","visiting_cities_semantic","2","","","","","","","","",""
"","","","","","html-keyboard-response","155","916047","0.0-155.0","null","","<div class=""stimulus-container""><img src=""images/semantic_sequence/visiting_cities_semantic/visiting_cities_semantic_3.png"" class=""exp-image""></div>","null","","","","","","","","","","","",""
"","","","","","html-button-response","156","916963","0.0-156.0","915","","<div class=""stimulus-container""><img src=""images/semantic_sequence/visiting_cities_semantic/visiting_cities_semantic_3.png"" class=""exp-image""><div class=""question-area""><b>Is there a person?</b></div></div>","1","person_check","visiting_cities_semantic","3","","","","","","","","",""
"","","","","","html-keyboard-response","157","920969","0.0-157.0","null","","<div class=""stimulus-container""><img src=""images/semantic_sequence/visiting_cities_semantic/visiting_cities_semantic_4.png"" class=""exp-image""></div>","null","","","","","","","","","","","",""
"","","","","","html-button-response","158","921634","0.0-158.0","662","","<div class=""stimulus-container""><img src=""images/semantic_sequence/visiting_cities_semantic/visiting_cities_semantic_4.png"" class=""exp-image""><div class=""question-area""><b>Is there a person?</b></div></div>","1","person_check","visiting_cities_semantic","4","","","","","","","","",""
"","","","","","html-keyboard-response","159","925653","0.0-159.0","null","","<div class=""stimulus-container""><img src=""images/semantic_sequence/visiting_cities_semantic/visiting_cities_semantic_5.png"" class=""exp-image""></div>","null","","","","","","","","","","","",""
"","","","","","html-button-response","160","927731","0.0-160.0","2076","","<div class=""stimulus-container""><img src=""images/semantic_sequence/visiting_cities_semantic/visiting_cities_semantic_5.png"" class=""exp-image""><div class=""question-area""><b>Is there a person?</b></div></div>","1","person_check","visiting_cities_semantic","5","","","","","","","","",""
"","","","","","html-keyboard-response","161","931736","0.0-161.0","null","","<div class=""stimulus-container""><img src=""images/semantic_sequence/visiting_cities_semantic/visiting_cities_semantic_6.png"" class=""exp-image""></div>","null","","","","","","","","","","","",""
"","","","","","html-button-response","162","1032242","0.0-162.0","100502","","<div class=""stimulus-container""><img src=""images/semantic_sequence/visiting_cities_semantic/visiting_cities_semantic_6.png"" class=""exp-image""><div class=""question-area""><b>Is there a person?</b></div></div>","1","person_check","visiting_cities_semantic","6","","","","","","","","",""
"","","","","","html-keyboard-response","163","1036875","0.0-163.0","null","","<div class=""stimulus-container""><img src=""images/semantic_sequence/visiting_cities_semantic/visiting_cities_semantic_7.png"" class=""exp-image""></div>","null","","","","","","","","","","","",""
"","","","","","html-button-response","164","1046573","0.0-164.0","9697","","<div class=""stimulus-container""><img src=""images/semantic_sequence/visiting_cities_semantic/visiting_cities_semantic_7.png"" class=""exp-image""><div class=""question-area""><b>Is there a person?</b></div></div>","1","person_check","visiting_cities_semantic","7","","","","","","","","",""
"","","","","","html-keyboard-response","165","1050870","0.0-165.0","null","","<div class=""stimulus-container""><img src=""images/semantic_sequence/visiting_cities_semantic/visiting_cities_semantic_8.png"" class=""exp-image""></div>","null","","","","","","","","","","","",""
"","","","","","html-button-response","166","1061214","0.0-166.0","10342","","<div class=""stimulus-container""><img src=""images/semantic_sequence/visiting_cities_semantic/visiting_cities_semantic_8.png"" class=""exp-image""><div class=""question-area""><b>Is there a person?</b></div></div>","1","person_check","visiting_cities_semantic","8","","","","","","","","",""
"","","","","","html-keyboard-response","167","1065865","0.0-167.0","null","","<div class=""stimulus-container""><img src=""images/semantic_sequence/visiting_cities_semantic/visiting_cities_semantic_9.png"" class=""exp-image""></div>","null","","","","","","","","","","","",""
"","","","","","html-button-response","168","1174900","0.0-168.0","109034","","<div class=""stimulus-container""><img src=""images/semantic_sequence/visiting_cities_semantic/visiting_cities_semantic_9.png"" class=""exp-image""><div class=""question-area""><b>Is there a person?</b></div></div>","1","person_check","visiting_cities_semantic","9","","","","","","","","",""
"","","","","","html-keyboard-response","169","1179880","0.0-169.0","null","","<div class=""stimulus-container""><img src=""images/semantic_sequence/visiting_cities_semantic/visiting_cities_semantic_ten.png"" class=""exp-image""></div>","null","","","","","","","","","","","",""
"","","","","","html-button-response","170","1234739","0.0-170.0","54855","","<div class=""stimulus-container""><img src=""images/semantic_sequence/visiting_cities_semantic/visiting_cities_semantic_ten.png"" class=""exp-image""><div class=""question-area""><b>Is there a person?</b></div></div>","1","person_check","visiting_cities_semantic","10","","","","","","","","",""
"","","","","","html-keyboard-response","171","1237877","0.0-171.0","null","","<div style=""background-color: white; width: 100vw; height: 100vh;""></div>","null","","","","","","","","","","","",""
"","","","","","html-keyboard-response","172","1242874","0.0-172.0","null","","<div class=""stimulus-container""><img src=""images/semantic_sequence/self_care_activities_semantic/self_care_activities_semantic_1.png"" class=""exp-image""></div>","null","","","","","","","","","","","",""
"","","","","","html-button-response","173","1301100","0.0-173.0","58223","","<div class=""stimulus-container""><img src=""images/semantic_sequence/self_care_activities_semantic/self_care_activities_semantic_1.png"" class=""exp-image""><div class=""question-area""><b>Is there a person?</b></div></div>","0","person_check","self_care_activities_semantic","1","","","","","","","","",""
"","","","","","html-keyboard-response","174","1305885","0.0-174.0","null","","<div class=""stimulus-container""><img src=""images/semantic_sequence/self_care_activities_semantic/self_care_activities_semantic_2.png"" class=""exp-image""></div>","null","","","","","","","","","","","",""
"","","","","","html-button-response","175","1324864","0.0-175.0","18977","","<div class=""stimulus-container""><img src=""images/semantic_sequence/self_care_activities_semantic/self_care_activities_semantic_2.png"" class=""exp-image""><div class=""question-area""><b>Is there a person?</b></div></div>","0","person_check","self_care_activities_semantic","2","","","","","","","","",""
"","","","","","html-keyboard-response","176","1328879","0.0-176.0","null","","<div class=""stimulus-container""><img src=""images/semantic_sequence/self_care_activities_semantic/self_care_activities_semantic_3.png"" class=""exp-image""></div>","null","","","","","","","","","","","",""
"","","","","","html-button-response","177","1788051","0.0-177.0","459169","","<div class=""stimulus-container""><img src=""images/semantic_sequence/self_care_activities_semantic/self_care_activities_semantic_3.png"" class=""exp-image""><div class=""question-area""><b>Is there a person?</b></div></div>","0","person_check","self_care_activities_semantic","3","","","","","","","","",""
"","","","","","html-keyboard-response","178","1792056","0.0-178.0","null","","<div class=""stimulus-container""><img src=""images/semantic_sequence/self_care_activities_semantic/self_care_activities_semantic_4.png"" class=""exp-image""></div>","null","","","","","","","","","","","",""
"","","","","","html-button-response","179","1793787","0.0-179.0","1729","","<div class=""stimulus-container""><img src=""images/semantic_sequence/self_care_activities_semantic/self_care_activities_semantic_4.png"" class=""exp-image""><div class=""question-area""><b>Is there a person?</b></div></div>","0","person_check","self_care_activities_semantic","4","","","","","","","","",""
"","","","","","html-keyboard-response","180","1797794","0.0-180.0","null","","<div class=""stimulus-container""><img src=""images/semantic_sequence/self_care_activities_semantic/self_care_activities_semantic_5.png"" class=""exp-image""></div>","null","","","","","","","","","","","",""
"","","","","","html-button-response","181","1798528","0.0-181.0","731","","<div class=""stimulus-container""><img src=""images/semantic_sequence/self_care_activities_semantic/self_care_activities_semantic_5.png"" class=""exp-image""><div class=""question-area""><b>Is there a person?</b></div></div>","0","person_check","self_care_activities_semantic","5","","","","","","","","",""
"","","","","","html-keyboard-response","182","1802544","0.0-182.0","null","","<div class=""stimulus-container""><img src=""images/semantic_sequence/self_care_activities_semantic/self_care_activities_semantic_6.png"" class=""exp-image""></div>","null","","","","","","","","","","","",""
"","","","","","html-button-response","183","1803264","0.0-183.0","719","","<div class=""stimulus-container""><img src=""images/semantic_sequence/self_care_activities_semantic/self_care_activities_semantic_6.png"" class=""exp-image""><div class=""question-area""><b>Is there a person?</b></div></div>","1","person_check","self_care_activities_semantic","6","","","","","","","","",""
"","","","","","html-keyboard-response","184","1807282","0.0-184.0","null","","<div class=""stimulus-container""><img src=""images/semantic_sequence/self_care_activities_semantic/self_care_activities_semantic_7.png"" class=""exp-image""></div>","null","","","","","","","","","","","",""
"","","","","","html-button-response","185","1808643","0.0-185.0","1358","","<div class=""stimulus-container""><img src=""images/semantic_sequence/self_care_activities_semantic/self_care_activities_semantic_7.png"" class=""exp-image""><div class=""question-area""><b>Is there a person?</b></div></div>","0","person_check","self_care_activities_semantic","7","","","","","","","","",""
"","","","","","html-keyboard-response","186","1812650","0.0-186.0","null","","<div class=""stimulus-container""><img src=""images/semantic_sequence/self_care_activities_semantic/self_care_activities_semantic_8.png"" class=""exp-image""></div>","null","","","","","","","","","","","",""
"","","","","","html-button-response","187","1814631","0.0-187.0","1978","","<div class=""stimulus-container""><img src=""images/semantic_sequence/self_care_activities_semantic/self_care_activities_semantic_8.png"" class=""exp-image""><div class=""question-area""><b>Is there a person?</b></div></div>","0","person_check","self_care_activities_semantic","8","","","","","","","","",""
"","","","","","html-keyboard-response","188","1818647","0.0-188.0","null","","<div class=""stimulus-container""><img src=""images/semantic_sequence/self_care_activities_semantic/self_care_activities_semantic_9.png"" class=""exp-image""></div>","null","","","","","","","","","","","",""
"","","","","","html-button-response","189","1819333","0.0-189.0","685","","<div class=""stimulus-container""><img src=""images/semantic_sequence/self_care_activities_semantic/self_care_activities_semantic_9.png"" class=""exp-image""><div class=""question-area""><b>Is there a person?</b></div></div>","0","person_check","self_care_activities_semantic","9","","","","","","","","",""
"","","","","","html-keyboard-response","190","1823336","0.0-190.0","null","","<div class=""stimulus-container""><img src=""images/semantic_sequence/self_care_activities_semantic/self_care_activities_semantic_ten.png"" class=""exp-image""></div>","null","","","","","","","","","","","",""
"","","","","","html-button-response","191","1829733","0.0-191.0","6396","","<div class=""stimulus-container""><img src=""images/semantic_sequence/self_care_activities_semantic/self_care_activities_semantic_ten.png"" class=""exp-image""><div class=""question-area""><b>Is there a person?</b></div></div>","0","person_check","self_care_activities_semantic","10","","","","","","","","",""
"","","","","","html-keyboard-response","192","1832741","0.0-192.0","null","","<div style=""background-color: white; width: 100vw; height: 100vh;""></div>","null","","","","","","","","","","","",""
"","","","","","html-keyboard-response","193","1836742","0.0-193.0","null","","<div class=""stimulus-container""><img src=""images/causal_sequence/package_causal/package_causal_1.png"" class=""exp-image""></div>","null","","","","","","","","","","","",""
"","","","","","html-button-response","194","1837355","0.0-194.0","612","","<div class=""stimulus-container""><img src=""images/causal_sequence/package_causal/package_causal_1.png"" class=""exp-image""><div class=""question-area""><b>Is there a person?</b></div></div>","0","person_check","package_causal","1","","","","","","","","",""
"","","","","","html-keyboard-response","195","1841877","0.0-195.0","null","","<div class=""stimulus-container""><img src=""images/causal_sequence/package_causal/package_causal_2.png"" class=""exp-image""></div>","null","","","","","","","","","","","",""
"","","","","","html-button-response","196","1847983","0.0-196.0","6103","","<div class=""stimulus-container""><img src=""images/causal_sequence/package_causal/package_causal_2.png"" class=""exp-image""><div class=""question-area""><b>Is there a person?</b></div></div>","0","person_check","package_causal","2","","","","","","","","",""
"","","","","","html-keyboard-response","197","1852873","0.0-197.0","null","","<div class=""stimulus-container""><img src=""images/causal_sequence/package_causal/package_causal_3.png"" class=""exp-image""></div>","null","","","","","","","","","","","",""
"","","","","","html-button-response","198","1855069","0.0-198.0","2194","","<div class=""stimulus-container""><img src=""images/causal_sequence/package_causal/package_causal_3.png"" class=""exp-image""><div class=""question-area""><b>Is there a person?</b></div></div>","0","person_check","package_causal","3","","","","","","","","",""
"","","","","","html-keyboard-response","199","1859877","0.0-199.0","null","","<div class=""stimulus-container""><img src=""images/causal_sequence/package_causal/package_causal_4.png"" class=""exp-image""></div>","null","","","","","","","","","","","",""
"","","","","","html-button-response","200","1864306","0.0-200.0","4428","","<div class=""stimulus-container""><img src=""images/causal_sequence/package_causal/package_causal_4.png"" class=""exp-image""><div class=""question-area""><b>Is there a person?</b></div></div>","1","person_check","package_causal","4","","","","","","","","",""
"","","","","","html-keyboard-response","201","1868321","0.0-201.0","null","","<div class=""stimulus-container""><img src=""images/causal_sequence/package_causal/package_causal_5.png"" class=""exp-image""></div>","null","","","","","","","","","","","",""
"","","","","","html-button-response","202","1869042","0.0-202.0","718","","<div class=""stimulus-container""><img src=""images/causal_sequence/package_causal/package_causal_5.png"" class=""exp-image""><div class=""question-area""><b>Is there a person?</b></div></div>","0","person_check","package_causal","5","","","","","","","","",""
"","","","","","html-keyboard-response","203","1873055","0.0-203.0","null","","<div class=""stimulus-container""><img src=""images/causal_sequence/package_causal/package_causal_6.png"" class=""exp-image""></div>","null","","","","","","","","","","","",""
"","","","","","html-button-response","204","1874225","0.0-204.0","1170","","<div class=""stimulus-container""><img src=""images/causal_sequence/package_causal/package_causal_6.png"" class=""exp-image""><div class=""question-area""><b>Is there a person?</b></div></div>","0","person_check","package_causal","6","","","","","","","","",""
"","","","","","html-keyboard-response","205","1878228","0.0-205.0","null","","<div class=""stimulus-container""><img src=""images/causal_sequence/package_causal/package_causal_7.png"" class=""exp-image""></div>","null","","","","","","","","","","","",""
"","","","","","html-button-response","206","1879166","0.0-206.0","937","","<div class=""stimulus-container""><img src=""images/causal_sequence/package_causal/package_causal_7.png"" class=""exp-image""><div class=""question-area""><b>Is there a person?</b></div></div>","0","person_check","package_causal","7","","","","","","","","",""
"","","","","","html-keyboard-response","207","1883168","0.0-207.0","null","","<div class=""stimulus-container""><img src=""images/causal_sequence/package_causal/package_causal_8.png"" class=""exp-image""></div>","null","","","","","","","","","","","",""
"","","","","","html-button-response","208","1895961","0.0-208.0","12792","","<div class=""stimulus-container""><img src=""images/causal_sequence/package_causal/package_causal_8.png"" class=""exp-image""><div class=""question-area""><b>Is there a person?</b></div></div>","0","person_check","package_causal","8","","","","","","","","",""
"","","","","","html-keyboard-response","209","1899963","0.0-209.0","null","","<div class=""stimulus-container""><img src=""images/causal_sequence/package_causal/package_causal_9.png"" class=""exp-image""></div>","null","","","","","","","","","","","",""
"","","","","","html-button-response","210","1906747","0.0-210.0","6784","","<div class=""stimulus-container""><img src=""images/causal_sequence/package_causal/package_causal_9.png"" class=""exp-image""><div class=""question-area""><b>Is there a person?</b></div></div>","0","person_check","package_causal","9","","","","","","","","",""
"","","","","","html-keyboard-response","211","1910752","0.0-211.0","null","","<div class=""stimulus-container""><img src=""images/causal_sequence/package_causal/package_causal_ten.png"" class=""exp-image""></div>","null","","","","","","","","","","","",""
"","","","","","html-button-response","212","1911394","0.0-212.0","640","","<div class=""stimulus-container""><img src=""images/causal_sequence/package_causal/package_causal_ten.png"" class=""exp-image""><div class=""question-area""><b>Is there a person?</b></div></div>","0","person_check","package_causal","10","","","","","","","","",""
"","","","","","html-keyboard-response","213","1914399","0.0-213.0","null","","<div style=""background-color: white; width: 100vw; height: 100vh;""></div>","null","","","","","","","","","","","",""
"","","","","","html-keyboard-response","214","1918405","0.0-214.0","null","","<div class=""stimulus-container""><img src=""images/schematic_sequence/flight_scheme/flight_scheme_1.png"" class=""exp-image""></div>","null","","","","","","","","","","","",""
"","","","","","html-button-response","215","1920277","0.0-215.0","1869","","<div class=""stimulus-container""><img src=""images/schematic_sequence/flight_scheme/flight_scheme_1.png"" class=""exp-image""><div class=""question-area""><b>Is there a person?</b></div></div>","1","person_check","flight_scheme","1","","","","","","","","",""
"","","","","","html-keyboard-response","216","1924279","0.0-216.0","null","","<div class=""stimulus-container""><img src=""images/schematic_sequence/flight_scheme/flight_scheme_2.png"" class=""exp-image""></div>","null","","","","","","","","","","","",""
"","","","","","html-button-response","217","1925114","0.0-217.0","833","","<div class=""stimulus-container""><img src=""images/schematic_sequence/flight_scheme/flight_scheme_2.png"" class=""exp-image""><div class=""question-area""><b>Is there a person?</b></div></div>","1","person_check","flight_scheme","2","","","","","","","","",""
"","","","","","html-keyboard-response","218","1929121","0.0-218.0","null","","<div class=""stimulus-container""><img src=""images/schematic_sequence/flight_scheme/flight_scheme_3.png"" class=""exp-image""></div>","null","","","","","","","","","","","",""
"","","","","","html-button-response","219","1986759","0.0-219.0","57635","","<div class=""stimulus-container""><img src=""images/schematic_sequence/flight_scheme/flight_scheme_3.png"" class=""exp-image""><div class=""question-area""><b>Is there a person?</b></div></div>","0","person_check","flight_scheme","3","","","","","","","","",""
"","","","","","html-keyboard-response","220","1990767","0.0-220.0","null","","<div class=""stimulus-container""><img src=""images/schematic_sequence/flight_scheme/flight_scheme_4.png"" class=""exp-image""></div>","null","","","","","","","","","","","",""
"","","","","","html-button-response","221","1995586","0.0-221.0","4817","","<div class=""stimulus-container""><img src=""images/schematic_sequence/flight_scheme/flight_scheme_4.png"" class=""exp-image""><div class=""question-area""><b>Is there a person?</b></div></div>","0","person_check","flight_scheme","4","","","","","","","","",""
"","","","","","html-keyboard-response","222","1999594","0.0-222.0","null","","<div class=""stimulus-container""><img src=""images/schematic_sequence/flight_scheme/flight_scheme_5.png"" class=""exp-image""></div>","null","","","","","","","","","","","",""
"","","","","","html-button-response","223","2000174","0.0-223.0","578","","<div class=""stimulus-container""><img src=""images/schematic_sequence/flight_scheme/flight_scheme_5.png"" class=""exp-image""><div class=""question-area""><b>Is there a person?</b></div></div>","0","person_check","flight_scheme","5","","","","","","","","",""
"","","","","","html-keyboard-response","224","2004872","0.0-224.0","null","","<div class=""stimulus-container""><img src=""images/schematic_sequence/flight_scheme/flight_scheme_6.png"" class=""exp-image""></div>","null","","","","","","","","","","","",""
"","","","","","html-button-response","225","2066224","0.0-225.0","61351","","<div class=""stimulus-container""><img src=""images/schematic_sequence/flight_scheme/flight_scheme_6.png"" class=""exp-image""><div class=""question-area""><b>Is there a person?</b></div></div>","1","person_check","flight_scheme","6","","","","","","","","",""
"","","","","","html-keyboard-response","226","2070240","0.0-226.0","null","","<div class=""stimulus-container""><img src=""images/schematic_sequence/flight_scheme/flight_scheme_7.png"" class=""exp-image""></div>","null","","","","","","","","","","","",""
"","","","","","html-button-response","227","2078902","0.0-227.0","8661","","<div class=""stimulus-container""><img src=""images/schematic_sequence/flight_scheme/flight_scheme_7.png"" class=""exp-image""><div class=""question-area""><b>Is there a person?</b></div></div>","1","person_check","flight_scheme","7","","","","","","","","",""
"","","","","","html-keyboard-response","228","2083874","0.0-228.0","null","","<div class=""stimulus-container""><img src=""images/schematic_sequence/flight_scheme/flight_scheme_8.png"" class=""exp-image""></div>","null","","","","","","","","","","","",""
"","","","","","html-button-response","229","2087276","0.0-229.0","3400","","<div class=""stimulus-container""><img src=""images/schematic_sequence/flight_scheme/flight_scheme_8.png"" class=""exp-image""><div class=""question-area""><b>Is there a person?</b></div></div>","1","person_check","flight_scheme","8","","","","","","","","",""
"","","","","","html-keyboard-response","230","2091286","0.0-230.0","null","","<div class=""stimulus-container""><img src=""images/schematic_sequence/flight_scheme/flight_scheme_9.png"" class=""exp-image""></div>","null","","","","","","","","","","","",""
"","","","","","html-button-response","231","2093176","0.0-231.0","1888","","<div class=""stimulus-container""><img src=""images/schematic_sequence/flight_scheme/flight_scheme_9.png"" class=""exp-image""><div class=""question-area""><b>Is there a person?</b></div></div>","0","person_check","flight_scheme","9","","","","","","","","",""
"","","","","","html-keyboard-response","232","2097181","0.0-232.0","null","","<div class=""stimulus-container""><img src=""images/schematic_sequence/flight_scheme/flight_scheme_ten.png"" class=""exp-image""></div>","null","","","","","","","","","","","",""
"","","","","","html-button-response","233","2098043","0.0-233.0","861","","<div class=""stimulus-container""><img src=""images/schematic_sequence/flight_scheme/flight_scheme_ten.png"" class=""exp-image""><div class=""question-area""><b>Is there a person?</b></div></div>","0","person_check","flight_scheme","10","","","","","","","","",""
"","","","","","html-keyboard-response","234","2101050","0.0-234.0","null","","<div style=""background-color: white; width: 100vw; height: 100vh;""></div>","null","","","","","","","","","","","",""
"","","","","","html-keyboard-response","235","2105057","0.0-235.0","null","","<div class=""stimulus-container""><img src=""images/semantic_sequence/maintaining_a_car_semantic/maintaining_a_car_semantic_1.png"" class=""exp-image""></div>","null","","","","","","","","","","","",""
"","","","","","html-button-response","236","2105730","0.0-236.0","670","","<div class=""stimulus-container""><img src=""images/semantic_sequence/maintaining_a_car_semantic/maintaining_a_car_semantic_1.png"" class=""exp-image""><div class=""question-area""><b>Is there a person?</b></div></div>","0","person_check","maintaining_a_car_semantic","1","","","","","","","","",""
"","","","","","html-keyboard-response","237","2109731","0.0-237.0","null","","<div class=""stimulus-container""><img src=""images/semantic_sequence/maintaining_a_car_semantic/maintaining_a_car_semantic_2.png"" class=""exp-image""></div>","null","","","","","","","","","","","",""
"","","","","","html-button-response","238","2110541","0.0-238.0","809","","<div class=""stimulus-container""><img src=""images/semantic_sequence/maintaining_a_car_semantic/maintaining_a_car_semantic_2.png"" class=""exp-image""><div class=""question-area""><b>Is there a person?</b></div></div>","0","person_check","maintaining_a_car_semantic","2","","","","","","","","",""
"","","","","","html-keyboard-response","239","2114552","0.0-239.0","null","","<div class=""stimulus-container""><img src=""images/semantic_sequence/maintaining_a_car_semantic/maintaining_a_car_semantic_3.png"" class=""exp-image""></div>","null","","","","","","","","","","","",""
"","","","","","html-button-response","240","2115129","0.0-240.0","576","","<div class=""stimulus-container""><img src=""images/semantic_sequence/maintaining_a_car_semantic/maintaining_a_car_semantic_3.png"" class=""exp-image""><div class=""question-area""><b>Is there a person?</b></div></div>","0","person_check","maintaining_a_car_semantic","3","","","","","","","","",""
"","","","","","html-keyboard-response","241","2119139","0.0-241.0","null","","<div class=""stimulus-container""><img src=""images/semantic_sequence/maintaining_a_car_semantic/maintaining_a_car_semantic_4.png"" class=""exp-image""></div>","null","","","","","","","","","","","",""
"","","","","","html-button-response","242","2120063","0.0-242.0","921","","<div class=""stimulus-container""><img src=""images/semantic_sequence/maintaining_a_car_semantic/maintaining_a_car_semantic_4.png"" class=""exp-image""><div class=""question-area""><b>Is there a person?</b></div></div>","0","person_check","maintaining_a_car_semantic","4","","","","","","","","",""
"","","","","","html-keyboard-response","243","2124078","0.0-243.0","null","","<div class=""stimulus-container""><img src=""images/semantic_sequence/maintaining_a_car_semantic/maintaining_a_car_semantic_5.png"" class=""exp-image""></div>","null","","","","","","","","","","","",""
"","","","","","html-button-response","244","2125124","0.0-244.0","1045","","<div class=""stimulus-container""><img src=""images/semantic_sequence/maintaining_a_car_semantic/maintaining_a_car_semantic_5.png"" class=""exp-image""><div class=""question-area""><b>Is there a person?</b></div></div>","0","person_check","maintaining_a_car_semantic","5","","","","","","","","",""
"","","","","","html-keyboard-response","245","2129139","0.0-245.0","null","","<div class=""stimulus-container""><img src=""images/semantic_sequence/maintaining_a_car_semantic/maintaining_a_car_semantic_6.png"" class=""exp-image""></div>","null","","","","","","","","","","","",""
"","","","","","html-button-response","246","2130917","0.0-246.0","1776","","<div class=""stimulus-container""><img src=""images/semantic_sequence/maintaining_a_car_semantic/maintaining_a_car_semantic_6.png"" class=""exp-image""><div class=""question-area""><b>Is there a person?</b></div></div>","0","person_check","maintaining_a_car_semantic","6","","","","","","","","",""
"","","","","","html-keyboard-response","247","2134923","0.0-247.0","null","","<div class=""stimulus-container""><img src=""images/semantic_sequence/maintaining_a_car_semantic/maintaining_a_car_semantic_7.png"" class=""exp-image""></div>","null","","","","","","","","","","","",""
"","","","","","html-button-response","248","2135832","0.0-248.0","907","","<div class=""stimulus-container""><img src=""images/semantic_sequence/maintaining_a_car_semantic/maintaining_a_car_semantic_7.png"" class=""exp-image""><div class=""question-area""><b>Is there a person?</b></div></div>","0","person_check","maintaining_a_car_semantic","7","","","","","","","","",""
"","","","","","html-keyboard-response","249","2139836","0.0-249.0","null","","<div class=""stimulus-container""><img src=""images/semantic_sequence/maintaining_a_car_semantic/maintaining_a_car_semantic_8.png"" class=""exp-image""></div>","null","","","","","","","","","","","",""
"","","","","","html-button-response","250","2141402","0.0-250.0","1565","","<div class=""stimulus-container""><img src=""images/semantic_sequence/maintaining_a_car_semantic/maintaining_a_car_semantic_8.png"" class=""exp-image""><div class=""question-area""><b>Is there a person?</b></div></div>","0","person_check","maintaining_a_car_semantic","8","","","","","","","","",""
"","","","","","html-keyboard-response","251","2145683","0.0-251.0","null","","<div class=""stimulus-container""><img src=""images/semantic_sequence/maintaining_a_car_semantic/maintaining_a_car_semantic_9.png"" class=""exp-image""></div>","null","","","","","","","","","","","",""
"","","","","","html-button-response","252","2147304","0.0-252.0","1619","","<div class=""stimulus-container""><img src=""images/semantic_sequence/maintaining_a_car_semantic/maintaining_a_car_semantic_9.png"" class=""exp-image""><div class=""question-area""><b>Is there a person?</b></div></div>","0","person_check","maintaining_a_car_semantic","9","","","","","","","","",""
"","","","","","html-keyboard-response","253","2151308","0.0-253.0","null","","<div class=""stimulus-container""><img src=""images/semantic_sequence/maintaining_a_car_semantic/maintaining_a_car_semantic_ten.png"" class=""exp-image""></div>","null","","","","","","","","","","","",""
"","","","","","html-button-response","254","2151966","0.0-254.0","656","","<div class=""stimulus-container""><img src=""images/semantic_sequence/maintaining_a_car_semantic/maintaining_a_car_semantic_ten.png"" class=""exp-image""><div class=""question-area""><b>Is there a person?</b></div></div>","0","person_check","maintaining_a_car_semantic","10","","","","","","","","",""
"","","","","","html-keyboard-response","255","2154978","0.0-255.0","null","","<div style=""background-color: white; width: 100vw; height: 100vh;""></div>","null","","","","","","","","","","","",""
"","","","","","html-keyboard-response","256","2158987","0.0-256.0","null","","<div class=""stimulus-container""><img src=""images/causal_sequence/museum_causal/museum_causal_1.png"" class=""exp-image""></div>","null","","","","","","","","","","","",""
"","","","","","html-button-response","257","2159988","0.0-257.0","998","","<div class=""stimulus-container""><img src=""images/causal_sequence/museum_causal/museum_causal_1.png"" class=""exp-image""><div class=""question-area""><b>Is there a person?</b></div></div>","0","person_check","museum_causal","1","","","","","","","","",""
"","","","","","html-keyboard-response","258","2163992","0.0-258.0","null","","<div class=""stimulus-container""><img src=""images/causal_sequence/museum_causal/museum_causal_2.png"" class=""exp-image""></div>","null","","","","","","","","","","","",""
"","","","","","html-button-response","259","2167215","0.0-259.0","3222","","<div class=""stimulus-container""><img src=""images/causal_sequence/museum_causal/museum_causal_2.png"" class=""exp-image""><div class=""question-area""><b>Is there a person?</b></div></div>","0","person_check","museum_causal","2","","","","","","","","",""
"","","","","","html-keyboard-response","260","2171226","0.0-260.0","null","","<div class=""stimulus-container""><img src=""images/causal_sequence/museum_causal/museum_causal_3.png"" class=""exp-image""></div>","null","","","","","","","","","","","",""
"","","","","","html-button-response","261","2172058","0.0-261.0","830","","<div class=""stimulus-container""><img src=""images/causal_sequence/museum_causal/museum_causal_3.png"" class=""exp-image""><div class=""question-area""><b>Is there a person?</b></div></div>","0","person_check","museum_causal","3","","","","","","","","",""
"","","","","","html-keyboard-response","262","2176072","0.0-262.0","null","","<div class=""stimulus-container""><img src=""images/causal_sequence/museum_causal/museum_causal_4.png"" class=""exp-image""></div>","null","","","","","","","","","","","",""
"","","","","","html-button-response","263","2176913","0.0-263.0","839","","<div class=""stimulus-container""><img src=""images/causal_sequence/museum_causal/museum_causal_4.png"" class=""exp-image""><div class=""question-area""><b>Is there a person?</b></div></div>","1","person_check","museum_causal","4","","","","","","","","",""
"","","","","","html-keyboard-response","264","2181882","0.0-264.0","null","","<div class=""stimulus-container""><img src=""images/causal_sequence/museum_causal/museum_causal_5.png"" class=""exp-image""></div>","null","","","","","","","","","","","",""
"","","","","","html-button-response","265","2239246","0.0-265.0","57361","","<div class=""stimulus-container""><img src=""images/causal_sequence/museum_causal/museum_causal_5.png"" class=""exp-image""><div class=""question-area""><b>Is there a person?</b></div></div>","0","person_check","museum_causal","5","","","","","","","","",""
"","","","","","html-keyboard-response","266","2243251","0.0-266.0","null","","<div class=""stimulus-container""><img src=""images/causal_sequence/museum_causal/museum_causal_6.png"" class=""exp-image""></div>","null","","","","","","","","","","","",""
"","","","","","html-button-response","267","2244361","0.0-267.0","1109","","<div class=""stimulus-container""><img src=""images/causal_sequence/museum_causal/museum_causal_6.png"" class=""exp-image""><div class=""question-area""><b>Is there a person?</b></div></div>","0","person_check","museum_causal","6","","","","","","","","",""
"","","","","","html-keyboard-response","268","2248369","0.0-268.0","null","","<div class=""stimulus-container""><img src=""images/causal_sequence/museum_causal/museum_causal_7.png"" class=""exp-image""></div>","null","","","","","","","","","","","",""
"","","","","","html-button-response","269","2249447","0.0-269.0","1077","","<div class=""stimulus-container""><img src=""images/causal_sequence/museum_causal/museum_causal_7.png"" class=""exp-image""><div class=""question-area""><b>Is there a person?</b></div></div>","0","person_check","museum_causal","7","","","","","","","","",""
"","","","","","html-keyboard-response","270","2253448","0.0-270.0","null","","<div class=""stimulus-container""><img src=""images/causal_sequence/museum_causal/museum_causal_8.png"" class=""exp-image""></div>","null","","","","","","","","","","","",""
"","","","","","html-button-response","271","2255551","0.0-271.0","2100","","<div class=""stimulus-container""><img src=""images/causal_sequence/museum_causal/museum_causal_8.png"" class=""exp-image""><div class=""question-area""><b>Is there a person?</b></div></div>","0","person_check","museum_causal","8","","","","","","","","",""
"","","","","","html-keyboard-response","272","2259568","0.0-272.0","null","","<div class=""stimulus-container""><img src=""images/causal_sequence/museum_causal/museum_causal_9.png"" class=""exp-image""></div>","null","","","","","","","","","","","",""
"","","","","","html-button-response","273","2266403","0.0-273.0","6834","","<div class=""stimulus-container""><img src=""images/causal_sequence/museum_causal/museum_causal_9.png"" class=""exp-image""><div class=""question-area""><b>Is there a person?</b></div></div>","1","person_check","museum_causal","9","","","","","","","","",""
"","","","","","html-keyboard-response","274","2270407","0.0-274.0","null","","<div class=""stimulus-container""><img src=""images/causal_sequence/museum_causal/museum_causal_ten.png"" class=""exp-image""></div>","null","","","","","","","","","","","",""
"","","","","","html-button-response","275","2271899","0.0-275.0","1491","","<div class=""stimulus-container""><img src=""images/causal_sequence/museum_causal/museum_causal_ten.png"" class=""exp-image""><div class=""question-area""><b>Is there a person?</b></div></div>","0","person_check","museum_causal","10","","","","","","","","",""
"","","","","","html-keyboard-response","276","2274906","0.0-276.0","null","","<div style=""background-color: white; width: 100vw; height: 100vh;""></div>","null","","","","","","","","","","","",""
"","","","","","html-keyboard-response","277","2278922","0.0-277.0","null","","<div class=""stimulus-container""><img src=""images/schematic_sequence/dinner_party_scheme/dinner_party_scheme_1.png"" class=""exp-image""></div>","null","","","","","","","","","","","",""
"","","","","","html-button-response","278","2287794","0.0-278.0","8871","","<div class=""stimulus-container""><img src=""images/schematic_sequence/dinner_party_scheme/dinner_party_scheme_1.png"" class=""exp-image""><div class=""question-area""><b>Is there a person?</b></div></div>","0","person_check","dinner_party_scheme","1","","","","","","","","",""
"","","","","","html-keyboard-response","279","2291796","0.0-279.0","null","","<div class=""stimulus-container""><img src=""images/schematic_sequence/dinner_party_scheme/dinner_party_scheme_2.png"" class=""exp-image""></div>","null","","","","","","","","","","","",""
"","","","","","html-button-response","280","2293951","0.0-280.0","2154","","<div class=""stimulus-container""><img src=""images/schematic_sequence/dinner_party_scheme/dinner_party_scheme_2.png"" class=""exp-image""><div class=""question-area""><b>Is there a person?</b></div></div>","1","person_check","dinner_party_scheme","2","","","","","","","","",""
"","","","","","html-keyboard-response","281","2297961","0.0-281.0","null","","<div class=""stimulus-container""><img src=""images/schematic_sequence/dinner_party_scheme/dinner_party_scheme_3.png"" class=""exp-image""></div>","null","","","","","","","","","","","",""
"","","","","","html-button-response","282","2298633","0.0-282.0","671","","<div class=""stimulus-container""><img src=""images/schematic_sequence/dinner_party_scheme/dinner_party_scheme_3.png"" class=""exp-image""><div class=""question-area""><b>Is there a person?</b></div></div>","0","person_check","dinner_party_scheme","3","","","","","","","","",""
"","","","","","html-keyboard-response","283","2302641","0.0-283.0","null","","<div class=""stimulus-container""><img src=""images/schematic_sequence/dinner_party_scheme/dinner_party_scheme_4.png"" class=""exp-image""></div>","null","","","","","","","","","","","",""
"","","","","","html-button-response","284","2303453","0.0-284.0","810","","<div class=""stimulus-container""><img src=""images/schematic_sequence/dinner_party_scheme/dinner_party_scheme_4.png"" class=""exp-image""><div class=""question-area""><b>Is there a person?</b></div></div>","0","person_check","dinner_party_scheme","4","","","","","","","","",""
"","","","","","html-keyboard-response","285","2307469","0.0-285.0","null","","<div class=""stimulus-container""><img src=""images/schematic_sequence/dinner_party_scheme/dinner_party_scheme_5.png"" class=""exp-image""></div>","null","","","","","","","","","","","",""
"","","","","","html-button-response","286","2308154","0.0-286.0","684","","<div class=""stimulus-container""><img src=""images/schematic_sequence/dinner_party_scheme/dinner_party_scheme_5.png"" class=""exp-image""><div class=""question-area""><b>Is there a person?</b></div></div>","0","person_check","dinner_party_scheme","5","","","","","","","","",""
"","","","","","html-keyboard-response","287","2312900","0.0-287.0","null","","<div class=""stimulus-container""><img src=""images/schematic_sequence/dinner_party_scheme/dinner_party_scheme_6.png"" class=""exp-image""></div>","null","","","","","","","","","","","",""
"","","","","","html-button-response","288","2320629","0.0-288.0","7727","","<div class=""stimulus-container""><img src=""images/schematic_sequence/dinner_party_scheme/dinner_party_scheme_6.png"" class=""exp-image""><div class=""question-area""><b>Is there a person?</b></div></div>","0","person_check","dinner_party_scheme","6","","","","","","","","",""
"","","","","","html-keyboard-response","289","2324879","0.0-289.0","null","","<div class=""stimulus-container""><img src=""images/schematic_sequence/dinner_party_scheme/dinner_party_scheme_7.png"" class=""exp-image""></div>","null","","","","","","","","","","","",""
"","","","","","html-button-response","290","2327977","0.0-290.0","3097","","<div class=""stimulus-container""><img src=""images/schematic_sequence/dinner_party_scheme/dinner_party_scheme_7.png"" class=""exp-image""><div class=""question-area""><b>Is there a person?</b></div></div>","0","person_check","dinner_party_scheme","7","","","","","","","","",""
"","","","","","html-keyboard-response","291","2331992","0.0-291.0","null","","<div class=""stimulus-container""><img src=""images/schematic_sequence/dinner_party_scheme/dinner_party_scheme_8.png"" class=""exp-image""></div>","null","","","","","","","","","","","",""
"","","","","","html-button-response","292","2332615","0.0-292.0","622","","<div class=""stimulus-container""><img src=""images/schematic_sequence/dinner_party_scheme/dinner_party_scheme_8.png"" class=""exp-image""><div class=""question-area""><b>Is there a person?</b></div></div>","0","person_check","dinner_party_scheme","8","","","","","","","","",""
"","","","","","html-keyboard-response","293","2336625","0.0-293.0","null","","<div class=""stimulus-container""><img src=""images/schematic_sequence/dinner_party_scheme/dinner_party_scheme_9.png"" class=""exp-image""></div>","null","","","","","","","","","","","",""
"","","","","","html-button-response","294","2337351","0.0-294.0","723","","<div class=""stimulus-container""><img src=""images/schematic_sequence/dinner_party_scheme/dinner_party_scheme_9.png"" class=""exp-image""><div class=""question-area""><b>Is there a person?</b></div></div>","0","person_check","dinner_party_scheme","9","","","","","","","","",""
"","","","","","html-keyboard-response","295","2341355","0.0-295.0","null","","<div class=""stimulus-container""><img src=""images/schematic_sequence/dinner_party_scheme/dinner_party_scheme_ten.png"" class=""exp-image""></div>","null","","","","","","","","","","","",""
"","","","","","html-button-response","296","2341983","0.0-296.0","627","","<div class=""stimulus-container""><img src=""images/schematic_sequence/dinner_party_scheme/dinner_party_scheme_ten.png"" class=""exp-image""><div class=""question-area""><b>Is there a person?</b></div></div>","0","person_check","dinner_party_scheme","10","","","","","","","","",""
"","","","","","html-keyboard-response","297","2344992","0.0-297.0","null","","<div style=""background-color: white; width: 100vw; height: 100vh;""></div>","null","","","","","","","","","","","",""
"","","","","","html-keyboard-response","298","2349000","0.0-298.0","null","","<div class=""stimulus-container""><img src=""images/causal_sequence/the_performance_causal/the_performance_causal_1.png"" class=""exp-image""></div>","null","","","","","","","","","","","",""
"","","","","","html-button-response","299","2349871","0.0-299.0","870","","<div class=""stimulus-container""><img src=""images/causal_sequence/the_performance_causal/the_performance_causal_1.png"" class=""exp-image""><div class=""question-area""><b>Is there a person?</b></div></div>","0","person_check","the_performance_causal","1","","","","","","","","",""
"","","","","","html-keyboard-response","300","2353880","0.0-300.0","null","","<div class=""stimulus-container""><img src=""images/causal_sequence/the_performance_causal/the_performance_causal_2.png"" class=""exp-image""></div>","null","","","","","","","","","","","",""
"","","","","","html-button-response","301","2355549","0.0-301.0","1668","","<div class=""stimulus-container""><img src=""images/causal_sequence/the_performance_causal/the_performance_causal_2.png"" class=""exp-image""><div class=""question-area""><b>Is there a person?</b></div></div>","0","person_check","the_performance_causal","2","","","","","","","","",""
"","","","","","html-keyboard-response","302","2359552","0.0-302.0","null","","<div class=""stimulus-container""><img src=""images/causal_sequence/the_performance_causal/the_performance_causal_3.png"" class=""exp-image""></div>","null","","","","","","","","","","","",""
"","","","","","html-button-response","303","2360505","0.0-303.0","952","","<div class=""stimulus-container""><img src=""images/causal_sequence/the_performance_causal/the_performance_causal_3.png"" class=""exp-image""><div class=""question-area""><b>Is there a person?</b></div></div>","0","person_check","the_performance_causal","3","","","","","","","","",""
"","","","","","html-keyboard-response","304","2364515","0.0-304.0","null","","<div class=""stimulus-container""><img src=""images/causal_sequence/the_performance_causal/the_performance_causal_4.png"" class=""exp-image""></div>","null","","","","","","","","","","","",""
"","","","","","html-button-response","305","2365791","0.0-305.0","1273","","<div class=""stimulus-container""><img src=""images/causal_sequence/the_performance_causal/the_performance_causal_4.png"" class=""exp-image""><div class=""question-area""><b>Is there a person?</b></div></div>","0","person_check","the_performance_causal","4","","","","","","","","",""
"","","","","","html-keyboard-response","306","2369795","0.0-306.0","null","","<div class=""stimulus-container""><img src=""images/causal_sequence/the_performance_causal/the_performance_causal_5.png"" class=""exp-image""></div>","null","","","","","","","","","","","",""
"","","","","","html-button-response","307","2371182","0.0-307.0","1385","","<div class=""stimulus-container""><img src=""images/causal_sequence/the_performance_causal/the_performance_causal_5.png"" class=""exp-image""><div class=""question-area""><b>Is there a person?</b></div></div>","0","person_check","the_performance_causal","5","","","","","","","","",""
"","","","","","html-keyboard-response","308","2375188","0.0-308.0","null","","<div class=""stimulus-container""><img src=""images/causal_sequence/the_performance_causal/the_performance_causal_6.png"" class=""exp-image""></div>","null","","","","","","","","","","","",""
"","","","","","html-button-response","309","2375800","0.0-309.0","612","","<div class=""stimulus-container""><img src=""images/causal_sequence/the_performance_causal/the_performance_causal_6.png"" class=""exp-image""><div class=""question-area""><b>Is there a person?</b></div></div>","0","person_check","the_performance_causal","6","","","","","","","","",""
"","","","","","html-keyboard-response","310","2379811","0.0-310.0","null","","<div class=""stimulus-container""><img src=""images/causal_sequence/the_performance_causal/the_performance_causal_7.png"" class=""exp-image""></div>","null","","","","","","","","","","","",""
"","","","","","html-button-response","311","2380635","0.0-311.0","823","","<div class=""stimulus-container""><img src=""images/causal_sequence/the_performance_causal/the_performance_causal_7.png"" class=""exp-image""><div class=""question-area""><b>Is there a person?</b></div></div>","0","person_check","the_performance_causal","7","","","","","","","","",""
"","","","","","html-keyboard-response","312","2384644","0.0-312.0","null","","<div class=""stimulus-container""><img src=""images/causal_sequence/the_performance_causal/the_performance_causal_8.png"" class=""exp-image""></div>","null","","","","","","","","","","","",""
"","","","","","html-button-response","313","2385750","0.0-313.0","1104","","<div class=""stimulus-container""><img src=""images/causal_sequence/the_performance_causal/the_performance_causal_8.png"" class=""exp-image""><div class=""question-area""><b>Is there a person?</b></div></div>","0","person_check","the_performance_causal","8","","","","","","","","",""
"","","","","","html-keyboard-response","314","2389758","0.0-314.0","null","","<div class=""stimulus-container""><img src=""images/causal_sequence/the_performance_causal/the_performance_causal_9.png"" class=""exp-image""></div>","null","","","","","","","","","","","",""
"","","","","","html-button-response","315","2390431","0.0-315.0","672","","<div class=""stimulus-container""><img src=""images/causal_sequence/the_performance_causal/the_performance_causal_9.png"" class=""exp-image""><div class=""question-area""><b>Is there a person?</b></div></div>","0","person_check","the_performance_causal","9","","","","","","","","",""
"","","","","","html-keyboard-response","316","2394445","0.0-316.0","null","","<div class=""stimulus-container""><img src=""images/causal_sequence/the_performance_causal/the_performance_causal_ten.png"" class=""exp-image""></div>","null","","","","","","","","","","","",""
"","","","","","html-button-response","317","2395106","0.0-317.0","660","","<div class=""stimulus-container""><img src=""images/causal_sequence/the_performance_causal/the_performance_causal_ten.png"" class=""exp-image""><div class=""question-area""><b>Is there a person?</b></div></div>","0","person_check","the_performance_causal","10","","","","","","","","",""
"","","","","","html-keyboard-response","318","2398110","0.0-318.0","null","","<div style=""background-color: white; width: 100vw; height: 100vh;""></div>","null","","","","","","","","","","","",""
"","","","","","html-keyboard-response","319","2402125","0.0-319.0","null","","<div class=""stimulus-container""><img src=""images/semantic_sequence/physical_activity_semantic/physical_activity_semantic_1.png"" class=""exp-image""></div>","null","","","","","","","","","","","",""
"","","","","","html-button-response","320","2402702","0.0-320.0","576","","<div class=""stimulus-container""><img src=""images/semantic_sequence/physical_activity_semantic/physical_activity_semantic_1.png"" class=""exp-image""><div class=""question-area""><b>Is there a person?</b></div></div>","0","person_check","physical_activity_semantic","1","","","","","","","","",""
"","","","","","html-keyboard-response","321","2406713","0.0-321.0","null","","<div class=""stimulus-container""><img src=""images/semantic_sequence/physical_activity_semantic/physical_activity_semantic_2.png"" class=""exp-image""></div>","null","","","","","","","","","","","",""
"","","","","","html-button-response","322","2407154","0.0-322.0","440","","<div class=""stimulus-container""><img src=""images/semantic_sequence/physical_activity_semantic/physical_activity_semantic_2.png"" class=""exp-image""><div class=""question-area""><b>Is there a person?</b></div></div>","0","person_check","physical_activity_semantic","2","","","","","","","","",""
"","","","","","html-keyboard-response","323","2411167","0.0-323.0","null","","<div class=""stimulus-container""><img src=""images/semantic_sequence/physical_activity_semantic/physical_activity_semantic_3.png"" class=""exp-image""></div>","null","","","","","","","","","","","",""
"","","","","","html-button-response","324","2411794","0.0-324.0","624","","<div class=""stimulus-container""><img src=""images/semantic_sequence/physical_activity_semantic/physical_activity_semantic_3.png"" class=""exp-image""><div class=""question-area""><b>Is there a person?</b></div></div>","0","person_check","physical_activity_semantic","3","","","","","","","","",""
"","","","","","html-keyboard-response","325","2415807","0.0-325.0","null","","<div class=""stimulus-container""><img src=""images/semantic_sequence/physical_activity_semantic/physical_activity_semantic_4.png"" class=""exp-image""></div>","null","","","","","","","","","","","",""
"","","","","","html-button-response","326","2416187","0.0-326.0","377","","<div class=""stimulus-container""><img src=""images/semantic_sequence/physical_activity_semantic/physical_activity_semantic_4.png"" class=""exp-image""><div class=""question-area""><b>Is there a person?</b></div></div>","0","person_check","physical_activity_semantic","4","","","","","","","","",""
"","","","","","html-keyboard-response","327","2420190","0.0-327.0","null","","<div class=""stimulus-container""><img src=""images/semantic_sequence/physical_activity_semantic/physical_activity_semantic_5.png"" class=""exp-image""></div>","null","","","","","","","","","","","",""
"","","","","","html-button-response","328","2421487","0.0-328.0","1295","","<div class=""stimulus-container""><img src=""images/semantic_sequence/physical_activity_semantic/physical_activity_semantic_5.png"" class=""exp-image""><div class=""question-area""><b>Is there a person?</b></div></div>","0","person_check","physical_activity_semantic","5","","","","","","","","",""
