"success","timeout","failed_images","failed_audio","failed_video","trial_type","trial_index","time_elapsed","internal_node_id","subject_id","study_id","session_id","view_history","rt","stimulus","response","task","image_index","folder","sequence_type","valuable_image_index","reward_type","correct_choice","chosen_image_index","target_X"
"true","false","[]","[]","[]","preload","0","31266","0.0-0.0","867328F2B21F4860BC9390E63EB2538A","019cf0cf-493f-7639-b2b7-9e94ed772133","019cf037-5203-781a-b900-108ccb1cab86","","","","","","","","","","","","",""
"","","","","","instructions","1","802259","0.0-1.0","867328F2B21F4860BC9390E63EB2538A","019cf0cf-493f-7639-b2b7-9e94ed772133","019cf037-5203-781a-b900-108ccb1cab86","[{""page_index"":0,""viewing_time"":770989}]","770990","","","","","","","","","","",""
"","","","","","instructions","2","811458","0.0-2.0","867328F2B21F4860BC9390E63EB2538A","019cf0cf-493f-7639-b2b7-9e94ed772133","019cf037-5203-781a-b900-108ccb1cab86","[{""page_index"":0,""viewing_time"":9197}]","9197","","","","","","","","","","",""
"true","","","","","fullscreen","3","814353","0.0-3.0","867328F2B21F4860BC9390E63EB2538A","019cf0cf-493f-7639-b2b7-9e94ed772133","019cf037-5203-781a-b900-108ccb1cab86","","1876","","","","","","","","","","",""
"","","","","","instructions","4","821435","0.0-4.0","867328F2B21F4860BC9390E63EB2538A","019cf0cf-493f-7639-b2b7-9e94ed772133","019cf037-5203-781a-b900-108ccb1cab86","[{""page_index"":0,""viewing_time"":7081}]","7081","","","","","","","","","","",""
"","","","","","instructions","5","831589","0.0-5.0","867328F2B21F4860BC9390E63EB2538A","019cf0cf-493f-7639-b2b7-9e94ed772133","019cf037-5203-781a-b900-108ccb1cab86","[{""page_index"":0,""viewing_time"":10152}]","10153","","","","","","","","","","",""
"","","","","","html-keyboard-response","6","835594","0.0-6.0","867328F2B21F4860BC9390E63EB2538A","019cf0cf-493f-7639-b2b7-9e94ed772133","019cf037-5203-781a-b900-108ccb1cab86","","null","
                <div class=""stimulus-container"">
                    <img src=""images/instructions/movie_1.png"" class=""exp-image"">
                    <div class=""question-area""></div> 
                </div>","null","","","","","","","","",""
"","","","","","html-button-response","7","837585","0.0-7.0","867328F2B21F4860BC9390E63EB2538A","019cf0cf-493f-7639-b2b7-9e94ed772133","019cf037-5203-781a-b900-108ccb1cab86","","1987","
                <div class=""stimulus-container"">
                    <img src=""images/instructions/movie_1.png"" class=""exp-image"">
                    <div class=""question-area"">
                        <p style=""font-size: 20px; font-weight: bold; margin: 0;"">Was there a person in this image?</p>
                    </div>
                </div>","0","example_question","1","","","","","","",""
"","","","","","html-keyboard-response","8","841588","0.0-8.0","867328F2B21F4860BC9390E63EB2538A","019cf0cf-493f-7639-b2b7-9e94ed772133","019cf037-5203-781a-b900-108ccb1cab86","","null","
                <div class=""stimulus-container"">
                    <img src=""images/instructions/movie_2.png"" class=""exp-image"">
                    <div class=""question-area""></div> 
                </div>","null","","","","","","","","",""
"","","","","","html-button-response","9","843394","0.0-9.0","867328F2B21F4860BC9390E63EB2538A","019cf0cf-493f-7639-b2b7-9e94ed772133","019cf037-5203-781a-b900-108ccb1cab86","","1803","
                <div class=""stimulus-container"">
                    <img src=""images/instructions/movie_2.png"" class=""exp-image"">
                    <div class=""question-area"">
                        <p style=""font-size: 20px; font-weight: bold; margin: 0;"">Was there a person in this image?</p>
                    </div>
                </div>","0","example_question","2","","","","","","",""
"","","","","","html-keyboard-response","10","847397","0.0-10.0","867328F2B21F4860BC9390E63EB2538A","019cf0cf-493f-7639-b2b7-9e94ed772133","019cf037-5203-781a-b900-108ccb1cab86","","null","
                <div class=""stimulus-container"">
                    <img src=""images/instructions/movie_3.png"" class=""exp-image"">
                    <div class=""question-area""></div> 
                </div>","null","","","","","","","","",""
"","","","","","html-button-response","11","848367","0.0-11.0","867328F2B21F4860BC9390E63EB2538A","019cf0cf-493f-7639-b2b7-9e94ed772133","019cf037-5203-781a-b900-108ccb1cab86","","966","
                <div class=""stimulus-container"">
                    <img src=""images/instructions/movie_3.png"" class=""exp-image"">
                    <div class=""question-area"">
                        <p style=""font-size: 20px; font-weight: bold; margin: 0;"">Was there a person in this image?</p>
                    </div>
                </div>","0","example_question","3","","","","","","",""
"","","","","","html-keyboard-response","12","852370","0.0-12.0","867328F2B21F4860BC9390E63EB2538A","019cf0cf-493f-7639-b2b7-9e94ed772133","019cf037-5203-781a-b900-108ccb1cab86","","null","
                <div class=""stimulus-container"">
                    <img src=""images/instructions/movie_4.png"" class=""exp-image"">
                    <div class=""question-area""></div> 
                </div>","null","","","","","","","","",""
"","","","","","html-button-response","13","853906","0.0-13.0","867328F2B21F4860BC9390E63EB2538A","019cf0cf-493f-7639-b2b7-9e94ed772133","019cf037-5203-781a-b900-108ccb1cab86","","1534","
                <div class=""stimulus-container"">
                    <img src=""images/instructions/movie_4.png"" class=""exp-image"">
                    <div class=""question-area"">
                        <p style=""font-size: 20px; font-weight: bold; margin: 0;"">Was there a person in this image?</p>
                    </div>
                </div>","0","example_question","4","","","","","","",""
"","","","","","instructions","14","856267","0.0-14.0","867328F2B21F4860BC9390E63EB2538A","019cf0cf-493f-7639-b2b7-9e94ed772133","019cf037-5203-781a-b900-108ccb1cab86","[{""page_index"":0,""viewing_time"":2358}]","2359","","","","","","","","","","",""
"","","","","","instructions","15","860788","0.0-15.0","867328F2B21F4860BC9390E63EB2538A","019cf0cf-493f-7639-b2b7-9e94ed772133","019cf037-5203-781a-b900-108ccb1cab86","[{""page_index"":0,""viewing_time"":4519}]","4520","","","","","","","","","","",""
"","","","","","html-keyboard-response","16","861792","0.0-16.0","867328F2B21F4860BC9390E63EB2538A","019cf0cf-493f-7639-b2b7-9e94ed772133","019cf037-5203-781a-b900-108ccb1cab86","","null","<div style=""background-color: white; width: 100vw; height: 100vh;""></div>","null","","","","","","","","",""
"","","","","","html-keyboard-response","17","866795","0.0-17.0","867328F2B21F4860BC9390E63EB2538A","019cf0cf-493f-7639-b2b7-9e94ed772133","019cf037-5203-781a-b900-108ccb1cab86","","null","
                <div class=""stimulus-container"">
                    <img src=""images/schematic_sequence/supermarket_scheme/supermarket_scheme_1.png"" class=""exp-image"">
                    <div class=""question-area""></div> 
                </div>","null","","","","","","","","",""
"","","","","","html-button-response","18","868160","0.0-18.0","867328F2B21F4860BC9390E63EB2538A","019cf0cf-493f-7639-b2b7-9e94ed772133","019cf037-5203-781a-b900-108ccb1cab86","","1363","
                <div class=""stimulus-container"">
                    <img src=""images/schematic_sequence/supermarket_scheme/supermarket_scheme_1.png"" class=""exp-image"">
                    <div class=""question-area"">
                        <p style=""font-size: 20px; font-weight: bold; margin: 0;"">Is there a person in this image?</p>
                    </div>
                </div>","1","main_experiment_trial","1","supermarket_scheme","schematic_sequence","","","","",""
"","","","","","html-keyboard-response","19","873163","0.0-19.0","867328F2B21F4860BC9390E63EB2538A","019cf0cf-493f-7639-b2b7-9e94ed772133","019cf037-5203-781a-b900-108ccb1cab86","","null","
                <div class=""stimulus-container"">
                    <img src=""images/schematic_sequence/supermarket_scheme/supermarket_scheme_2.png"" class=""exp-image"">
                    <div class=""question-area""></div> 
                </div>","null","","","","","","","","",""
"","","","","","html-button-response","20","874781","0.0-20.0","867328F2B21F4860BC9390E63EB2538A","019cf0cf-493f-7639-b2b7-9e94ed772133","019cf037-5203-781a-b900-108ccb1cab86","","1617","
                <div class=""stimulus-container"">
                    <img src=""images/schematic_sequence/supermarket_scheme/supermarket_scheme_2.png"" class=""exp-image"">
                    <div class=""question-area"">
                        <p style=""font-size: 20px; font-weight: bold; margin: 0;"">Is there a person in this image?</p>
                    </div>
                </div>","1","main_experiment_trial","2","supermarket_scheme","schematic_sequence","","","","",""
"","","","","","html-keyboard-response","21","879784","0.0-21.0","867328F2B21F4860BC9390E63EB2538A","019cf0cf-493f-7639-b2b7-9e94ed772133","019cf037-5203-781a-b900-108ccb1cab86","","null","
                <div class=""stimulus-container"">
                    <img src=""images/schematic_sequence/supermarket_scheme/supermarket_scheme_3.png"" class=""exp-image"">
                    <div class=""question-area""></div> 
                </div>","null","","","","","","","","",""
"","","","","","html-button-response","22","881542","0.0-22.0","867328F2B21F4860BC9390E63EB2538A","019cf0cf-493f-7639-b2b7-9e94ed772133","019cf037-5203-781a-b900-108ccb1cab86","","1755","
                <div class=""stimulus-container"">
                    <img src=""images/schematic_sequence/supermarket_scheme/supermarket_scheme_3.png"" class=""exp-image"">
                    <div class=""question-area"">
                        <p style=""font-size: 20px; font-weight: bold; margin: 0;"">Is there a person in this image?</p>
                    </div>
                </div>","1","main_experiment_trial","3","supermarket_scheme","schematic_sequence","","","","",""
"","","","","","html-keyboard-response","23","886544","0.0-23.0","867328F2B21F4860BC9390E63EB2538A","019cf0cf-493f-7639-b2b7-9e94ed772133","019cf037-5203-781a-b900-108ccb1cab86","","null","
                <div class=""stimulus-container"">
                    <img src=""images/schematic_sequence/supermarket_scheme/supermarket_scheme_4.png"" class=""exp-image"">
                    <div class=""question-area""></div> 
                </div>","null","","","","","","","","",""
"","","","","","html-button-response","24","887636","0.0-24.0","867328F2B21F4860BC9390E63EB2538A","019cf0cf-493f-7639-b2b7-9e94ed772133","019cf037-5203-781a-b900-108ccb1cab86","","1087","
                <div class=""stimulus-container"">
                    <img src=""images/schematic_sequence/supermarket_scheme/supermarket_scheme_4.png"" class=""exp-image"">
                    <div class=""question-area"">
                        <p style=""font-size: 20px; font-weight: bold; margin: 0;"">Is there a person in this image?</p>
                    </div>
                </div>","0","main_experiment_trial","4","supermarket_scheme","schematic_sequence","","","","",""
"","","","","","html-keyboard-response","25","892639","0.0-25.0","867328F2B21F4860BC9390E63EB2538A","019cf0cf-493f-7639-b2b7-9e94ed772133","019cf037-5203-781a-b900-108ccb1cab86","","null","
                <div class=""stimulus-container"">
                    <img src=""images/schematic_sequence/supermarket_scheme/supermarket_scheme_5.png"" class=""exp-image"">
                    <div class=""question-area""></div> 
                </div>","null","","","","","","","","",""
"","","","","","html-button-response","26","894272","0.0-26.0","867328F2B21F4860BC9390E63EB2538A","019cf0cf-493f-7639-b2b7-9e94ed772133","019cf037-5203-781a-b900-108ccb1cab86","","1631","
                <div class=""stimulus-container"">
                    <img src=""images/schematic_sequence/supermarket_scheme/supermarket_scheme_5.png"" class=""exp-image"">
                    <div class=""question-area"">
                        <p style=""font-size: 20px; font-weight: bold; margin: 0;"">Is there a person in this image?</p>
                    </div>
                </div>","1","main_experiment_trial","5","supermarket_scheme","schematic_sequence","","","","",""
"","","","","","html-keyboard-response","27","899276","0.0-27.0","867328F2B21F4860BC9390E63EB2538A","019cf0cf-493f-7639-b2b7-9e94ed772133","019cf037-5203-781a-b900-108ccb1cab86","","null","
                <div class=""stimulus-container"">
                    <img src=""images/schematic_sequence/supermarket_scheme/supermarket_scheme_6.png"" class=""exp-image"">
                    <div class=""question-area""></div> 
                </div>","null","","","","","","","","",""
"","","","","","html-button-response","28","900627","0.0-28.0","867328F2B21F4860BC9390E63EB2538A","019cf0cf-493f-7639-b2b7-9e94ed772133","019cf037-5203-781a-b900-108ccb1cab86","","1349","
                <div class=""stimulus-container"">
                    <img src=""images/schematic_sequence/supermarket_scheme/supermarket_scheme_6.png"" class=""exp-image"">
                    <div class=""question-area"">
                        <p style=""font-size: 20px; font-weight: bold; margin: 0;"">Is there a person in this image?</p>
                    </div>
                </div>","0","main_experiment_trial","6","supermarket_scheme","schematic_sequence","","","","",""
"","","","","","html-keyboard-response","29","905630","0.0-29.0","867328F2B21F4860BC9390E63EB2538A","019cf0cf-493f-7639-b2b7-9e94ed772133","019cf037-5203-781a-b900-108ccb1cab86","","null","
                <div class=""stimulus-container"">
                    <img src=""images/schematic_sequence/supermarket_scheme/supermarket_scheme_7.png"" class=""exp-image"">
                    <div class=""question-area""></div> 
                </div>","null","","","","","","","","",""
"","","","","","html-button-response","30","907029","0.0-30.0","867328F2B21F4860BC9390E63EB2538A","019cf0cf-493f-7639-b2b7-9e94ed772133","019cf037-5203-781a-b900-108ccb1cab86","","1396","
                <div class=""stimulus-container"">
                    <img src=""images/schematic_sequence/supermarket_scheme/supermarket_scheme_7.png"" class=""exp-image"">
                    <div class=""question-area"">
                        <p style=""font-size: 20px; font-weight: bold; margin: 0;"">Is there a person in this image?</p>
                    </div>
                </div>","0","main_experiment_trial","7","supermarket_scheme","schematic_sequence","","","","",""
"","","","","","html-keyboard-response","31","912031","0.0-31.0","867328F2B21F4860BC9390E63EB2538A","019cf0cf-493f-7639-b2b7-9e94ed772133","019cf037-5203-781a-b900-108ccb1cab86","","null","
                <div class=""stimulus-container"">
                    <img src=""images/schematic_sequence/supermarket_scheme/supermarket_scheme_8.png"" class=""exp-image"">
                    <div class=""question-area""></div> 
                </div>","null","","","","","","","","",""
"","","","","","html-button-response","32","914137","0.0-32.0","867328F2B21F4860BC9390E63EB2538A","019cf0cf-493f-7639-b2b7-9e94ed772133","019cf037-5203-781a-b900-108ccb1cab86","","2104","
                <div class=""stimulus-container"">
                    <img src=""images/schematic_sequence/supermarket_scheme/supermarket_scheme_8.png"" class=""exp-image"">
                    <div class=""question-area"">
                        <p style=""font-size: 20px; font-weight: bold; margin: 0;"">Is there a person in this image?</p>
                    </div>
                </div>","0","main_experiment_trial","8","supermarket_scheme","schematic_sequence","","","","",""
"","","","","","html-keyboard-response","33","919139","0.0-33.0","867328F2B21F4860BC9390E63EB2538A","019cf0cf-493f-7639-b2b7-9e94ed772133","019cf037-5203-781a-b900-108ccb1cab86","","null","
                <div class=""stimulus-container"">
                    <img src=""images/schematic_sequence/supermarket_scheme/supermarket_scheme_9.png"" class=""exp-image"">
                    <div class=""question-area""></div> 
                </div>","null","","","","","","","","",""
"","","","","","html-button-response","34","919981","0.0-34.0","867328F2B21F4860BC9390E63EB2538A","019cf0cf-493f-7639-b2b7-9e94ed772133","019cf037-5203-781a-b900-108ccb1cab86","","839","
                <div class=""stimulus-container"">
                    <img src=""images/schematic_sequence/supermarket_scheme/supermarket_scheme_9.png"" class=""exp-image"">
                    <div class=""question-area"">
                        <p style=""font-size: 20px; font-weight: bold; margin: 0;"">Is there a person in this image?</p>
                    </div>
                </div>","0","main_experiment_trial","9","supermarket_scheme","schematic_sequence","","","","",""
"","","","","","html-keyboard-response","35","924984","0.0-35.0","867328F2B21F4860BC9390E63EB2538A","019cf0cf-493f-7639-b2b7-9e94ed772133","019cf037-5203-781a-b900-108ccb1cab86","","null","
                <div class=""stimulus-container"">
                    <img src=""images/schematic_sequence/supermarket_scheme/supermarket_scheme_ten.png"" class=""exp-image"">
                    <div class=""question-area""></div> 
                </div>","null","","","","","","","","",""
"","","","","","html-button-response","36","926316","0.0-36.0","867328F2B21F4860BC9390E63EB2538A","019cf0cf-493f-7639-b2b7-9e94ed772133","019cf037-5203-781a-b900-108ccb1cab86","","1329","
                <div class=""stimulus-container"">
                    <img src=""images/schematic_sequence/supermarket_scheme/supermarket_scheme_ten.png"" class=""exp-image"">
                    <div class=""question-area"">
                        <p style=""font-size: 20px; font-weight: bold; margin: 0;"">Is there a person in this image?</p>
                    </div>
                </div>","1","main_experiment_trial","ten","supermarket_scheme","schematic_sequence","","","","",""
"","","","","","html-keyboard-response","37","927319","0.0-37.0","867328F2B21F4860BC9390E63EB2538A","019cf0cf-493f-7639-b2b7-9e94ed772133","019cf037-5203-781a-b900-108ccb1cab86","","null","<div style=""background-color: white; width: 100vw; height: 100vh;""></div>","null","","","","","","","","",""
"","","","","","html-keyboard-response","38","932322","0.0-38.0","867328F2B21F4860BC9390E63EB2538A","019cf0cf-493f-7639-b2b7-9e94ed772133","019cf037-5203-781a-b900-108ccb1cab86","","null","
                <div class=""stimulus-container"">
                    <img src=""images/schematic_sequence/interview_scheme/interview_scheme_1.png"" class=""exp-image"">
                    <div class=""question-area""></div> 
                </div>","null","","","","","","","","",""
"","","","","","html-button-response","39","934187","0.0-39.0","867328F2B21F4860BC9390E63EB2538A","019cf0cf-493f-7639-b2b7-9e94ed772133","019cf037-5203-781a-b900-108ccb1cab86","","1863","
                <div class=""stimulus-container"">
                    <img src=""images/schematic_sequence/interview_scheme/interview_scheme_1.png"" class=""exp-image"">
                    <div class=""question-area"">
                        <p style=""font-size: 20px; font-weight: bold; margin: 0;"">Is there a person in this image?</p>
                    </div>
                </div>","1","main_experiment_trial","1","interview_scheme","schematic_sequence","","","","",""
"","","","","","html-keyboard-response","40","939189","0.0-40.0","867328F2B21F4860BC9390E63EB2538A","019cf0cf-493f-7639-b2b7-9e94ed772133","019cf037-5203-781a-b900-108ccb1cab86","","null","
                <div class=""stimulus-container"">
                    <img src=""images/schematic_sequence/interview_scheme/interview_scheme_2.png"" class=""exp-image"">
                    <div class=""question-area""></div> 
                </div>","null","","","","","","","","",""
"","","","","","html-button-response","41","940881","0.0-41.0","867328F2B21F4860BC9390E63EB2538A","019cf0cf-493f-7639-b2b7-9e94ed772133","019cf037-5203-781a-b900-108ccb1cab86","","1689","
                <div class=""stimulus-container"">
                    <img src=""images/schematic_sequence/interview_scheme/interview_scheme_2.png"" class=""exp-image"">
                    <div class=""question-area"">
                        <p style=""font-size: 20px; font-weight: bold; margin: 0;"">Is there a person in this image?</p>
                    </div>
                </div>","1","main_experiment_trial","2","interview_scheme","schematic_sequence","","","","",""
"","","","","","html-keyboard-response","42","945884","0.0-42.0","867328F2B21F4860BC9390E63EB2538A","019cf0cf-493f-7639-b2b7-9e94ed772133","019cf037-5203-781a-b900-108ccb1cab86","","null","
                <div class=""stimulus-container"">
                    <img src=""images/schematic_sequence/interview_scheme/interview_scheme_3.png"" class=""exp-image"">
                    <div class=""question-area""></div> 
                </div>","null","","","","","","","","",""
"","","","","","html-button-response","43","946566","0.0-43.0","867328F2B21F4860BC9390E63EB2538A","019cf0cf-493f-7639-b2b7-9e94ed772133","019cf037-5203-781a-b900-108ccb1cab86","","679","
                <div class=""stimulus-container"">
                    <img src=""images/schematic_sequence/interview_scheme/interview_scheme_3.png"" class=""exp-image"">
                    <div class=""question-area"">
                        <p style=""font-size: 20px; font-weight: bold; margin: 0;"">Is there a person in this image?</p>
                    </div>
                </div>","1","main_experiment_trial","3","interview_scheme","schematic_sequence","","","","",""
"","","","","","html-keyboard-response","44","951574","0.0-44.0","867328F2B21F4860BC9390E63EB2538A","019cf0cf-493f-7639-b2b7-9e94ed772133","019cf037-5203-781a-b900-108ccb1cab86","","null","
                <div class=""stimulus-container"">
                    <img src=""images/schematic_sequence/interview_scheme/interview_scheme_4.png"" class=""exp-image"">
                    <div class=""question-area""></div> 
                </div>","null","","","","","","","","",""
"","","","","","html-button-response","45","952623","0.0-45.0","867328F2B21F4860BC9390E63EB2538A","019cf0cf-493f-7639-b2b7-9e94ed772133","019cf037-5203-781a-b900-108ccb1cab86","","1047","
                <div class=""stimulus-container"">
                    <img src=""images/schematic_sequence/interview_scheme/interview_scheme_4.png"" class=""exp-image"">
                    <div class=""question-area"">
                        <p style=""font-size: 20px; font-weight: bold; margin: 0;"">Is there a person in this image?</p>
                    </div>
                </div>","1","main_experiment_trial","4","interview_scheme","schematic_sequence","","","","",""
"","","","","","html-keyboard-response","46","957625","0.0-46.0","867328F2B21F4860BC9390E63EB2538A","019cf0cf-493f-7639-b2b7-9e94ed772133","019cf037-5203-781a-b900-108ccb1cab86","","null","
                <div class=""stimulus-container"">
                    <img src=""images/schematic_sequence/interview_scheme/interview_scheme_5.png"" class=""exp-image"">
                    <div class=""question-area""></div> 
                </div>","null","","","","","","","","",""
"","","","","","html-button-response","47","958778","0.0-47.0","867328F2B21F4860BC9390E63EB2538A","019cf0cf-493f-7639-b2b7-9e94ed772133","019cf037-5203-781a-b900-108ccb1cab86","","1150","
                <div class=""stimulus-container"">
                    <img src=""images/schematic_sequence/interview_scheme/interview_scheme_5.png"" class=""exp-image"">
                    <div class=""question-area"">
                        <p style=""font-size: 20px; font-weight: bold; margin: 0;"">Is there a person in this image?</p>
                    </div>
                </div>","0","main_experiment_trial","5","interview_scheme","schematic_sequence","","","","",""
"","","","","","html-keyboard-response","48","963780","0.0-48.0","867328F2B21F4860BC9390E63EB2538A","019cf0cf-493f-7639-b2b7-9e94ed772133","019cf037-5203-781a-b900-108ccb1cab86","","null","
                <div class=""stimulus-container"">
                    <img src=""images/schematic_sequence/interview_scheme/interview_scheme_6.png"" class=""exp-image"">
                    <div class=""question-area""></div> 
                </div>","null","","","","","","","","",""
"","","","","","html-button-response","49","964921","0.0-49.0","867328F2B21F4860BC9390E63EB2538A","019cf0cf-493f-7639-b2b7-9e94ed772133","019cf037-5203-781a-b900-108ccb1cab86","","1137","
                <div class=""stimulus-container"">
                    <img src=""images/schematic_sequence/interview_scheme/interview_scheme_6.png"" class=""exp-image"">
                    <div class=""question-area"">
                        <p style=""font-size: 20px; font-weight: bold; margin: 0;"">Is there a person in this image?</p>
                    </div>
                </div>","0","main_experiment_trial","6","interview_scheme","schematic_sequence","","","","",""
"","","","","","html-keyboard-response","50","969923","0.0-50.0","867328F2B21F4860BC9390E63EB2538A","019cf0cf-493f-7639-b2b7-9e94ed772133","019cf037-5203-781a-b900-108ccb1cab86","","null","
                <div class=""stimulus-container"">
                    <img src=""images/schematic_sequence/interview_scheme/interview_scheme_7.png"" class=""exp-image"">
                    <div class=""question-area""></div> 
                </div>","null","","","","","","","","",""
"","","","","","html-button-response","51","970668","0.0-51.0","867328F2B21F4860BC9390E63EB2538A","019cf0cf-493f-7639-b2b7-9e94ed772133","019cf037-5203-781a-b900-108ccb1cab86","","742","
                <div class=""stimulus-container"">
                    <img src=""images/schematic_sequence/interview_scheme/interview_scheme_7.png"" class=""exp-image"">
                    <div class=""question-area"">
                        <p style=""font-size: 20px; font-weight: bold; margin: 0;"">Is there a person in this image?</p>
                    </div>
                </div>","0","main_experiment_trial","7","interview_scheme","schematic_sequence","","","","",""
"","","","","","html-keyboard-response","52","975671","0.0-52.0","867328F2B21F4860BC9390E63EB2538A","019cf0cf-493f-7639-b2b7-9e94ed772133","019cf037-5203-781a-b900-108ccb1cab86","","null","
                <div class=""stimulus-container"">
                    <img src=""images/schematic_sequence/interview_scheme/interview_scheme_8.png"" class=""exp-image"">
                    <div class=""question-area""></div> 
                </div>","null","","","","","","","","",""
"","","","","","html-button-response","53","976956","0.0-53.0","867328F2B21F4860BC9390E63EB2538A","019cf0cf-493f-7639-b2b7-9e94ed772133","019cf037-5203-781a-b900-108ccb1cab86","","1282","
                <div class=""stimulus-container"">
                    <img src=""images/schematic_sequence/interview_scheme/interview_scheme_8.png"" class=""exp-image"">
                    <div class=""question-area"">
                        <p style=""font-size: 20px; font-weight: bold; margin: 0;"">Is there a person in this image?</p>
                    </div>
                </div>","0","main_experiment_trial","8","interview_scheme","schematic_sequence","","","","",""
"","","","","","html-keyboard-response","54","981958","0.0-54.0","867328F2B21F4860BC9390E63EB2538A","019cf0cf-493f-7639-b2b7-9e94ed772133","019cf037-5203-781a-b900-108ccb1cab86","","null","
                <div class=""stimulus-container"">
                    <img src=""images/schematic_sequence/interview_scheme/interview_scheme_9.png"" class=""exp-image"">
                    <div class=""question-area""></div> 
                </div>","null","","","","","","","","",""
"","","","","","html-button-response","55","983514","0.0-55.0","867328F2B21F4860BC9390E63EB2538A","019cf0cf-493f-7639-b2b7-9e94ed772133","019cf037-5203-781a-b900-108ccb1cab86","","1553","
                <div class=""stimulus-container"">
                    <img src=""images/schematic_sequence/interview_scheme/interview_scheme_9.png"" class=""exp-image"">
                    <div class=""question-area"">
                        <p style=""font-size: 20px; font-weight: bold; margin: 0;"">Is there a person in this image?</p>
                    </div>
                </div>","0","main_experiment_trial","9","interview_scheme","schematic_sequence","","","","",""
"","","","","","html-keyboard-response","56","988517","0.0-56.0","867328F2B21F4860BC9390E63EB2538A","019cf0cf-493f-7639-b2b7-9e94ed772133","019cf037-5203-781a-b900-108ccb1cab86","","null","
                <div class=""stimulus-container"">
                    <img src=""images/schematic_sequence/interview_scheme/interview_scheme_ten.png"" class=""exp-image"">
                    <div class=""question-area""></div> 
                </div>","null","","","","","","","","",""
"","","","","","html-button-response","57","990374","0.0-57.0","867328F2B21F4860BC9390E63EB2538A","019cf0cf-493f-7639-b2b7-9e94ed772133","019cf037-5203-781a-b900-108ccb1cab86","","1854","
                <div class=""stimulus-container"">
                    <img src=""images/schematic_sequence/interview_scheme/interview_scheme_ten.png"" class=""exp-image"">
                    <div class=""question-area"">
                        <p style=""font-size: 20px; font-weight: bold; margin: 0;"">Is there a person in this image?</p>
                    </div>
                </div>","0","main_experiment_trial","ten","interview_scheme","schematic_sequence","","","","",""
"","","","","","html-keyboard-response","58","991377","0.0-58.0","867328F2B21F4860BC9390E63EB2538A","019cf0cf-493f-7639-b2b7-9e94ed772133","019cf037-5203-781a-b900-108ccb1cab86","","null","<div style=""background-color: white; width: 100vw; height: 100vh;""></div>","null","","","","","","","","",""
"","","","","","html-keyboard-response","59","996379","0.0-59.0","867328F2B21F4860BC9390E63EB2538A","019cf0cf-493f-7639-b2b7-9e94ed772133","019cf037-5203-781a-b900-108ccb1cab86","","null","
                <div class=""stimulus-container"">
                    <img src=""images/schematic_sequence/flight_scheme/flight_scheme_1.png"" class=""exp-image"">
                    <div class=""question-area""></div> 
                </div>","null","","","","","","","","",""
"","","","","","html-button-response","60","999383","0.0-60.0","867328F2B21F4860BC9390E63EB2538A","019cf0cf-493f-7639-b2b7-9e94ed772133","019cf037-5203-781a-b900-108ccb1cab86","","null","
                <div class=""stimulus-container"">
                    <img src=""images/schematic_sequence/flight_scheme/flight_scheme_1.png"" class=""exp-image"">
                    <div class=""question-area"">
                        <p style=""font-size: 20px; font-weight: bold; margin: 0;"">Is there a person in this image?</p>
                    </div>
                </div>","null","main_experiment_trial","1","flight_scheme","schematic_sequence","","","","",""
"","","","","","html-keyboard-response","61","1004385","0.0-61.0","867328F2B21F4860BC9390E63EB2538A","019cf0cf-493f-7639-b2b7-9e94ed772133","019cf037-5203-781a-b900-108ccb1cab86","","null","
                <div class=""stimulus-container"">
                    <img src=""images/schematic_sequence/flight_scheme/flight_scheme_2.png"" class=""exp-image"">
                    <div class=""question-area""></div> 
                </div>","null","","","","","","","","",""
"","","","","","html-button-response","62","1005740","0.0-62.0","867328F2B21F4860BC9390E63EB2538A","019cf0cf-493f-7639-b2b7-9e94ed772133","019cf037-5203-781a-b900-108ccb1cab86","","1352","
                <div class=""stimulus-container"">
                    <img src=""images/schematic_sequence/flight_scheme/flight_scheme_2.png"" class=""exp-image"">
                    <div class=""question-area"">
                        <p style=""font-size: 20px; font-weight: bold; margin: 0;"">Is there a person in this image?</p>
                    </div>
                </div>","1","main_experiment_trial","2","flight_scheme","schematic_sequence","","","","",""
"","","","","","html-keyboard-response","63","1010742","0.0-63.0","867328F2B21F4860BC9390E63EB2538A","019cf0cf-493f-7639-b2b7-9e94ed772133","019cf037-5203-781a-b900-108ccb1cab86","","null","
                <div class=""stimulus-container"">
                    <img src=""images/schematic_sequence/flight_scheme/flight_scheme_3.png"" class=""exp-image"">
                    <div class=""question-area""></div> 
                </div>","null","","","","","","","","",""
"","","","","","html-button-response","64","1011893","0.0-64.0","867328F2B21F4860BC9390E63EB2538A","019cf0cf-493f-7639-b2b7-9e94ed772133","019cf037-5203-781a-b900-108ccb1cab86","","1150","
                <div class=""stimulus-container"">
                    <img src=""images/schematic_sequence/flight_scheme/flight_scheme_3.png"" class=""exp-image"">
                    <div class=""question-area"">
                        <p style=""font-size: 20px; font-weight: bold; margin: 0;"">Is there a person in this image?</p>
                    </div>
                </div>","0","main_experiment_trial","3","flight_scheme","schematic_sequence","","","","",""
"","","","","","html-keyboard-response","65","1016896","0.0-65.0","867328F2B21F4860BC9390E63EB2538A","019cf0cf-493f-7639-b2b7-9e94ed772133","019cf037-5203-781a-b900-108ccb1cab86","","null","
                <div class=""stimulus-container"">
                    <img src=""images/schematic_sequence/flight_scheme/flight_scheme_4.png"" class=""exp-image"">
                    <div class=""question-area""></div> 
                </div>","null","","","","","","","","",""
"","","","","","html-button-response","66","1018438","0.0-66.0","867328F2B21F4860BC9390E63EB2538A","019cf0cf-493f-7639-b2b7-9e94ed772133","019cf037-5203-781a-b900-108ccb1cab86","","1539","
                <div class=""stimulus-container"">
                    <img src=""images/schematic_sequence/flight_scheme/flight_scheme_4.png"" class=""exp-image"">
                    <div class=""question-area"">
                        <p style=""font-size: 20px; font-weight: bold; margin: 0;"">Is there a person in this image?</p>
                    </div>
                </div>","0","main_experiment_trial","4","flight_scheme","schematic_sequence","","","","",""
"","","","","","html-keyboard-response","67","1023440","0.0-67.0","867328F2B21F4860BC9390E63EB2538A","019cf0cf-493f-7639-b2b7-9e94ed772133","019cf037-5203-781a-b900-108ccb1cab86","","null","
                <div class=""stimulus-container"">
                    <img src=""images/schematic_sequence/flight_scheme/flight_scheme_5.png"" class=""exp-image"">
                    <div class=""question-area""></div> 
                </div>","null","","","","","","","","",""
"","","","","","html-button-response","68","1024105","0.0-68.0","867328F2B21F4860BC9390E63EB2538A","019cf0cf-493f-7639-b2b7-9e94ed772133","019cf037-5203-781a-b900-108ccb1cab86","","661","
                <div class=""stimulus-container"">
                    <img src=""images/schematic_sequence/flight_scheme/flight_scheme_5.png"" class=""exp-image"">
                    <div class=""question-area"">
                        <p style=""font-size: 20px; font-weight: bold; margin: 0;"">Is there a person in this image?</p>
                    </div>
                </div>","0","main_experiment_trial","5","flight_scheme","schematic_sequence","","","","",""
"","","","","","html-keyboard-response","69","1029108","0.0-69.0","867328F2B21F4860BC9390E63EB2538A","019cf0cf-493f-7639-b2b7-9e94ed772133","019cf037-5203-781a-b900-108ccb1cab86","","null","
                <div class=""stimulus-container"">
                    <img src=""images/schematic_sequence/flight_scheme/flight_scheme_6.png"" class=""exp-image"">
                    <div class=""question-area""></div> 
                </div>","null","","","","","","","","",""
"","","","","","html-button-response","70","1030709","0.0-70.0","867328F2B21F4860BC9390E63EB2538A","019cf0cf-493f-7639-b2b7-9e94ed772133","019cf037-5203-781a-b900-108ccb1cab86","","1597","
                <div class=""stimulus-container"">
                    <img src=""images/schematic_sequence/flight_scheme/flight_scheme_6.png"" class=""exp-image"">
                    <div class=""question-area"">
                        <p style=""font-size: 20px; font-weight: bold; margin: 0;"">Is there a person in this image?</p>
                    </div>
                </div>","1","main_experiment_trial","6","flight_scheme","schematic_sequence","","","","",""
"","","","","","html-keyboard-response","71","1035711","0.0-71.0","867328F2B21F4860BC9390E63EB2538A","019cf0cf-493f-7639-b2b7-9e94ed772133","019cf037-5203-781a-b900-108ccb1cab86","","null","
                <div class=""stimulus-container"">
                    <img src=""images/schematic_sequence/flight_scheme/flight_scheme_7.png"" class=""exp-image"">
                    <div class=""question-area""></div> 
                </div>","null","","","","","","","","",""
"","","","","","html-button-response","72","1036544","0.0-72.0","867328F2B21F4860BC9390E63EB2538A","019cf0cf-493f-7639-b2b7-9e94ed772133","019cf037-5203-781a-b900-108ccb1cab86","","829","
                <div class=""stimulus-container"">
                    <img src=""images/schematic_sequence/flight_scheme/flight_scheme_7.png"" class=""exp-image"">
                    <div class=""question-area"">
                        <p style=""font-size: 20px; font-weight: bold; margin: 0;"">Is there a person in this image?</p>
                    </div>
                </div>","1","main_experiment_trial","7","flight_scheme","schematic_sequence","","","","",""
"","","","","","html-keyboard-response","73","1041546","0.0-73.0","867328F2B21F4860BC9390E63EB2538A","019cf0cf-493f-7639-b2b7-9e94ed772133","019cf037-5203-781a-b900-108ccb1cab86","","null","
                <div class=""stimulus-container"">
                    <img src=""images/schematic_sequence/flight_scheme/flight_scheme_8.png"" class=""exp-image"">
                    <div class=""question-area""></div> 
                </div>","null","","","","","","","","",""
"","","","","","html-button-response","74","1042547","0.0-74.0","867328F2B21F4860BC9390E63EB2538A","019cf0cf-493f-7639-b2b7-9e94ed772133","019cf037-5203-781a-b900-108ccb1cab86","","999","
                <div class=""stimulus-container"">
                    <img src=""images/schematic_sequence/flight_scheme/flight_scheme_8.png"" class=""exp-image"">
                    <div class=""question-area"">
                        <p style=""font-size: 20px; font-weight: bold; margin: 0;"">Is there a person in this image?</p>
                    </div>
                </div>","1","main_experiment_trial","8","flight_scheme","schematic_sequence","","","","",""
"","","","","","html-keyboard-response","75","1047550","0.0-75.0","867328F2B21F4860BC9390E63EB2538A","019cf0cf-493f-7639-b2b7-9e94ed772133","019cf037-5203-781a-b900-108ccb1cab86","","null","
                <div class=""stimulus-container"">
                    <img src=""images/schematic_sequence/flight_scheme/flight_scheme_9.png"" class=""exp-image"">
                    <div class=""question-area""></div> 
                </div>","null","","","","","","","","",""
"","","","","","html-button-response","76","1048735","0.0-76.0","867328F2B21F4860BC9390E63EB2538A","019cf0cf-493f-7639-b2b7-9e94ed772133","019cf037-5203-781a-b900-108ccb1cab86","","1184","
                <div class=""stimulus-container"">
                    <img src=""images/schematic_sequence/flight_scheme/flight_scheme_9.png"" class=""exp-image"">
                    <div class=""question-area"">
                        <p style=""font-size: 20px; font-weight: bold; margin: 0;"">Is there a person in this image?</p>
                    </div>
                </div>","0","main_experiment_trial","9","flight_scheme","schematic_sequence","","","","",""
"","","","","","html-keyboard-response","77","1053738","0.0-77.0","867328F2B21F4860BC9390E63EB2538A","019cf0cf-493f-7639-b2b7-9e94ed772133","019cf037-5203-781a-b900-108ccb1cab86","","null","
                <div class=""stimulus-container"">
                    <img src=""images/schematic_sequence/flight_scheme/flight_scheme_ten.png"" class=""exp-image"">
                    <div class=""question-area""></div> 
                </div>","null","","","","","","","","",""
"","","","","","html-button-response","78","1054926","0.0-78.0","867328F2B21F4860BC9390E63EB2538A","019cf0cf-493f-7639-b2b7-9e94ed772133","019cf037-5203-781a-b900-108ccb1cab86","","1185","
                <div class=""stimulus-container"">
                    <img src=""images/schematic_sequence/flight_scheme/flight_scheme_ten.png"" class=""exp-image"">
                    <div class=""question-area"">
                        <p style=""font-size: 20px; font-weight: bold; margin: 0;"">Is there a person in this image?</p>
                    </div>
                </div>","0","main_experiment_trial","ten","flight_scheme","schematic_sequence","","","","",""
"","","","","","html-keyboard-response","79","1055929","0.0-79.0","867328F2B21F4860BC9390E63EB2538A","019cf0cf-493f-7639-b2b7-9e94ed772133","019cf037-5203-781a-b900-108ccb1cab86","","null","<div style=""background-color: white; width: 100vw; height: 100vh;""></div>","null","","","","","","","","",""
"","","","","","html-keyboard-response","80","1060931","0.0-80.0","867328F2B21F4860BC9390E63EB2538A","019cf0cf-493f-7639-b2b7-9e94ed772133","019cf037-5203-781a-b900-108ccb1cab86","","null","
                <div class=""stimulus-container"">
                    <img src=""images/causal_sequence/package_causal/package_causal_1.png"" class=""exp-image"">
                    <div class=""question-area""></div> 
                </div>","null","","","","","","","","",""
"","","","","","html-button-response","81","1063648","0.0-81.0","867328F2B21F4860BC9390E63EB2538A","019cf0cf-493f-7639-b2b7-9e94ed772133","019cf037-5203-781a-b900-108ccb1cab86","","2714","
                <div class=""stimulus-container"">
                    <img src=""images/causal_sequence/package_causal/package_causal_1.png"" class=""exp-image"">
                    <div class=""question-area"">
                        <p style=""font-size: 20px; font-weight: bold; margin: 0;"">Is there a person in this image?</p>
                    </div>
                </div>","0","main_experiment_trial","1","package_causal","causal_sequence","","","","",""
"","","","","","html-keyboard-response","82","1068651","0.0-82.0","867328F2B21F4860BC9390E63EB2538A","019cf0cf-493f-7639-b2b7-9e94ed772133","019cf037-5203-781a-b900-108ccb1cab86","","null","
                <div class=""stimulus-container"">
                    <img src=""images/causal_sequence/package_causal/package_causal_2.png"" class=""exp-image"">
                    <div class=""question-area""></div> 
                </div>","null","","","","","","","","",""
"","","","","","html-button-response","83","1071380","0.0-83.0","867328F2B21F4860BC9390E63EB2538A","019cf0cf-493f-7639-b2b7-9e94ed772133","019cf037-5203-781a-b900-108ccb1cab86","","2726","
                <div class=""stimulus-container"">
                    <img src=""images/causal_sequence/package_causal/package_causal_2.png"" class=""exp-image"">
                    <div class=""question-area"">
                        <p style=""font-size: 20px; font-weight: bold; margin: 0;"">Is there a person in this image?</p>
                    </div>
                </div>","0","main_experiment_trial","2","package_causal","causal_sequence","","","","",""
"","","","","","html-keyboard-response","84","1076383","0.0-84.0","867328F2B21F4860BC9390E63EB2538A","019cf0cf-493f-7639-b2b7-9e94ed772133","019cf037-5203-781a-b900-108ccb1cab86","","null","
                <div class=""stimulus-container"">
                    <img src=""images/causal_sequence/package_causal/package_causal_3.png"" class=""exp-image"">
                    <div class=""question-area""></div> 
                </div>","null","","","","","","","","",""
"","","","","","html-button-response","85","1077645","0.0-85.0","867328F2B21F4860BC9390E63EB2538A","019cf0cf-493f-7639-b2b7-9e94ed772133","019cf037-5203-781a-b900-108ccb1cab86","","1259","
                <div class=""stimulus-container"">
                    <img src=""images/causal_sequence/package_causal/package_causal_3.png"" class=""exp-image"">
                    <div class=""question-area"">
                        <p style=""font-size: 20px; font-weight: bold; margin: 0;"">Is there a person in this image?</p>
                    </div>
                </div>","0","main_experiment_trial","3","package_causal","causal_sequence","","","","",""
"","","","","","html-keyboard-response","86","1082647","0.0-86.0","867328F2B21F4860BC9390E63EB2538A","019cf0cf-493f-7639-b2b7-9e94ed772133","019cf037-5203-781a-b900-108ccb1cab86","","null","
                <div class=""stimulus-container"">
                    <img src=""images/causal_sequence/package_causal/package_causal_4.png"" class=""exp-image"">
                    <div class=""question-area""></div> 
                </div>","null","","","","","","","","",""
"","","","","","html-button-response","87","1085201","0.0-87.0","867328F2B21F4860BC9390E63EB2538A","019cf0cf-493f-7639-b2b7-9e94ed772133","019cf037-5203-781a-b900-108ccb1cab86","","2551","
                <div class=""stimulus-container"">
                    <img src=""images/causal_sequence/package_causal/package_causal_4.png"" class=""exp-image"">
                    <div class=""question-area"">
                        <p style=""font-size: 20px; font-weight: bold; margin: 0;"">Is there a person in this image?</p>
                    </div>
                </div>","1","main_experiment_trial","4","package_causal","causal_sequence","","","","",""
"","","","","","html-keyboard-response","88","1090202","0.0-88.0","867328F2B21F4860BC9390E63EB2538A","019cf0cf-493f-7639-b2b7-9e94ed772133","019cf037-5203-781a-b900-108ccb1cab86","","null","
                <div class=""stimulus-container"">
                    <img src=""images/causal_sequence/package_causal/package_causal_5.png"" class=""exp-image"">
                    <div class=""question-area""></div> 
                </div>","null","","","","","","","","",""
"","","","","","html-button-response","89","1091582","0.0-89.0","867328F2B21F4860BC9390E63EB2538A","019cf0cf-493f-7639-b2b7-9e94ed772133","019cf037-5203-781a-b900-108ccb1cab86","","1377","
                <div class=""stimulus-container"">
                    <img src=""images/causal_sequence/package_causal/package_causal_5.png"" class=""exp-image"">
                    <div class=""question-area"">
                        <p style=""font-size: 20px; font-weight: bold; margin: 0;"">Is there a person in this image?</p>
                    </div>
                </div>","0","main_experiment_trial","5","package_causal","causal_sequence","","","","",""
"","","","","","html-keyboard-response","90","1096584","0.0-90.0","867328F2B21F4860BC9390E63EB2538A","019cf0cf-493f-7639-b2b7-9e94ed772133","019cf037-5203-781a-b900-108ccb1cab86","","null","
                <div class=""stimulus-container"">
                    <img src=""images/causal_sequence/package_causal/package_causal_6.png"" class=""exp-image"">
                    <div class=""question-area""></div> 
                </div>","null","","","","","","","","",""
"","","","","","html-button-response","91","1098580","0.0-91.0","867328F2B21F4860BC9390E63EB2538A","019cf0cf-493f-7639-b2b7-9e94ed772133","019cf037-5203-781a-b900-108ccb1cab86","","1992","
                <div class=""stimulus-container"">
                    <img src=""images/causal_sequence/package_causal/package_causal_6.png"" class=""exp-image"">
                    <div class=""question-area"">
                        <p style=""font-size: 20px; font-weight: bold; margin: 0;"">Is there a person in this image?</p>
                    </div>
                </div>","0","main_experiment_trial","6","package_causal","causal_sequence","","","","",""
"","","","","","html-keyboard-response","92","1103583","0.0-92.0","867328F2B21F4860BC9390E63EB2538A","019cf0cf-493f-7639-b2b7-9e94ed772133","019cf037-5203-781a-b900-108ccb1cab86","","null","
                <div class=""stimulus-container"">
                    <img src=""images/causal_sequence/package_causal/package_causal_7.png"" class=""exp-image"">
                    <div class=""question-area""></div> 
                </div>","null","","","","","","","","",""
"","","","","","html-button-response","93","1105080","0.0-93.0","867328F2B21F4860BC9390E63EB2538A","019cf0cf-493f-7639-b2b7-9e94ed772133","019cf037-5203-781a-b900-108ccb1cab86","","1494","
                <div class=""stimulus-container"">
                    <img src=""images/causal_sequence/package_causal/package_causal_7.png"" class=""exp-image"">
                    <div class=""question-area"">
                        <p style=""font-size: 20px; font-weight: bold; margin: 0;"">Is there a person in this image?</p>
                    </div>
                </div>","0","main_experiment_trial","7","package_causal","causal_sequence","","","","",""
"","","","","","html-keyboard-response","94","1110081","0.0-94.0","867328F2B21F4860BC9390E63EB2538A","019cf0cf-493f-7639-b2b7-9e94ed772133","019cf037-5203-781a-b900-108ccb1cab86","","null","
                <div class=""stimulus-container"">
                    <img src=""images/causal_sequence/package_causal/package_causal_8.png"" class=""exp-image"">
                    <div class=""question-area""></div> 
                </div>","null","","","","","","","","",""
"","","","","","html-button-response","95","1111029","0.0-95.0","867328F2B21F4860BC9390E63EB2538A","019cf0cf-493f-7639-b2b7-9e94ed772133","019cf037-5203-781a-b900-108ccb1cab86","","945","
                <div class=""stimulus-container"">
                    <img src=""images/causal_sequence/package_causal/package_causal_8.png"" class=""exp-image"">
                    <div class=""question-area"">
                        <p style=""font-size: 20px; font-weight: bold; margin: 0;"">Is there a person in this image?</p>
                    </div>
                </div>","0","main_experiment_trial","8","package_causal","causal_sequence","","","","",""
"","","","","","html-keyboard-response","96","1116032","0.0-96.0","867328F2B21F4860BC9390E63EB2538A","019cf0cf-493f-7639-b2b7-9e94ed772133","019cf037-5203-781a-b900-108ccb1cab86","","null","
                <div class=""stimulus-container"">
                    <img src=""images/causal_sequence/package_causal/package_causal_9.png"" class=""exp-image"">
                    <div class=""question-area""></div> 
                </div>","null","","","","","","","","",""
"","","","","","html-button-response","97","1117238","0.0-97.0","867328F2B21F4860BC9390E63EB2538A","019cf0cf-493f-7639-b2b7-9e94ed772133","019cf037-5203-781a-b900-108ccb1cab86","","1203","
                <div class=""stimulus-container"">
                    <img src=""images/causal_sequence/package_causal/package_causal_9.png"" class=""exp-image"">
                    <div class=""question-area"">
                        <p style=""font-size: 20px; font-weight: bold; margin: 0;"">Is there a person in this image?</p>
                    </div>
                </div>","0","main_experiment_trial","9","package_causal","causal_sequence","","","","",""
"","","","","","html-keyboard-response","98","1122241","0.0-98.0","867328F2B21F4860BC9390E63EB2538A","019cf0cf-493f-7639-b2b7-9e94ed772133","019cf037-5203-781a-b900-108ccb1cab86","","null","
                <div class=""stimulus-container"">
                    <img src=""images/causal_sequence/package_causal/package_causal_ten.png"" class=""exp-image"">
                    <div class=""question-area""></div> 
                </div>","null","","","","","","","","",""
"","","","","","html-button-response","99","1122955","0.0-99.0","867328F2B21F4860BC9390E63EB2538A","019cf0cf-493f-7639-b2b7-9e94ed772133","019cf037-5203-781a-b900-108ccb1cab86","","713","
                <div class=""stimulus-container"">
                    <img src=""images/causal_sequence/package_causal/package_causal_ten.png"" class=""exp-image"">
                    <div class=""question-area"">
                        <p style=""font-size: 20px; font-weight: bold; margin: 0;"">Is there a person in this image?</p>
                    </div>
                </div>","0","main_experiment_trial","ten","package_causal","causal_sequence","","","","",""
"","","","","","html-keyboard-response","100","1123957","0.0-100.0","867328F2B21F4860BC9390E63EB2538A","019cf0cf-493f-7639-b2b7-9e94ed772133","019cf037-5203-781a-b900-108ccb1cab86","","null","<div style=""background-color: white; width: 100vw; height: 100vh;""></div>","null","","","","","","","","",""
"","","","","","html-keyboard-response","101","1128959","0.0-101.0","867328F2B21F4860BC9390E63EB2538A","019cf0cf-493f-7639-b2b7-9e94ed772133","019cf037-5203-781a-b900-108ccb1cab86","","null","
                <div class=""stimulus-container"">
                    <img src=""images/schematic_sequence/hotel_scheme/hotel_scheme_1.png"" class=""exp-image"">
                    <div class=""question-area""></div> 
                </div>","null","","","","","","","","",""
"","","","","","html-button-response","102","1130036","0.0-102.0","867328F2B21F4860BC9390E63EB2538A","019cf0cf-493f-7639-b2b7-9e94ed772133","019cf037-5203-781a-b900-108ccb1cab86","","1074","
                <div class=""stimulus-container"">
                    <img src=""images/schematic_sequence/hotel_scheme/hotel_scheme_1.png"" class=""exp-image"">
                    <div class=""question-area"">
                        <p style=""font-size: 20px; font-weight: bold; margin: 0;"">Is there a person in this image?</p>
                    </div>
                </div>","1","main_experiment_trial","1","hotel_scheme","schematic_sequence","","","","",""
"","","","","","html-keyboard-response","103","1135039","0.0-103.0","867328F2B21F4860BC9390E63EB2538A","019cf0cf-493f-7639-b2b7-9e94ed772133","019cf037-5203-781a-b900-108ccb1cab86","","null","
                <div class=""stimulus-container"">
                    <img src=""images/schematic_sequence/hotel_scheme/hotel_scheme_2.png"" class=""exp-image"">
                    <div class=""question-area""></div> 
                </div>","null","","","","","","","","",""
"","","","","","html-button-response","104","1135965","0.0-104.0","867328F2B21F4860BC9390E63EB2538A","019cf0cf-493f-7639-b2b7-9e94ed772133","019cf037-5203-781a-b900-108ccb1cab86","","922","
                <div class=""stimulus-container"">
                    <img src=""images/schematic_sequence/hotel_scheme/hotel_scheme_2.png"" class=""exp-image"">
                    <div class=""question-area"">
                        <p style=""font-size: 20px; font-weight: bold; margin: 0;"">Is there a person in this image?</p>
                    </div>
                </div>","0","main_experiment_trial","2","hotel_scheme","schematic_sequence","","","","",""
"","","","","","html-keyboard-response","105","1140968","0.0-105.0","867328F2B21F4860BC9390E63EB2538A","019cf0cf-493f-7639-b2b7-9e94ed772133","019cf037-5203-781a-b900-108ccb1cab86","","null","
                <div class=""stimulus-container"">
                    <img src=""images/schematic_sequence/hotel_scheme/hotel_scheme_3.png"" class=""exp-image"">
                    <div class=""question-area""></div> 
                </div>","null","","","","","","","","",""
"","","","","","html-button-response","106","1141864","0.0-106.0","867328F2B21F4860BC9390E63EB2538A","019cf0cf-493f-7639-b2b7-9e94ed772133","019cf037-5203-781a-b900-108ccb1cab86","","892","
                <div class=""stimulus-container"">
                    <img src=""images/schematic_sequence/hotel_scheme/hotel_scheme_3.png"" class=""exp-image"">
                    <div class=""question-area"">
                        <p style=""font-size: 20px; font-weight: bold; margin: 0;"">Is there a person in this image?</p>
                    </div>
                </div>","0","main_experiment_trial","3","hotel_scheme","schematic_sequence","","","","",""
"","","","","","html-keyboard-response","107","1146866","0.0-107.0","867328F2B21F4860BC9390E63EB2538A","019cf0cf-493f-7639-b2b7-9e94ed772133","019cf037-5203-781a-b900-108ccb1cab86","","null","
                <div class=""stimulus-container"">
                    <img src=""images/schematic_sequence/hotel_scheme/hotel_scheme_4.png"" class=""exp-image"">
                    <div class=""question-area""></div> 
                </div>","null","","","","","","","","",""
"","","","","","html-button-response","108","1147766","0.0-108.0","867328F2B21F4860BC9390E63EB2538A","019cf0cf-493f-7639-b2b7-9e94ed772133","019cf037-5203-781a-b900-108ccb1cab86","","898","
                <div class=""stimulus-container"">
                    <img src=""images/schematic_sequence/hotel_scheme/hotel_scheme_4.png"" class=""exp-image"">
                    <div class=""question-area"">
                        <p style=""font-size: 20px; font-weight: bold; margin: 0;"">Is there a person in this image?</p>
                    </div>
                </div>","1","main_experiment_trial","4","hotel_scheme","schematic_sequence","","","","",""
"","","","","","html-keyboard-response","109","1152768","0.0-109.0","867328F2B21F4860BC9390E63EB2538A","019cf0cf-493f-7639-b2b7-9e94ed772133","019cf037-5203-781a-b900-108ccb1cab86","","null","
                <div class=""stimulus-container"">
                    <img src=""images/schematic_sequence/hotel_scheme/hotel_scheme_5.png"" class=""exp-image"">
                    <div class=""question-area""></div> 
                </div>","null","","","","","","","","",""
"","","","","","html-button-response","110","1155771","0.0-110.0","867328F2B21F4860BC9390E63EB2538A","019cf0cf-493f-7639-b2b7-9e94ed772133","019cf037-5203-781a-b900-108ccb1cab86","","null","
                <div class=""stimulus-container"">
                    <img src=""images/schematic_sequence/hotel_scheme/hotel_scheme_5.png"" class=""exp-image"">
                    <div class=""question-area"">
                        <p style=""font-size: 20px; font-weight: bold; margin: 0;"">Is there a person in this image?</p>
                    </div>
                </div>","null","main_experiment_trial","5","hotel_scheme","schematic_sequence","","","","",""
"","","","","","html-keyboard-response","111","1160773","0.0-111.0","867328F2B21F4860BC9390E63EB2538A","019cf0cf-493f-7639-b2b7-9e94ed772133","019cf037-5203-781a-b900-108ccb1cab86","","null","
                <div class=""stimulus-container"">
                    <img src=""images/schematic_sequence/hotel_scheme/hotel_scheme_6.png"" class=""exp-image"">
                    <div class=""question-area""></div> 
                </div>","null","","","","","","","","",""
"","","","","","html-button-response","112","1161874","0.0-112.0","867328F2B21F4860BC9390E63EB2538A","019cf0cf-493f-7639-b2b7-9e94ed772133","019cf037-5203-781a-b900-108ccb1cab86","","1097","
                <div class=""stimulus-container"">
                    <img src=""images/schematic_sequence/hotel_scheme/hotel_scheme_6.png"" class=""exp-image"">
                    <div class=""question-area"">
                        <p style=""font-size: 20px; font-weight: bold; margin: 0;"">Is there a person in this image?</p>
                    </div>
                </div>","0","main_experiment_trial","6","hotel_scheme","schematic_sequence","","","","",""
"","","","","","html-keyboard-response","113","1166876","0.0-113.0","867328F2B21F4860BC9390E63EB2538A","019cf0cf-493f-7639-b2b7-9e94ed772133","019cf037-5203-781a-b900-108ccb1cab86","","null","
                <div class=""stimulus-container"">
                    <img src=""images/schematic_sequence/hotel_scheme/hotel_scheme_7.png"" class=""exp-image"">
                    <div class=""question-area""></div> 
                </div>","null","","","","","","","","",""
"","","","","","html-button-response","114","1167725","0.0-114.0","867328F2B21F4860BC9390E63EB2538A","019cf0cf-493f-7639-b2b7-9e94ed772133","019cf037-5203-781a-b900-108ccb1cab86","","846","
                <div class=""stimulus-container"">
                    <img src=""images/schematic_sequence/hotel_scheme/hotel_scheme_7.png"" class=""exp-image"">
                    <div class=""question-area"">
                        <p style=""font-size: 20px; font-weight: bold; margin: 0;"">Is there a person in this image?</p>
                    </div>
                </div>","0","main_experiment_trial","7","hotel_scheme","schematic_sequence","","","","",""
"","","","","","html-keyboard-response","115","1172729","0.0-115.0","867328F2B21F4860BC9390E63EB2538A","019cf0cf-493f-7639-b2b7-9e94ed772133","019cf037-5203-781a-b900-108ccb1cab86","","null","
                <div class=""stimulus-container"">
                    <img src=""images/schematic_sequence/hotel_scheme/hotel_scheme_8.png"" class=""exp-image"">
                    <div class=""question-area""></div> 
                </div>","null","","","","","","","","",""
"","","","","","html-button-response","116","1173781","0.0-116.0","867328F2B21F4860BC9390E63EB2538A","019cf0cf-493f-7639-b2b7-9e94ed772133","019cf037-5203-781a-b900-108ccb1cab86","","1050","
                <div class=""stimulus-container"">
                    <img src=""images/schematic_sequence/hotel_scheme/hotel_scheme_8.png"" class=""exp-image"">
                    <div class=""question-area"">
                        <p style=""font-size: 20px; font-weight: bold; margin: 0;"">Is there a person in this image?</p>
                    </div>
                </div>","0","main_experiment_trial","8","hotel_scheme","schematic_sequence","","","","",""
"","","","","","html-keyboard-response","117","1178784","0.0-117.0","867328F2B21F4860BC9390E63EB2538A","019cf0cf-493f-7639-b2b7-9e94ed772133","019cf037-5203-781a-b900-108ccb1cab86","","null","
                <div class=""stimulus-container"">
                    <img src=""images/schematic_sequence/hotel_scheme/hotel_scheme_9.png"" class=""exp-image"">
                    <div class=""question-area""></div> 
                </div>","null","","","","","","","","",""
"","","","","","html-button-response","118","1180348","0.0-118.0","867328F2B21F4860BC9390E63EB2538A","019cf0cf-493f-7639-b2b7-9e94ed772133","019cf037-5203-781a-b900-108ccb1cab86","","1561","
                <div class=""stimulus-container"">
                    <img src=""images/schematic_sequence/hotel_scheme/hotel_scheme_9.png"" class=""exp-image"">
                    <div class=""question-area"">
                        <p style=""font-size: 20px; font-weight: bold; margin: 0;"">Is there a person in this image?</p>
                    </div>
                </div>","0","main_experiment_trial","9","hotel_scheme","schematic_sequence","","","","",""
"","","","","","html-keyboard-response","119","1185352","0.0-119.0","867328F2B21F4860BC9390E63EB2538A","019cf0cf-493f-7639-b2b7-9e94ed772133","019cf037-5203-781a-b900-108ccb1cab86","","null","
                <div class=""stimulus-container"">
                    <img src=""images/schematic_sequence/hotel_scheme/hotel_scheme_ten.png"" class=""exp-image"">
                    <div class=""question-area""></div> 
                </div>","null","","","","","","","","",""
"","","","","","html-button-response","120","1186357","0.0-120.0","867328F2B21F4860BC9390E63EB2538A","019cf0cf-493f-7639-b2b7-9e94ed772133","019cf037-5203-781a-b900-108ccb1cab86","","1001","
                <div class=""stimulus-container"">
                    <img src=""images/schematic_sequence/hotel_scheme/hotel_scheme_ten.png"" class=""exp-image"">
                    <div class=""question-area"">
                        <p style=""font-size: 20px; font-weight: bold; margin: 0;"">Is there a person in this image?</p>
                    </div>
                </div>","0","main_experiment_trial","ten","hotel_scheme","schematic_sequence","","","","",""
"","","","","","html-keyboard-response","121","1187360","0.0-121.0","867328F2B21F4860BC9390E63EB2538A","019cf0cf-493f-7639-b2b7-9e94ed772133","019cf037-5203-781a-b900-108ccb1cab86","","null","<div style=""background-color: white; width: 100vw; height: 100vh;""></div>","null","","","","","","","","",""
"","","","","","html-keyboard-response","122","1192362","0.0-122.0","867328F2B21F4860BC9390E63EB2538A","019cf0cf-493f-7639-b2b7-9e94ed772133","019cf037-5203-781a-b900-108ccb1cab86","","null","
                <div class=""stimulus-container"">
                    <img src=""images/causal_sequence/coin_causal/coin_causal_1.png"" class=""exp-image"">
                    <div class=""question-area""></div> 
                </div>","null","","","","","","","","",""
"","","","","","html-button-response","123","1193952","0.0-123.0","867328F2B21F4860BC9390E63EB2538A","019cf0cf-493f-7639-b2b7-9e94ed772133","019cf037-5203-781a-b900-108ccb1cab86","","1587","
                <div class=""stimulus-container"">
                    <img src=""images/causal_sequence/coin_causal/coin_causal_1.png"" class=""exp-image"">
                    <div class=""question-area"">
                        <p style=""font-size: 20px; font-weight: bold; margin: 0;"">Is there a person in this image?</p>
                    </div>
                </div>","0","main_experiment_trial","1","coin_causal","causal_sequence","","","","",""
"","","","","","html-keyboard-response","124","1198955","0.0-124.0","867328F2B21F4860BC9390E63EB2538A","019cf0cf-493f-7639-b2b7-9e94ed772133","019cf037-5203-781a-b900-108ccb1cab86","","null","
                <div class=""stimulus-container"">
                    <img src=""images/causal_sequence/coin_causal/coin_causal_2.png"" class=""exp-image"">
                    <div class=""question-area""></div> 
                </div>","null","","","","","","","","",""
"","","","","","html-button-response","125","1200583","0.0-125.0","867328F2B21F4860BC9390E63EB2538A","019cf0cf-493f-7639-b2b7-9e94ed772133","019cf037-5203-781a-b900-108ccb1cab86","","1624","
                <div class=""stimulus-container"">
                    <img src=""images/causal_sequence/coin_causal/coin_causal_2.png"" class=""exp-image"">
                    <div class=""question-area"">
                        <p style=""font-size: 20px; font-weight: bold; margin: 0;"">Is there a person in this image?</p>
                    </div>
                </div>","0","main_experiment_trial","2","coin_causal","causal_sequence","","","","",""
"","","","","","html-keyboard-response","126","1205586","0.0-126.0","867328F2B21F4860BC9390E63EB2538A","019cf0cf-493f-7639-b2b7-9e94ed772133","019cf037-5203-781a-b900-108ccb1cab86","","null","
                <div class=""stimulus-container"">
                    <img src=""images/causal_sequence/coin_causal/coin_causal_3.png"" class=""exp-image"">
                    <div class=""question-area""></div> 
                </div>","null","","","","","","","","",""
"","","","","","html-button-response","127","1208590","0.0-127.0","867328F2B21F4860BC9390E63EB2538A","019cf0cf-493f-7639-b2b7-9e94ed772133","019cf037-5203-781a-b900-108ccb1cab86","","null","
                <div class=""stimulus-container"">
                    <img src=""images/causal_sequence/coin_causal/coin_causal_3.png"" class=""exp-image"">
                    <div class=""question-area"">
                        <p style=""font-size: 20px; font-weight: bold; margin: 0;"">Is there a person in this image?</p>
                    </div>
                </div>","null","main_experiment_trial","3","coin_causal","causal_sequence","","","","",""
"","","","","","html-keyboard-response","128","1213600","0.0-128.0","867328F2B21F4860BC9390E63EB2538A","019cf0cf-493f-7639-b2b7-9e94ed772133","019cf037-5203-781a-b900-108ccb1cab86","","null","
                <div class=""stimulus-container"">
                    <img src=""images/causal_sequence/coin_causal/coin_causal_4.png"" class=""exp-image"">
                    <div class=""question-area""></div> 
                </div>","null","","","","","","","","",""
"","","","","","html-button-response","129","1215060","0.0-129.0","867328F2B21F4860BC9390E63EB2538A","019cf0cf-493f-7639-b2b7-9e94ed772133","019cf037-5203-781a-b900-108ccb1cab86","","1457","
                <div class=""stimulus-container"">
                    <img src=""images/causal_sequence/coin_causal/coin_causal_4.png"" class=""exp-image"">
                    <div class=""question-area"">
                        <p style=""font-size: 20px; font-weight: bold; margin: 0;"">Is there a person in this image?</p>
                    </div>
                </div>","0","main_experiment_trial","4","coin_causal","causal_sequence","","","","",""
"","","","","","html-keyboard-response","130","1220062","0.0-130.0","867328F2B21F4860BC9390E63EB2538A","019cf0cf-493f-7639-b2b7-9e94ed772133","019cf037-5203-781a-b900-108ccb1cab86","","null","
                <div class=""stimulus-container"">
                    <img src=""images/causal_sequence/coin_causal/coin_causal_5.png"" class=""exp-image"">
                    <div class=""question-area""></div> 
                </div>","null","","","","","","","","",""
"","","","","","html-button-response","131","1221285","0.0-131.0","867328F2B21F4860BC9390E63EB2538A","019cf0cf-493f-7639-b2b7-9e94ed772133","019cf037-5203-781a-b900-108ccb1cab86","","1219","
                <div class=""stimulus-container"">
                    <img src=""images/causal_sequence/coin_causal/coin_causal_5.png"" class=""exp-image"">
                    <div class=""question-area"">
                        <p style=""font-size: 20px; font-weight: bold; margin: 0;"">Is there a person in this image?</p>
                    </div>
                </div>","0","main_experiment_trial","5","coin_causal","causal_sequence","","","","",""
"","","","","","html-keyboard-response","132","1226288","0.0-132.0","867328F2B21F4860BC9390E63EB2538A","019cf0cf-493f-7639-b2b7-9e94ed772133","019cf037-5203-781a-b900-108ccb1cab86","","null","
                <div class=""stimulus-container"">
                    <img src=""images/causal_sequence/coin_causal/coin_causal_6.png"" class=""exp-image"">
                    <div class=""question-area""></div> 
                </div>","null","","","","","","","","",""
"","","","","","html-button-response","133","1227127","0.0-133.0","867328F2B21F4860BC9390E63EB2538A","019cf0cf-493f-7639-b2b7-9e94ed772133","019cf037-5203-781a-b900-108ccb1cab86","","836","
                <div class=""stimulus-container"">
                    <img src=""images/causal_sequence/coin_causal/coin_causal_6.png"" class=""exp-image"">
                    <div class=""question-area"">
                        <p style=""font-size: 20px; font-weight: bold; margin: 0;"">Is there a person in this image?</p>
                    </div>
                </div>","0","main_experiment_trial","6","coin_causal","causal_sequence","","","","",""
"","","","","","html-keyboard-response","134","1232130","0.0-134.0","867328F2B21F4860BC9390E63EB2538A","019cf0cf-493f-7639-b2b7-9e94ed772133","019cf037-5203-781a-b900-108ccb1cab86","","null","
                <div class=""stimulus-container"">
                    <img src=""images/causal_sequence/coin_causal/coin_causal_7.png"" class=""exp-image"">
                    <div class=""question-area""></div> 
                </div>","null","","","","","","","","",""
"","","","","","html-button-response","135","1234601","0.0-135.0","867328F2B21F4860BC9390E63EB2538A","019cf0cf-493f-7639-b2b7-9e94ed772133","019cf037-5203-781a-b900-108ccb1cab86","","2467","
                <div class=""stimulus-container"">
                    <img src=""images/causal_sequence/coin_causal/coin_causal_7.png"" class=""exp-image"">
                    <div class=""question-area"">
                        <p style=""font-size: 20px; font-weight: bold; margin: 0;"">Is there a person in this image?</p>
                    </div>
                </div>","1","main_experiment_trial","7","coin_causal","causal_sequence","","","","",""
"","","","","","html-keyboard-response","136","1239604","0.0-136.0","867328F2B21F4860BC9390E63EB2538A","019cf0cf-493f-7639-b2b7-9e94ed772133","019cf037-5203-781a-b900-108ccb1cab86","","null","
                <div class=""stimulus-container"">
                    <img src=""images/causal_sequence/coin_causal/coin_causal_8.png"" class=""exp-image"">
                    <div class=""question-area""></div> 
                </div>","null","","","","","","","","",""
"","","","","","html-button-response","137","1240746","0.0-137.0","867328F2B21F4860BC9390E63EB2538A","019cf0cf-493f-7639-b2b7-9e94ed772133","019cf037-5203-781a-b900-108ccb1cab86","","1139","
                <div class=""stimulus-container"">
                    <img src=""images/causal_sequence/coin_causal/coin_causal_8.png"" class=""exp-image"">
                    <div class=""question-area"">
                        <p style=""font-size: 20px; font-weight: bold; margin: 0;"">Is there a person in this image?</p>
                    </div>
                </div>","0","main_experiment_trial","8","coin_causal","causal_sequence","","","","",""
"","","","","","html-keyboard-response","138","1245749","0.0-138.0","867328F2B21F4860BC9390E63EB2538A","019cf0cf-493f-7639-b2b7-9e94ed772133","019cf037-5203-781a-b900-108ccb1cab86","","null","
                <div class=""stimulus-container"">
                    <img src=""images/causal_sequence/coin_causal/coin_causal_9.png"" class=""exp-image"">
                    <div class=""question-area""></div> 
                </div>","null","","","","","","","","",""
"","","","","","html-button-response","139","1248332","0.0-139.0","867328F2B21F4860BC9390E63EB2538A","019cf0cf-493f-7639-b2b7-9e94ed772133","019cf037-5203-781a-b900-108ccb1cab86","","2581","
                <div class=""stimulus-container"">
                    <img src=""images/causal_sequence/coin_causal/coin_causal_9.png"" class=""exp-image"">
                    <div class=""question-area"">
                        <p style=""font-size: 20px; font-weight: bold; margin: 0;"">Is there a person in this image?</p>
                    </div>
                </div>","0","main_experiment_trial","9","coin_causal","causal_sequence","","","","",""
"","","","","","html-keyboard-response","140","1253334","0.0-140.0","867328F2B21F4860BC9390E63EB2538A","019cf0cf-493f-7639-b2b7-9e94ed772133","019cf037-5203-781a-b900-108ccb1cab86","","null","
                <div class=""stimulus-container"">
                    <img src=""images/causal_sequence/coin_causal/coin_causal_ten.png"" class=""exp-image"">
                    <div class=""question-area""></div> 
                </div>","null","","","","","","","","",""
"","","","","","html-button-response","141","1254147","0.0-141.0","867328F2B21F4860BC9390E63EB2538A","019cf0cf-493f-7639-b2b7-9e94ed772133","019cf037-5203-781a-b900-108ccb1cab86","","810","
                <div class=""stimulus-container"">
                    <img src=""images/causal_sequence/coin_causal/coin_causal_ten.png"" class=""exp-image"">
                    <div class=""question-area"">
                        <p style=""font-size: 20px; font-weight: bold; margin: 0;"">Is there a person in this image?</p>
                    </div>
                </div>","0","main_experiment_trial","ten","coin_causal","causal_sequence","","","","",""
"","","","","","html-keyboard-response","142","1255149","0.0-142.0","867328F2B21F4860BC9390E63EB2538A","019cf0cf-493f-7639-b2b7-9e94ed772133","019cf037-5203-781a-b900-108ccb1cab86","","null","<div style=""background-color: white; width: 100vw; height: 100vh;""></div>","null","","","","","","","","",""
"","","","","","html-keyboard-response","143","1260152","0.0-143.0","867328F2B21F4860BC9390E63EB2538A","019cf0cf-493f-7639-b2b7-9e94ed772133","019cf037-5203-781a-b900-108ccb1cab86","","null","
                <div class=""stimulus-container"">
                    <img src=""images/causal_sequence/saving_a_cat_causal/saving_a_cat_causal_1.png"" class=""exp-image"">
                    <div class=""question-area""></div> 
                </div>","null","","","","","","","","",""
"","","","","","html-button-response","144","1261136","0.0-144.0","867328F2B21F4860BC9390E63EB2538A","019cf0cf-493f-7639-b2b7-9e94ed772133","019cf037-5203-781a-b900-108ccb1cab86","","980","
                <div class=""stimulus-container"">
                    <img src=""images/causal_sequence/saving_a_cat_causal/saving_a_cat_causal_1.png"" class=""exp-image"">
                    <div class=""question-area"">
                        <p style=""font-size: 20px; font-weight: bold; margin: 0;"">Is there a person in this image?</p>
                    </div>
                </div>","0","main_experiment_trial","1","saving_a_cat_causal","causal_sequence","","","","",""
"","","","","","html-keyboard-response","145","1266138","0.0-145.0","867328F2B21F4860BC9390E63EB2538A","019cf0cf-493f-7639-b2b7-9e94ed772133","019cf037-5203-781a-b900-108ccb1cab86","","null","
                <div class=""stimulus-container"">
                    <img src=""images/causal_sequence/saving_a_cat_causal/saving_a_cat_causal_2.png"" class=""exp-image"">
                    <div class=""question-area""></div> 
                </div>","null","","","","","","","","",""
"","","","","","html-button-response","146","1268768","0.0-146.0","867328F2B21F4860BC9390E63EB2538A","019cf0cf-493f-7639-b2b7-9e94ed772133","019cf037-5203-781a-b900-108ccb1cab86","","2626","
                <div class=""stimulus-container"">
                    <img src=""images/causal_sequence/saving_a_cat_causal/saving_a_cat_causal_2.png"" class=""exp-image"">
                    <div class=""question-area"">
                        <p style=""font-size: 20px; font-weight: bold; margin: 0;"">Is there a person in this image?</p>
                    </div>
                </div>","1","main_experiment_trial","2","saving_a_cat_causal","causal_sequence","","","","",""
"","","","","","html-keyboard-response","147","1273771","0.0-147.0","867328F2B21F4860BC9390E63EB2538A","019cf0cf-493f-7639-b2b7-9e94ed772133","019cf037-5203-781a-b900-108ccb1cab86","","null","
                <div class=""stimulus-container"">
                    <img src=""images/causal_sequence/saving_a_cat_causal/saving_a_cat_causal_3.png"" class=""exp-image"">
                    <div class=""question-area""></div> 
                </div>","null","","","","","","","","",""
"","","","","","html-button-response","148","1274765","0.0-148.0","867328F2B21F4860BC9390E63EB2538A","019cf0cf-493f-7639-b2b7-9e94ed772133","019cf037-5203-781a-b900-108ccb1cab86","","992","
                <div class=""stimulus-container"">
                    <img src=""images/causal_sequence/saving_a_cat_causal/saving_a_cat_causal_3.png"" class=""exp-image"">
                    <div class=""question-area"">
                        <p style=""font-size: 20px; font-weight: bold; margin: 0;"">Is there a person in this image?</p>
                    </div>
                </div>","1","main_experiment_trial","3","saving_a_cat_causal","causal_sequence","","","","",""
"","","","","","html-keyboard-response","149","1279767","0.0-149.0","867328F2B21F4860BC9390E63EB2538A","019cf0cf-493f-7639-b2b7-9e94ed772133","019cf037-5203-781a-b900-108ccb1cab86","","null","
                <div class=""stimulus-container"">
                    <img src=""images/causal_sequence/saving_a_cat_causal/saving_a_cat_causal_4.png"" class=""exp-image"">
                    <div class=""question-area""></div> 
                </div>","null","","","","","","","","",""
"","","","","","html-button-response","150","1280550","0.0-150.0","867328F2B21F4860BC9390E63EB2538A","019cf0cf-493f-7639-b2b7-9e94ed772133","019cf037-5203-781a-b900-108ccb1cab86","","781","
                <div class=""stimulus-container"">
                    <img src=""images/causal_sequence/saving_a_cat_causal/saving_a_cat_causal_4.png"" class=""exp-image"">
                    <div class=""question-area"">
                        <p style=""font-size: 20px; font-weight: bold; margin: 0;"">Is there a person in this image?</p>
                    </div>
                </div>","0","main_experiment_trial","4","saving_a_cat_causal","causal_sequence","","","","",""
"","","","","","html-keyboard-response","151","1285553","0.0-151.0","867328F2B21F4860BC9390E63EB2538A","019cf0cf-493f-7639-b2b7-9e94ed772133","019cf037-5203-781a-b900-108ccb1cab86","","null","
                <div class=""stimulus-container"">
                    <img src=""images/causal_sequence/saving_a_cat_causal/saving_a_cat_causal_5.png"" class=""exp-image"">
                    <div class=""question-area""></div> 
                </div>","null","","","","","","","","",""
"","","","","","html-button-response","152","1286609","0.0-152.0","867328F2B21F4860BC9390E63EB2538A","019cf0cf-493f-7639-b2b7-9e94ed772133","019cf037-5203-781a-b900-108ccb1cab86","","1055","
                <div class=""stimulus-container"">
                    <img src=""images/causal_sequence/saving_a_cat_causal/saving_a_cat_causal_5.png"" class=""exp-image"">
                    <div class=""question-area"">
                        <p style=""font-size: 20px; font-weight: bold; margin: 0;"">Is there a person in this image?</p>
                    </div>
                </div>","0","main_experiment_trial","5","saving_a_cat_causal","causal_sequence","","","","",""
"","","","","","html-keyboard-response","153","1291611","0.0-153.0","867328F2B21F4860BC9390E63EB2538A","019cf0cf-493f-7639-b2b7-9e94ed772133","019cf037-5203-781a-b900-108ccb1cab86","","null","
                <div class=""stimulus-container"">
                    <img src=""images/causal_sequence/saving_a_cat_causal/saving_a_cat_causal_6.png"" class=""exp-image"">
                    <div class=""question-area""></div> 
                </div>","null","","","","","","","","",""
"","","","","","html-button-response","154","1292908","0.0-154.0","867328F2B21F4860BC9390E63EB2538A","019cf0cf-493f-7639-b2b7-9e94ed772133","019cf037-5203-781a-b900-108ccb1cab86","","1293","
                <div class=""stimulus-container"">
                    <img src=""images/causal_sequence/saving_a_cat_causal/saving_a_cat_causal_6.png"" class=""exp-image"">
                    <div class=""question-area"">
                        <p style=""font-size: 20px; font-weight: bold; margin: 0;"">Is there a person in this image?</p>
                    </div>
                </div>","0","main_experiment_trial","6","saving_a_cat_causal","causal_sequence","","","","",""
"","","","","","html-keyboard-response","155","1297910","0.0-155.0","867328F2B21F4860BC9390E63EB2538A","019cf0cf-493f-7639-b2b7-9e94ed772133","019cf037-5203-781a-b900-108ccb1cab86","","null","
                <div class=""stimulus-container"">
                    <img src=""images/causal_sequence/saving_a_cat_causal/saving_a_cat_causal_7.png"" class=""exp-image"">
                    <div class=""question-area""></div> 
                </div>","null","","","","","","","","",""
"","","","","","html-button-response","156","1298792","0.0-156.0","867328F2B21F4860BC9390E63EB2538A","019cf0cf-493f-7639-b2b7-9e94ed772133","019cf037-5203-781a-b900-108ccb1cab86","","879","
                <div class=""stimulus-container"">
                    <img src=""images/causal_sequence/saving_a_cat_causal/saving_a_cat_causal_7.png"" class=""exp-image"">
                    <div class=""question-area"">
                        <p style=""font-size: 20px; font-weight: bold; margin: 0;"">Is there a person in this image?</p>
                    </div>
                </div>","0","main_experiment_trial","7","saving_a_cat_causal","causal_sequence","","","","",""
"","","","","","html-keyboard-response","157","1303795","0.0-157.0","867328F2B21F4860BC9390E63EB2538A","019cf0cf-493f-7639-b2b7-9e94ed772133","019cf037-5203-781a-b900-108ccb1cab86","","null","
                <div class=""stimulus-container"">
                    <img src=""images/causal_sequence/saving_a_cat_causal/saving_a_cat_causal_8.png"" class=""exp-image"">
                    <div class=""question-area""></div> 
                </div>","null","","","","","","","","",""
"","","","","","html-button-response","158","1304545","0.0-158.0","867328F2B21F4860BC9390E63EB2538A","019cf0cf-493f-7639-b2b7-9e94ed772133","019cf037-5203-781a-b900-108ccb1cab86","","747","
                <div class=""stimulus-container"">
                    <img src=""images/causal_sequence/saving_a_cat_causal/saving_a_cat_causal_8.png"" class=""exp-image"">
                    <div class=""question-area"">
                        <p style=""font-size: 20px; font-weight: bold; margin: 0;"">Is there a person in this image?</p>
                    </div>
                </div>","0","main_experiment_trial","8","saving_a_cat_causal","causal_sequence","","","","",""
"","","","","","html-keyboard-response","159","1309547","0.0-159.0","867328F2B21F4860BC9390E63EB2538A","019cf0cf-493f-7639-b2b7-9e94ed772133","019cf037-5203-781a-b900-108ccb1cab86","","null","
                <div class=""stimulus-container"">
                    <img src=""images/causal_sequence/saving_a_cat_causal/saving_a_cat_causal_9.png"" class=""exp-image"">
                    <div class=""question-area""></div> 
                </div>","null","","","","","","","","",""
"","","","","","html-button-response","160","1311311","0.0-160.0","867328F2B21F4860BC9390E63EB2538A","019cf0cf-493f-7639-b2b7-9e94ed772133","019cf037-5203-781a-b900-108ccb1cab86","","1760","
                <div class=""stimulus-container"">
                    <img src=""images/causal_sequence/saving_a_cat_causal/saving_a_cat_causal_9.png"" class=""exp-image"">
                    <div class=""question-area"">
                        <p style=""font-size: 20px; font-weight: bold; margin: 0;"">Is there a person in this image?</p>
                    </div>
                </div>","0","main_experiment_trial","9","saving_a_cat_causal","causal_sequence","","","","",""
"","","","","","html-keyboard-response","161","1316313","0.0-161.0","867328F2B21F4860BC9390E63EB2538A","019cf0cf-493f-7639-b2b7-9e94ed772133","019cf037-5203-781a-b900-108ccb1cab86","","null","
                <div class=""stimulus-container"">
                    <img src=""images/causal_sequence/saving_a_cat_causal/saving_a_cat_causal_ten.png"" class=""exp-image"">
                    <div class=""question-area""></div> 
                </div>","null","","","","","","","","",""
"","","","","","html-button-response","162","1317051","0.0-162.0","867328F2B21F4860BC9390E63EB2538A","019cf0cf-493f-7639-b2b7-9e94ed772133","019cf037-5203-781a-b900-108ccb1cab86","","734","
                <div class=""stimulus-container"">
                    <img src=""images/causal_sequence/saving_a_cat_causal/saving_a_cat_causal_ten.png"" class=""exp-image"">
                    <div class=""question-area"">
                        <p style=""font-size: 20px; font-weight: bold; margin: 0;"">Is there a person in this image?</p>
                    </div>
                </div>","0","main_experiment_trial","ten","saving_a_cat_causal","causal_sequence","","","","",""
"","","","","","html-keyboard-response","163","1318054","0.0-163.0","867328F2B21F4860BC9390E63EB2538A","019cf0cf-493f-7639-b2b7-9e94ed772133","019cf037-5203-781a-b900-108ccb1cab86","","null","<div style=""background-color: white; width: 100vw; height: 100vh;""></div>","null","","","","","","","","",""
"","","","","","html-keyboard-response","164","1323057","0.0-164.0","867328F2B21F4860BC9390E63EB2538A","019cf0cf-493f-7639-b2b7-9e94ed772133","019cf037-5203-781a-b900-108ccb1cab86","","null","
                <div class=""stimulus-container"">
                    <img src=""images/causal_sequence/dog_causal/dog_causal_1.png"" class=""exp-image"">
                    <div class=""question-area""></div> 
                </div>","null","","","","","","","","",""
"","","","","","html-button-response","165","1324127","0.0-165.0","867328F2B21F4860BC9390E63EB2538A","019cf0cf-493f-7639-b2b7-9e94ed772133","019cf037-5203-781a-b900-108ccb1cab86","","1068","
                <div class=""stimulus-container"">
                    <img src=""images/causal_sequence/dog_causal/dog_causal_1.png"" class=""exp-image"">
                    <div class=""question-area"">
                        <p style=""font-size: 20px; font-weight: bold; margin: 0;"">Is there a person in this image?</p>
                    </div>
                </div>","0","main_experiment_trial","1","dog_causal","causal_sequence","","","","",""
"","","","","","html-keyboard-response","166","1329129","0.0-166.0","867328F2B21F4860BC9390E63EB2538A","019cf0cf-493f-7639-b2b7-9e94ed772133","019cf037-5203-781a-b900-108ccb1cab86","","null","
                <div class=""stimulus-container"">
                    <img src=""images/causal_sequence/dog_causal/dog_causal_2.png"" class=""exp-image"">
                    <div class=""question-area""></div> 
                </div>","null","","","","","","","","",""
"","","","","","html-button-response","167","1330923","0.0-167.0","867328F2B21F4860BC9390E63EB2538A","019cf0cf-493f-7639-b2b7-9e94ed772133","019cf037-5203-781a-b900-108ccb1cab86","","1791","
                <div class=""stimulus-container"">
                    <img src=""images/causal_sequence/dog_causal/dog_causal_2.png"" class=""exp-image"">
                    <div class=""question-area"">
                        <p style=""font-size: 20px; font-weight: bold; margin: 0;"">Is there a person in this image?</p>
                    </div>
                </div>","0","main_experiment_trial","2","dog_causal","causal_sequence","","","","",""
"","","","","","html-keyboard-response","168","1335926","0.0-168.0","867328F2B21F4860BC9390E63EB2538A","019cf0cf-493f-7639-b2b7-9e94ed772133","019cf037-5203-781a-b900-108ccb1cab86","","null","
                <div class=""stimulus-container"">
                    <img src=""images/causal_sequence/dog_causal/dog_causal_3.png"" class=""exp-image"">
                    <div class=""question-area""></div> 
                </div>","null","","","","","","","","",""
"","","","","","html-button-response","169","1336779","0.0-169.0","867328F2B21F4860BC9390E63EB2538A","019cf0cf-493f-7639-b2b7-9e94ed772133","019cf037-5203-781a-b900-108ccb1cab86","","850","
                <div class=""stimulus-container"">
                    <img src=""images/causal_sequence/dog_causal/dog_causal_3.png"" class=""exp-image"">
                    <div class=""question-area"">
                        <p style=""font-size: 20px; font-weight: bold; margin: 0;"">Is there a person in this image?</p>
                    </div>
                </div>","0","main_experiment_trial","3","dog_causal","causal_sequence","","","","",""
"","","","","","html-keyboard-response","170","1341782","0.0-170.0","867328F2B21F4860BC9390E63EB2538A","019cf0cf-493f-7639-b2b7-9e94ed772133","019cf037-5203-781a-b900-108ccb1cab86","","null","
                <div class=""stimulus-container"">
                    <img src=""images/causal_sequence/dog_causal/dog_causal_4.png"" class=""exp-image"">
                    <div class=""question-area""></div> 
                </div>","null","","","","","","","","",""
"","","","","","html-button-response","171","1342967","0.0-171.0","867328F2B21F4860BC9390E63EB2538A","019cf0cf-493f-7639-b2b7-9e94ed772133","019cf037-5203-781a-b900-108ccb1cab86","","1181","
                <div class=""stimulus-container"">
                    <img src=""images/causal_sequence/dog_causal/dog_causal_4.png"" class=""exp-image"">
                    <div class=""question-area"">
                        <p style=""font-size: 20px; font-weight: bold; margin: 0;"">Is there a person in this image?</p>
                    </div>
                </div>","0","main_experiment_trial","4","dog_causal","causal_sequence","","","","",""
"","","","","","html-keyboard-response","172","1347971","0.0-172.0","867328F2B21F4860BC9390E63EB2538A","019cf0cf-493f-7639-b2b7-9e94ed772133","019cf037-5203-781a-b900-108ccb1cab86","","null","
                <div class=""stimulus-container"">
                    <img src=""images/causal_sequence/dog_causal/dog_causal_5.png"" class=""exp-image"">
                    <div class=""question-area""></div> 
                </div>","null","","","","","","","","",""
"","","","","","html-button-response","173","1349928","0.0-173.0","867328F2B21F4860BC9390E63EB2538A","019cf0cf-493f-7639-b2b7-9e94ed772133","019cf037-5203-781a-b900-108ccb1cab86","","1953","
                <div class=""stimulus-container"">
                    <img src=""images/causal_sequence/dog_causal/dog_causal_5.png"" class=""exp-image"">
                    <div class=""question-area"">
                        <p style=""font-size: 20px; font-weight: bold; margin: 0;"">Is there a person in this image?</p>
                    </div>
                </div>","0","main_experiment_trial","5","dog_causal","causal_sequence","","","","",""
"","","","","","html-keyboard-response","174","1354931","0.0-174.0","867328F2B21F4860BC9390E63EB2538A","019cf0cf-493f-7639-b2b7-9e94ed772133","019cf037-5203-781a-b900-108ccb1cab86","","null","
                <div class=""stimulus-container"">
                    <img src=""images/causal_sequence/dog_causal/dog_causal_6.png"" class=""exp-image"">
                    <div class=""question-area""></div> 
                </div>","null","","","","","","","","",""
"","","","","","html-button-response","175","1355719","0.0-175.0","867328F2B21F4860BC9390E63EB2538A","019cf0cf-493f-7639-b2b7-9e94ed772133","019cf037-5203-781a-b900-108ccb1cab86","","785","
                <div class=""stimulus-container"">
                    <img src=""images/causal_sequence/dog_causal/dog_causal_6.png"" class=""exp-image"">
                    <div class=""question-area"">
                        <p style=""font-size: 20px; font-weight: bold; margin: 0;"">Is there a person in this image?</p>
                    </div>
                </div>","0","main_experiment_trial","6","dog_causal","causal_sequence","","","","",""
"","","","","","html-keyboard-response","176","1360722","0.0-176.0","867328F2B21F4860BC9390E63EB2538A","019cf0cf-493f-7639-b2b7-9e94ed772133","019cf037-5203-781a-b900-108ccb1cab86","","null","
                <div class=""stimulus-container"">
                    <img src=""images/causal_sequence/dog_causal/dog_causal_7.png"" class=""exp-image"">
                    <div class=""question-area""></div> 
                </div>","null","","","","","","","","",""
"","","","","","html-button-response","177","1361560","0.0-177.0","867328F2B21F4860BC9390E63EB2538A","019cf0cf-493f-7639-b2b7-9e94ed772133","019cf037-5203-781a-b900-108ccb1cab86","","836","
                <div class=""stimulus-container"">
                    <img src=""images/causal_sequence/dog_causal/dog_causal_7.png"" class=""exp-image"">
                    <div class=""question-area"">
                        <p style=""font-size: 20px; font-weight: bold; margin: 0;"">Is there a person in this image?</p>
                    </div>
                </div>","0","main_experiment_trial","7","dog_causal","causal_sequence","","","","",""
"","","","","","html-keyboard-response","178","1366562","0.0-178.0","867328F2B21F4860BC9390E63EB2538A","019cf0cf-493f-7639-b2b7-9e94ed772133","019cf037-5203-781a-b900-108ccb1cab86","","null","
                <div class=""stimulus-container"">
                    <img src=""images/causal_sequence/dog_causal/dog_causal_8.png"" class=""exp-image"">
                    <div class=""question-area""></div> 
                </div>","null","","","","","","","","",""
"","","","","","html-button-response","179","1367252","0.0-179.0","867328F2B21F4860BC9390E63EB2538A","019cf0cf-493f-7639-b2b7-9e94ed772133","019cf037-5203-781a-b900-108ccb1cab86","","687","
                <div class=""stimulus-container"">
                    <img src=""images/causal_sequence/dog_causal/dog_causal_8.png"" class=""exp-image"">
                    <div class=""question-area"">
                        <p style=""font-size: 20px; font-weight: bold; margin: 0;"">Is there a person in this image?</p>
                    </div>
                </div>","0","main_experiment_trial","8","dog_causal","causal_sequence","","","","",""
"","","","","","html-keyboard-response","180","1372254","0.0-180.0","867328F2B21F4860BC9390E63EB2538A","019cf0cf-493f-7639-b2b7-9e94ed772133","019cf037-5203-781a-b900-108ccb1cab86","","null","
                <div class=""stimulus-container"">
                    <img src=""images/causal_sequence/dog_causal/dog_causal_9.png"" class=""exp-image"">
                    <div class=""question-area""></div> 
                </div>","null","","","","","","","","",""
"","","","","","html-button-response","181","1373685","0.0-181.0","867328F2B21F4860BC9390E63EB2538A","019cf0cf-493f-7639-b2b7-9e94ed772133","019cf037-5203-781a-b900-108ccb1cab86","","1429","
                <div class=""stimulus-container"">
                    <img src=""images/causal_sequence/dog_causal/dog_causal_9.png"" class=""exp-image"">
                    <div class=""question-area"">
                        <p style=""font-size: 20px; font-weight: bold; margin: 0;"">Is there a person in this image?</p>
                    </div>
                </div>","0","main_experiment_trial","9","dog_causal","causal_sequence","","","","",""
"","","","","","html-keyboard-response","182","1378688","0.0-182.0","867328F2B21F4860BC9390E63EB2538A","019cf0cf-493f-7639-b2b7-9e94ed772133","019cf037-5203-781a-b900-108ccb1cab86","","null","
                <div class=""stimulus-container"">
                    <img src=""images/causal_sequence/dog_causal/dog_causal_ten.png"" class=""exp-image"">
                    <div class=""question-area""></div> 
                </div>","null","","","","","","","","",""
"","","","","","html-button-response","183","1380170","0.0-183.0","867328F2B21F4860BC9390E63EB2538A","019cf0cf-493f-7639-b2b7-9e94ed772133","019cf037-5203-781a-b900-108ccb1cab86","","1480","
                <div class=""stimulus-container"">
                    <img src=""images/causal_sequence/dog_causal/dog_causal_ten.png"" class=""exp-image"">
                    <div class=""question-area"">
                        <p style=""font-size: 20px; font-weight: bold; margin: 0;"">Is there a person in this image?</p>
                    </div>
                </div>","0","main_experiment_trial","ten","dog_causal","causal_sequence","","","","",""
