"success","timeout","failed_images","failed_audio","failed_video","trial_type","trial_index","time_elapsed","internal_node_id","subject_id","study_id","session_id","view_history","rt","stimulus","response","task","image_index","folder","sequence_type","valuable_image_index","reward_type","lucky_X","chosen_image_index","valuable_folder","neutral_folder","correct_choice"
"true","false","[]","[]","[]","preload","0","4386","0.0-0.0","8E593DF86F9E4D25BBBD31C589B243E8","019cedd1-f13e-724c-aad4-1f45dcc84150","019cedc9-bfe1-7bb5-8857-de065a1e03dd","","","","","","","","","","","","","","",""
"","","","","","instructions","1","62826","0.0-1.0","8E593DF86F9E4D25BBBD31C589B243E8","019cedd1-f13e-724c-aad4-1f45dcc84150","019cedc9-bfe1-7bb5-8857-de065a1e03dd","[{""page_index"":0,""viewing_time"":58439}]","58440","","","","","","","","","","","","",""
"","","","","","instructions","2","65684","0.0-2.0","8E593DF86F9E4D25BBBD31C589B243E8","019cedd1-f13e-724c-aad4-1f45dcc84150","019cedc9-bfe1-7bb5-8857-de065a1e03dd","[{""page_index"":0,""viewing_time"":2857}]","2858","","","","","","","","","","","","",""
"true","","","","","fullscreen","3","68171","0.0-3.0","8E593DF86F9E4D25BBBD31C589B243E8","019cedd1-f13e-724c-aad4-1f45dcc84150","019cedc9-bfe1-7bb5-8857-de065a1e03dd","","1482","","","","","","","","","","","","",""
"","","","","","instructions","4","75662","0.0-4.0","8E593DF86F9E4D25BBBD31C589B243E8","019cedd1-f13e-724c-aad4-1f45dcc84150","019cedc9-bfe1-7bb5-8857-de065a1e03dd","[{""page_index"":0,""viewing_time"":7491}]","7491","","","","","","","","","","","","",""
"","","","","","instructions","5","79066","0.0-5.0","8E593DF86F9E4D25BBBD31C589B243E8","019cedd1-f13e-724c-aad4-1f45dcc84150","019cedc9-bfe1-7bb5-8857-de065a1e03dd","[{""page_index"":0,""viewing_time"":3403}]","3404","","","","","","","","","","","","",""
"","","","","","html-keyboard-response","6","83069","0.0-6.0","8E593DF86F9E4D25BBBD31C589B243E8","019cedd1-f13e-724c-aad4-1f45dcc84150","019cedc9-bfe1-7bb5-8857-de065a1e03dd","","null","
                <div class=""stimulus-container"">
                    <img src=""images/instructions/movie_1.png"" class=""exp-image"">
                    <div class=""question-area""></div> 
                </div>","null","","","","","","","","","","",""
"","","","","","html-button-response","7","85870","0.0-7.0","8E593DF86F9E4D25BBBD31C589B243E8","019cedd1-f13e-724c-aad4-1f45dcc84150","019cedc9-bfe1-7bb5-8857-de065a1e03dd","","2799","
                <div class=""stimulus-container"">
                    <img src=""images/instructions/movie_1.png"" class=""exp-image"">
                    <div class=""question-area"">
                        <p style=""font-size: 20px; font-weight: bold; margin: 0;"">Was there a person in this image?</p>
                    </div>
                </div>","0","example_question","1","","","","","","","","",""
"","","","","","html-keyboard-response","8","89872","0.0-8.0","8E593DF86F9E4D25BBBD31C589B243E8","019cedd1-f13e-724c-aad4-1f45dcc84150","019cedc9-bfe1-7bb5-8857-de065a1e03dd","","null","
                <div class=""stimulus-container"">
                    <img src=""images/instructions/movie_2.png"" class=""exp-image"">
                    <div class=""question-area""></div> 
                </div>","null","","","","","","","","","","",""
"","","","","","html-button-response","9","91625","0.0-9.0","8E593DF86F9E4D25BBBD31C589B243E8","019cedd1-f13e-724c-aad4-1f45dcc84150","019cedc9-bfe1-7bb5-8857-de065a1e03dd","","1752","
                <div class=""stimulus-container"">
                    <img src=""images/instructions/movie_2.png"" class=""exp-image"">
                    <div class=""question-area"">
                        <p style=""font-size: 20px; font-weight: bold; margin: 0;"">Was there a person in this image?</p>
                    </div>
                </div>","1","example_question","2","","","","","","","","",""
"","","","","","html-keyboard-response","10","95627","0.0-10.0","8E593DF86F9E4D25BBBD31C589B243E8","019cedd1-f13e-724c-aad4-1f45dcc84150","019cedc9-bfe1-7bb5-8857-de065a1e03dd","","null","
                <div class=""stimulus-container"">
                    <img src=""images/instructions/movie_3.png"" class=""exp-image"">
                    <div class=""question-area""></div> 
                </div>","null","","","","","","","","","","",""
"","","","","","html-button-response","11","96858","0.0-11.0","8E593DF86F9E4D25BBBD31C589B243E8","019cedd1-f13e-724c-aad4-1f45dcc84150","019cedc9-bfe1-7bb5-8857-de065a1e03dd","","1229","
                <div class=""stimulus-container"">
                    <img src=""images/instructions/movie_3.png"" class=""exp-image"">
                    <div class=""question-area"">
                        <p style=""font-size: 20px; font-weight: bold; margin: 0;"">Was there a person in this image?</p>
                    </div>
                </div>","0","example_question","3","","","","","","","","",""
"","","","","","html-keyboard-response","12","100860","0.0-12.0","8E593DF86F9E4D25BBBD31C589B243E8","019cedd1-f13e-724c-aad4-1f45dcc84150","019cedc9-bfe1-7bb5-8857-de065a1e03dd","","null","
                <div class=""stimulus-container"">
                    <img src=""images/instructions/movie_4.png"" class=""exp-image"">
                    <div class=""question-area""></div> 
                </div>","null","","","","","","","","","","",""
"","","","","","html-button-response","13","102312","0.0-13.0","8E593DF86F9E4D25BBBD31C589B243E8","019cedd1-f13e-724c-aad4-1f45dcc84150","019cedc9-bfe1-7bb5-8857-de065a1e03dd","","1451","
                <div class=""stimulus-container"">
                    <img src=""images/instructions/movie_4.png"" class=""exp-image"">
                    <div class=""question-area"">
                        <p style=""font-size: 20px; font-weight: bold; margin: 0;"">Was there a person in this image?</p>
                    </div>
                </div>","0","example_question","4","","","","","","","","",""
"","","","","","instructions","14","104692","0.0-14.0","8E593DF86F9E4D25BBBD31C589B243E8","019cedd1-f13e-724c-aad4-1f45dcc84150","019cedc9-bfe1-7bb5-8857-de065a1e03dd","[{""page_index"":0,""viewing_time"":2379}]","2380","","","","","","","","","","","","",""
"","","","","","instructions","15","110482","0.0-15.0","8E593DF86F9E4D25BBBD31C589B243E8","019cedd1-f13e-724c-aad4-1f45dcc84150","019cedc9-bfe1-7bb5-8857-de065a1e03dd","[{""page_index"":0,""viewing_time"":5790}]","5790","","","","","","","","","","","","",""
"","","","","","html-keyboard-response","16","111484","0.0-16.0","8E593DF86F9E4D25BBBD31C589B243E8","019cedd1-f13e-724c-aad4-1f45dcc84150","019cedc9-bfe1-7bb5-8857-de065a1e03dd","","null","<div style=""background-color: white; width: 100vw; height: 100vh;""></div>","null","","","","","","","","","","",""
"","","","","","html-keyboard-response","17","116486","0.0-17.0","8E593DF86F9E4D25BBBD31C589B243E8","019cedd1-f13e-724c-aad4-1f45dcc84150","019cedc9-bfe1-7bb5-8857-de065a1e03dd","","null","
                <div class=""stimulus-container"">
                    <img src=""images/schematic_sequence/interview_scheme/interview_scheme_1.png"" class=""exp-image"">
                    <div class=""question-area""></div> 
                </div>","null","","","","","","","","","","",""
"","","","","","html-button-response","18","117948","0.0-18.0","8E593DF86F9E4D25BBBD31C589B243E8","019cedd1-f13e-724c-aad4-1f45dcc84150","019cedc9-bfe1-7bb5-8857-de065a1e03dd","","1461","
                <div class=""stimulus-container"">
                    <img src=""images/schematic_sequence/interview_scheme/interview_scheme_1.png"" class=""exp-image"">
                    <div class=""question-area"">
                        <p style=""font-size: 20px; font-weight: bold; margin: 0;"">Is there a person in this image?</p>
                    </div>
                </div>","1","main_experiment_trial","1","interview_scheme","schematic_sequence","","","","","","",""
"","","","","","html-keyboard-response","19","122951","0.0-19.0","8E593DF86F9E4D25BBBD31C589B243E8","019cedd1-f13e-724c-aad4-1f45dcc84150","019cedc9-bfe1-7bb5-8857-de065a1e03dd","","null","
                <div class=""stimulus-container"">
                    <img src=""images/schematic_sequence/interview_scheme/interview_scheme_2.png"" class=""exp-image"">
                    <div class=""question-area""></div> 
                </div>","null","","","","","","","","","","",""
"","","","","","html-button-response","20","124047","0.0-20.0","8E593DF86F9E4D25BBBD31C589B243E8","019cedd1-f13e-724c-aad4-1f45dcc84150","019cedc9-bfe1-7bb5-8857-de065a1e03dd","","1095","
                <div class=""stimulus-container"">
                    <img src=""images/schematic_sequence/interview_scheme/interview_scheme_2.png"" class=""exp-image"">
                    <div class=""question-area"">
                        <p style=""font-size: 20px; font-weight: bold; margin: 0;"">Is there a person in this image?</p>
                    </div>
                </div>","1","main_experiment_trial","2","interview_scheme","schematic_sequence","","","","","","",""
"","","","","","html-keyboard-response","21","129049","0.0-21.0","8E593DF86F9E4D25BBBD31C589B243E8","019cedd1-f13e-724c-aad4-1f45dcc84150","019cedc9-bfe1-7bb5-8857-de065a1e03dd","","null","
                <div class=""stimulus-container"">
                    <img src=""images/schematic_sequence/interview_scheme/interview_scheme_3.png"" class=""exp-image"">
                    <div class=""question-area""></div> 
                </div>","null","","","","","","","","","","",""
"","","","","","html-button-response","22","130134","0.0-22.0","8E593DF86F9E4D25BBBD31C589B243E8","019cedd1-f13e-724c-aad4-1f45dcc84150","019cedc9-bfe1-7bb5-8857-de065a1e03dd","","1085","
                <div class=""stimulus-container"">
                    <img src=""images/schematic_sequence/interview_scheme/interview_scheme_3.png"" class=""exp-image"">
                    <div class=""question-area"">
                        <p style=""font-size: 20px; font-weight: bold; margin: 0;"">Is there a person in this image?</p>
                    </div>
                </div>","1","main_experiment_trial","3","interview_scheme","schematic_sequence","","","","","","",""
"","","","","","html-keyboard-response","23","135137","0.0-23.0","8E593DF86F9E4D25BBBD31C589B243E8","019cedd1-f13e-724c-aad4-1f45dcc84150","019cedc9-bfe1-7bb5-8857-de065a1e03dd","","null","
                <div class=""stimulus-container"">
                    <img src=""images/schematic_sequence/interview_scheme/interview_scheme_4.png"" class=""exp-image"">
                    <div class=""question-area""></div> 
                </div>","null","","","","","","","","","","",""
"","","","","","html-button-response","24","135963","0.0-24.0","8E593DF86F9E4D25BBBD31C589B243E8","019cedd1-f13e-724c-aad4-1f45dcc84150","019cedc9-bfe1-7bb5-8857-de065a1e03dd","","825","
                <div class=""stimulus-container"">
                    <img src=""images/schematic_sequence/interview_scheme/interview_scheme_4.png"" class=""exp-image"">
                    <div class=""question-area"">
                        <p style=""font-size: 20px; font-weight: bold; margin: 0;"">Is there a person in this image?</p>
                    </div>
                </div>","1","main_experiment_trial","4","interview_scheme","schematic_sequence","","","","","","",""
"","","","","","html-keyboard-response","25","140965","0.0-25.0","8E593DF86F9E4D25BBBD31C589B243E8","019cedd1-f13e-724c-aad4-1f45dcc84150","019cedc9-bfe1-7bb5-8857-de065a1e03dd","","null","
                <div class=""stimulus-container"">
                    <img src=""images/schematic_sequence/interview_scheme/interview_scheme_5.png"" class=""exp-image"">
                    <div class=""question-area""></div> 
                </div>","null","","","","","","","","","","",""
"","","","","","html-button-response","26","142551","0.0-26.0","8E593DF86F9E4D25BBBD31C589B243E8","019cedd1-f13e-724c-aad4-1f45dcc84150","019cedc9-bfe1-7bb5-8857-de065a1e03dd","","1585","
                <div class=""stimulus-container"">
                    <img src=""images/schematic_sequence/interview_scheme/interview_scheme_5.png"" class=""exp-image"">
                    <div class=""question-area"">
                        <p style=""font-size: 20px; font-weight: bold; margin: 0;"">Is there a person in this image?</p>
                    </div>
                </div>","0","main_experiment_trial","5","interview_scheme","schematic_sequence","","","","","","",""
"","","","","","html-keyboard-response","27","147554","0.0-27.0","8E593DF86F9E4D25BBBD31C589B243E8","019cedd1-f13e-724c-aad4-1f45dcc84150","019cedc9-bfe1-7bb5-8857-de065a1e03dd","","null","
                <div class=""stimulus-container"">
                    <img src=""images/schematic_sequence/interview_scheme/interview_scheme_6.png"" class=""exp-image"">
                    <div class=""question-area""></div> 
                </div>","null","","","","","","","","","","",""
"","","","","","html-button-response","28","148481","0.0-28.0","8E593DF86F9E4D25BBBD31C589B243E8","019cedd1-f13e-724c-aad4-1f45dcc84150","019cedc9-bfe1-7bb5-8857-de065a1e03dd","","926","
                <div class=""stimulus-container"">
                    <img src=""images/schematic_sequence/interview_scheme/interview_scheme_6.png"" class=""exp-image"">
                    <div class=""question-area"">
                        <p style=""font-size: 20px; font-weight: bold; margin: 0;"">Is there a person in this image?</p>
                    </div>
                </div>","0","main_experiment_trial","6","interview_scheme","schematic_sequence","","","","","","",""
"","","","","","html-keyboard-response","29","153484","0.0-29.0","8E593DF86F9E4D25BBBD31C589B243E8","019cedd1-f13e-724c-aad4-1f45dcc84150","019cedc9-bfe1-7bb5-8857-de065a1e03dd","","null","
                <div class=""stimulus-container"">
                    <img src=""images/schematic_sequence/interview_scheme/interview_scheme_7.png"" class=""exp-image"">
                    <div class=""question-area""></div> 
                </div>","null","","","","","","","","","","",""
"","","","","","html-button-response","30","154828","0.0-30.0","8E593DF86F9E4D25BBBD31C589B243E8","019cedd1-f13e-724c-aad4-1f45dcc84150","019cedc9-bfe1-7bb5-8857-de065a1e03dd","","1344","
                <div class=""stimulus-container"">
                    <img src=""images/schematic_sequence/interview_scheme/interview_scheme_7.png"" class=""exp-image"">
                    <div class=""question-area"">
                        <p style=""font-size: 20px; font-weight: bold; margin: 0;"">Is there a person in this image?</p>
                    </div>
                </div>","0","main_experiment_trial","7","interview_scheme","schematic_sequence","","","","","","",""
"","","","","","html-keyboard-response","31","159830","0.0-31.0","8E593DF86F9E4D25BBBD31C589B243E8","019cedd1-f13e-724c-aad4-1f45dcc84150","019cedc9-bfe1-7bb5-8857-de065a1e03dd","","null","
                <div class=""stimulus-container"">
                    <img src=""images/schematic_sequence/interview_scheme/interview_scheme_8.png"" class=""exp-image"">
                    <div class=""question-area""></div> 
                </div>","null","","","","","","","","","","",""
"","","","","","html-button-response","32","160780","0.0-32.0","8E593DF86F9E4D25BBBD31C589B243E8","019cedd1-f13e-724c-aad4-1f45dcc84150","019cedc9-bfe1-7bb5-8857-de065a1e03dd","","949","
                <div class=""stimulus-container"">
                    <img src=""images/schematic_sequence/interview_scheme/interview_scheme_8.png"" class=""exp-image"">
                    <div class=""question-area"">
                        <p style=""font-size: 20px; font-weight: bold; margin: 0;"">Is there a person in this image?</p>
                    </div>
                </div>","0","main_experiment_trial","8","interview_scheme","schematic_sequence","","","","","","",""
"","","","","","html-keyboard-response","33","165782","0.0-33.0","8E593DF86F9E4D25BBBD31C589B243E8","019cedd1-f13e-724c-aad4-1f45dcc84150","019cedc9-bfe1-7bb5-8857-de065a1e03dd","","null","
                <div class=""stimulus-container"">
                    <img src=""images/schematic_sequence/interview_scheme/interview_scheme_9.png"" class=""exp-image"">
                    <div class=""question-area""></div> 
                </div>","null","","","","","","","","","","",""
"","","","","","html-button-response","34","166692","0.0-34.0","8E593DF86F9E4D25BBBD31C589B243E8","019cedd1-f13e-724c-aad4-1f45dcc84150","019cedc9-bfe1-7bb5-8857-de065a1e03dd","","909","
                <div class=""stimulus-container"">
                    <img src=""images/schematic_sequence/interview_scheme/interview_scheme_9.png"" class=""exp-image"">
                    <div class=""question-area"">
                        <p style=""font-size: 20px; font-weight: bold; margin: 0;"">Is there a person in this image?</p>
                    </div>
                </div>","0","main_experiment_trial","9","interview_scheme","schematic_sequence","","","","","","",""
"","","","","","html-keyboard-response","35","171693","0.0-35.0","8E593DF86F9E4D25BBBD31C589B243E8","019cedd1-f13e-724c-aad4-1f45dcc84150","019cedc9-bfe1-7bb5-8857-de065a1e03dd","","null","
                <div class=""stimulus-container"">
                    <img src=""images/schematic_sequence/interview_scheme/interview_scheme_ten.png"" class=""exp-image"">
                    <div class=""question-area""></div> 
                </div>","null","","","","","","","","","","",""
"","","","","","html-button-response","36","172314","0.0-36.0","8E593DF86F9E4D25BBBD31C589B243E8","019cedd1-f13e-724c-aad4-1f45dcc84150","019cedc9-bfe1-7bb5-8857-de065a1e03dd","","620","
                <div class=""stimulus-container"">
                    <img src=""images/schematic_sequence/interview_scheme/interview_scheme_ten.png"" class=""exp-image"">
                    <div class=""question-area"">
                        <p style=""font-size: 20px; font-weight: bold; margin: 0;"">Is there a person in this image?</p>
                    </div>
                </div>","0","main_experiment_trial","ten","interview_scheme","schematic_sequence","","","","","","",""
"","","","","","html-keyboard-response","37","173315","0.0-37.0","8E593DF86F9E4D25BBBD31C589B243E8","019cedd1-f13e-724c-aad4-1f45dcc84150","019cedc9-bfe1-7bb5-8857-de065a1e03dd","","null","<div style=""background-color: white; width: 100vw; height: 100vh;""></div>","null","","","","","","","","","","",""
"","","","","","html-keyboard-response","38","178317","0.0-38.0","8E593DF86F9E4D25BBBD31C589B243E8","019cedd1-f13e-724c-aad4-1f45dcc84150","019cedc9-bfe1-7bb5-8857-de065a1e03dd","","null","
                <div class=""stimulus-container"">
                    <img src=""images/schematic_sequence/restaurant_scheme/restaurant_scheme_1.png"" class=""exp-image"">
                    <div class=""question-area""></div> 
                </div>","null","","","","","","","","","","",""
"","","","","","html-button-response","39","179264","0.0-39.0","8E593DF86F9E4D25BBBD31C589B243E8","019cedd1-f13e-724c-aad4-1f45dcc84150","019cedc9-bfe1-7bb5-8857-de065a1e03dd","","946","
                <div class=""stimulus-container"">
                    <img src=""images/schematic_sequence/restaurant_scheme/restaurant_scheme_1.png"" class=""exp-image"">
                    <div class=""question-area"">
                        <p style=""font-size: 20px; font-weight: bold; margin: 0;"">Is there a person in this image?</p>
                    </div>
                </div>","0","main_experiment_trial","1","restaurant_scheme","schematic_sequence","","","","","","",""
"","","","","","html-keyboard-response","40","184265","0.0-40.0","8E593DF86F9E4D25BBBD31C589B243E8","019cedd1-f13e-724c-aad4-1f45dcc84150","019cedc9-bfe1-7bb5-8857-de065a1e03dd","","null","
                <div class=""stimulus-container"">
                    <img src=""images/schematic_sequence/restaurant_scheme/restaurant_scheme_2.png"" class=""exp-image"">
                    <div class=""question-area""></div> 
                </div>","null","","","","","","","","","","",""
"","","","","","html-button-response","41","185037","0.0-41.0","8E593DF86F9E4D25BBBD31C589B243E8","019cedd1-f13e-724c-aad4-1f45dcc84150","019cedc9-bfe1-7bb5-8857-de065a1e03dd","","772","
                <div class=""stimulus-container"">
                    <img src=""images/schematic_sequence/restaurant_scheme/restaurant_scheme_2.png"" class=""exp-image"">
                    <div class=""question-area"">
                        <p style=""font-size: 20px; font-weight: bold; margin: 0;"">Is there a person in this image?</p>
                    </div>
                </div>","1","main_experiment_trial","2","restaurant_scheme","schematic_sequence","","","","","","",""
"","","","","","html-keyboard-response","42","190040","0.0-42.0","8E593DF86F9E4D25BBBD31C589B243E8","019cedd1-f13e-724c-aad4-1f45dcc84150","019cedc9-bfe1-7bb5-8857-de065a1e03dd","","null","
                <div class=""stimulus-container"">
                    <img src=""images/schematic_sequence/restaurant_scheme/restaurant_scheme_3.png"" class=""exp-image"">
                    <div class=""question-area""></div> 
                </div>","null","","","","","","","","","","",""
"","","","","","html-button-response","43","190970","0.0-43.0","8E593DF86F9E4D25BBBD31C589B243E8","019cedd1-f13e-724c-aad4-1f45dcc84150","019cedc9-bfe1-7bb5-8857-de065a1e03dd","","929","
                <div class=""stimulus-container"">
                    <img src=""images/schematic_sequence/restaurant_scheme/restaurant_scheme_3.png"" class=""exp-image"">
                    <div class=""question-area"">
                        <p style=""font-size: 20px; font-weight: bold; margin: 0;"">Is there a person in this image?</p>
                    </div>
                </div>","1","main_experiment_trial","3","restaurant_scheme","schematic_sequence","","","","","","",""
"","","","","","html-keyboard-response","44","195972","0.0-44.0","8E593DF86F9E4D25BBBD31C589B243E8","019cedd1-f13e-724c-aad4-1f45dcc84150","019cedc9-bfe1-7bb5-8857-de065a1e03dd","","null","
                <div class=""stimulus-container"">
                    <img src=""images/schematic_sequence/restaurant_scheme/restaurant_scheme_4.png"" class=""exp-image"">
                    <div class=""question-area""></div> 
                </div>","null","","","","","","","","","","",""
"","","","","","html-button-response","45","197170","0.0-45.0","8E593DF86F9E4D25BBBD31C589B243E8","019cedd1-f13e-724c-aad4-1f45dcc84150","019cedc9-bfe1-7bb5-8857-de065a1e03dd","","1197","
                <div class=""stimulus-container"">
                    <img src=""images/schematic_sequence/restaurant_scheme/restaurant_scheme_4.png"" class=""exp-image"">
                    <div class=""question-area"">
                        <p style=""font-size: 20px; font-weight: bold; margin: 0;"">Is there a person in this image?</p>
                    </div>
                </div>","0","main_experiment_trial","4","restaurant_scheme","schematic_sequence","","","","","","",""
"","","","","","html-keyboard-response","46","202172","0.0-46.0","8E593DF86F9E4D25BBBD31C589B243E8","019cedd1-f13e-724c-aad4-1f45dcc84150","019cedc9-bfe1-7bb5-8857-de065a1e03dd","","null","
                <div class=""stimulus-container"">
                    <img src=""images/schematic_sequence/restaurant_scheme/restaurant_scheme_5.png"" class=""exp-image"">
                    <div class=""question-area""></div> 
                </div>","null","","","","","","","","","","",""
"","","","","","html-button-response","47","203061","0.0-47.0","8E593DF86F9E4D25BBBD31C589B243E8","019cedd1-f13e-724c-aad4-1f45dcc84150","019cedc9-bfe1-7bb5-8857-de065a1e03dd","","888","
                <div class=""stimulus-container"">
                    <img src=""images/schematic_sequence/restaurant_scheme/restaurant_scheme_5.png"" class=""exp-image"">
                    <div class=""question-area"">
                        <p style=""font-size: 20px; font-weight: bold; margin: 0;"">Is there a person in this image?</p>
                    </div>
                </div>","0","main_experiment_trial","5","restaurant_scheme","schematic_sequence","","","","","","",""
"","","","","","html-keyboard-response","48","208063","0.0-48.0","8E593DF86F9E4D25BBBD31C589B243E8","019cedd1-f13e-724c-aad4-1f45dcc84150","019cedc9-bfe1-7bb5-8857-de065a1e03dd","","null","
                <div class=""stimulus-container"">
                    <img src=""images/schematic_sequence/restaurant_scheme/restaurant_scheme_6.png"" class=""exp-image"">
                    <div class=""question-area""></div> 
                </div>","null","","","","","","","","","","",""
"","","","","","html-button-response","49","209687","0.0-49.0","8E593DF86F9E4D25BBBD31C589B243E8","019cedd1-f13e-724c-aad4-1f45dcc84150","019cedc9-bfe1-7bb5-8857-de065a1e03dd","","1623","
                <div class=""stimulus-container"">
                    <img src=""images/schematic_sequence/restaurant_scheme/restaurant_scheme_6.png"" class=""exp-image"">
                    <div class=""question-area"">
                        <p style=""font-size: 20px; font-weight: bold; margin: 0;"">Is there a person in this image?</p>
                    </div>
                </div>","0","main_experiment_trial","6","restaurant_scheme","schematic_sequence","","","","","","",""
"","","","","","html-keyboard-response","50","214688","0.0-50.0","8E593DF86F9E4D25BBBD31C589B243E8","019cedd1-f13e-724c-aad4-1f45dcc84150","019cedc9-bfe1-7bb5-8857-de065a1e03dd","","null","
                <div class=""stimulus-container"">
                    <img src=""images/schematic_sequence/restaurant_scheme/restaurant_scheme_7.png"" class=""exp-image"">
                    <div class=""question-area""></div> 
                </div>","null","","","","","","","","","","",""
"","","","","","html-button-response","51","215457","0.0-51.0","8E593DF86F9E4D25BBBD31C589B243E8","019cedd1-f13e-724c-aad4-1f45dcc84150","019cedc9-bfe1-7bb5-8857-de065a1e03dd","","768","
                <div class=""stimulus-container"">
                    <img src=""images/schematic_sequence/restaurant_scheme/restaurant_scheme_7.png"" class=""exp-image"">
                    <div class=""question-area"">
                        <p style=""font-size: 20px; font-weight: bold; margin: 0;"">Is there a person in this image?</p>
                    </div>
                </div>","1","main_experiment_trial","7","restaurant_scheme","schematic_sequence","","","","","","",""
"","","","","","html-keyboard-response","52","220459","0.0-52.0","8E593DF86F9E4D25BBBD31C589B243E8","019cedd1-f13e-724c-aad4-1f45dcc84150","019cedc9-bfe1-7bb5-8857-de065a1e03dd","","null","
                <div class=""stimulus-container"">
                    <img src=""images/schematic_sequence/restaurant_scheme/restaurant_scheme_8.png"" class=""exp-image"">
                    <div class=""question-area""></div> 
                </div>","null","","","","","","","","","","",""
"","","","","","html-button-response","53","221315","0.0-53.0","8E593DF86F9E4D25BBBD31C589B243E8","019cedd1-f13e-724c-aad4-1f45dcc84150","019cedc9-bfe1-7bb5-8857-de065a1e03dd","","855","
                <div class=""stimulus-container"">
                    <img src=""images/schematic_sequence/restaurant_scheme/restaurant_scheme_8.png"" class=""exp-image"">
                    <div class=""question-area"">
                        <p style=""font-size: 20px; font-weight: bold; margin: 0;"">Is there a person in this image?</p>
                    </div>
                </div>","0","main_experiment_trial","8","restaurant_scheme","schematic_sequence","","","","","","",""
"","","","","","html-keyboard-response","54","226317","0.0-54.0","8E593DF86F9E4D25BBBD31C589B243E8","019cedd1-f13e-724c-aad4-1f45dcc84150","019cedc9-bfe1-7bb5-8857-de065a1e03dd","","null","
                <div class=""stimulus-container"">
                    <img src=""images/schematic_sequence/restaurant_scheme/restaurant_scheme_9.png"" class=""exp-image"">
                    <div class=""question-area""></div> 
                </div>","null","","","","","","","","","","",""
"","","","","","html-button-response","55","227129","0.0-55.0","8E593DF86F9E4D25BBBD31C589B243E8","019cedd1-f13e-724c-aad4-1f45dcc84150","019cedc9-bfe1-7bb5-8857-de065a1e03dd","","811","
                <div class=""stimulus-container"">
                    <img src=""images/schematic_sequence/restaurant_scheme/restaurant_scheme_9.png"" class=""exp-image"">
                    <div class=""question-area"">
                        <p style=""font-size: 20px; font-weight: bold; margin: 0;"">Is there a person in this image?</p>
                    </div>
                </div>","0","main_experiment_trial","9","restaurant_scheme","schematic_sequence","","","","","","",""
"","","","","","html-keyboard-response","56","232132","0.0-56.0","8E593DF86F9E4D25BBBD31C589B243E8","019cedd1-f13e-724c-aad4-1f45dcc84150","019cedc9-bfe1-7bb5-8857-de065a1e03dd","","null","
                <div class=""stimulus-container"">
                    <img src=""images/schematic_sequence/restaurant_scheme/restaurant_scheme_ten.png"" class=""exp-image"">
                    <div class=""question-area""></div> 
                </div>","null","","","","","","","","","","",""
"","","","","","html-button-response","57","232870","0.0-57.0","8E593DF86F9E4D25BBBD31C589B243E8","019cedd1-f13e-724c-aad4-1f45dcc84150","019cedc9-bfe1-7bb5-8857-de065a1e03dd","","737","
                <div class=""stimulus-container"">
                    <img src=""images/schematic_sequence/restaurant_scheme/restaurant_scheme_ten.png"" class=""exp-image"">
                    <div class=""question-area"">
                        <p style=""font-size: 20px; font-weight: bold; margin: 0;"">Is there a person in this image?</p>
                    </div>
                </div>","0","main_experiment_trial","ten","restaurant_scheme","schematic_sequence","","","","","","",""
"","","","","","html-keyboard-response","58","233871","0.0-58.0","8E593DF86F9E4D25BBBD31C589B243E8","019cedd1-f13e-724c-aad4-1f45dcc84150","019cedc9-bfe1-7bb5-8857-de065a1e03dd","","null","<div style=""background-color: white; width: 100vw; height: 100vh;""></div>","null","","","","","","","","","","",""
"","","","","","html-keyboard-response","59","238874","0.0-59.0","8E593DF86F9E4D25BBBD31C589B243E8","019cedd1-f13e-724c-aad4-1f45dcc84150","019cedc9-bfe1-7bb5-8857-de065a1e03dd","","null","
                <div class=""stimulus-container"">
                    <img src=""images/schematic_sequence/hotel_scheme/hotel_scheme_1.png"" class=""exp-image"">
                    <div class=""question-area""></div> 
                </div>","null","","","","","","","","","","",""
"","","","","","html-button-response","60","239711","0.0-60.0","8E593DF86F9E4D25BBBD31C589B243E8","019cedd1-f13e-724c-aad4-1f45dcc84150","019cedc9-bfe1-7bb5-8857-de065a1e03dd","","837","
                <div class=""stimulus-container"">
                    <img src=""images/schematic_sequence/hotel_scheme/hotel_scheme_1.png"" class=""exp-image"">
                    <div class=""question-area"">
                        <p style=""font-size: 20px; font-weight: bold; margin: 0;"">Is there a person in this image?</p>
                    </div>
                </div>","1","main_experiment_trial","1","hotel_scheme","schematic_sequence","","","","","","",""
"","","","","","html-keyboard-response","61","244714","0.0-61.0","8E593DF86F9E4D25BBBD31C589B243E8","019cedd1-f13e-724c-aad4-1f45dcc84150","019cedc9-bfe1-7bb5-8857-de065a1e03dd","","null","
                <div class=""stimulus-container"">
                    <img src=""images/schematic_sequence/hotel_scheme/hotel_scheme_2.png"" class=""exp-image"">
                    <div class=""question-area""></div> 
                </div>","null","","","","","","","","","","",""
"","","","","","html-button-response","62","245805","0.0-62.0","8E593DF86F9E4D25BBBD31C589B243E8","019cedd1-f13e-724c-aad4-1f45dcc84150","019cedc9-bfe1-7bb5-8857-de065a1e03dd","","1091","
                <div class=""stimulus-container"">
                    <img src=""images/schematic_sequence/hotel_scheme/hotel_scheme_2.png"" class=""exp-image"">
                    <div class=""question-area"">
                        <p style=""font-size: 20px; font-weight: bold; margin: 0;"">Is there a person in this image?</p>
                    </div>
                </div>","0","main_experiment_trial","2","hotel_scheme","schematic_sequence","","","","","","",""
"","","","","","html-keyboard-response","63","250807","0.0-63.0","8E593DF86F9E4D25BBBD31C589B243E8","019cedd1-f13e-724c-aad4-1f45dcc84150","019cedc9-bfe1-7bb5-8857-de065a1e03dd","","null","
                <div class=""stimulus-container"">
                    <img src=""images/schematic_sequence/hotel_scheme/hotel_scheme_3.png"" class=""exp-image"">
                    <div class=""question-area""></div> 
                </div>","null","","","","","","","","","","",""
"","","","","","html-button-response","64","251556","0.0-64.0","8E593DF86F9E4D25BBBD31C589B243E8","019cedd1-f13e-724c-aad4-1f45dcc84150","019cedc9-bfe1-7bb5-8857-de065a1e03dd","","748","
                <div class=""stimulus-container"">
                    <img src=""images/schematic_sequence/hotel_scheme/hotel_scheme_3.png"" class=""exp-image"">
                    <div class=""question-area"">
                        <p style=""font-size: 20px; font-weight: bold; margin: 0;"">Is there a person in this image?</p>
                    </div>
                </div>","0","main_experiment_trial","3","hotel_scheme","schematic_sequence","","","","","","",""
"","","","","","html-keyboard-response","65","256558","0.0-65.0","8E593DF86F9E4D25BBBD31C589B243E8","019cedd1-f13e-724c-aad4-1f45dcc84150","019cedc9-bfe1-7bb5-8857-de065a1e03dd","","null","
                <div class=""stimulus-container"">
                    <img src=""images/schematic_sequence/hotel_scheme/hotel_scheme_4.png"" class=""exp-image"">
                    <div class=""question-area""></div> 
                </div>","null","","","","","","","","","","",""
"","","","","","html-button-response","66","257404","0.0-66.0","8E593DF86F9E4D25BBBD31C589B243E8","019cedd1-f13e-724c-aad4-1f45dcc84150","019cedc9-bfe1-7bb5-8857-de065a1e03dd","","845","
                <div class=""stimulus-container"">
                    <img src=""images/schematic_sequence/hotel_scheme/hotel_scheme_4.png"" class=""exp-image"">
                    <div class=""question-area"">
                        <p style=""font-size: 20px; font-weight: bold; margin: 0;"">Is there a person in this image?</p>
                    </div>
                </div>","1","main_experiment_trial","4","hotel_scheme","schematic_sequence","","","","","","",""
"","","","","","html-keyboard-response","67","262406","0.0-67.0","8E593DF86F9E4D25BBBD31C589B243E8","019cedd1-f13e-724c-aad4-1f45dcc84150","019cedc9-bfe1-7bb5-8857-de065a1e03dd","","null","
                <div class=""stimulus-container"">
                    <img src=""images/schematic_sequence/hotel_scheme/hotel_scheme_5.png"" class=""exp-image"">
                    <div class=""question-area""></div> 
                </div>","null","","","","","","","","","","",""
"","","","","","html-button-response","68","263104","0.0-68.0","8E593DF86F9E4D25BBBD31C589B243E8","019cedd1-f13e-724c-aad4-1f45dcc84150","019cedc9-bfe1-7bb5-8857-de065a1e03dd","","697","
                <div class=""stimulus-container"">
                    <img src=""images/schematic_sequence/hotel_scheme/hotel_scheme_5.png"" class=""exp-image"">
                    <div class=""question-area"">
                        <p style=""font-size: 20px; font-weight: bold; margin: 0;"">Is there a person in this image?</p>
                    </div>
                </div>","0","main_experiment_trial","5","hotel_scheme","schematic_sequence","","","","","","",""
"","","","","","html-keyboard-response","69","268106","0.0-69.0","8E593DF86F9E4D25BBBD31C589B243E8","019cedd1-f13e-724c-aad4-1f45dcc84150","019cedc9-bfe1-7bb5-8857-de065a1e03dd","","null","
                <div class=""stimulus-container"">
                    <img src=""images/schematic_sequence/hotel_scheme/hotel_scheme_6.png"" class=""exp-image"">
                    <div class=""question-area""></div> 
                </div>","null","","","","","","","","","","",""
"","","","","","html-button-response","70","268762","0.0-70.0","8E593DF86F9E4D25BBBD31C589B243E8","019cedd1-f13e-724c-aad4-1f45dcc84150","019cedc9-bfe1-7bb5-8857-de065a1e03dd","","656","
                <div class=""stimulus-container"">
                    <img src=""images/schematic_sequence/hotel_scheme/hotel_scheme_6.png"" class=""exp-image"">
                    <div class=""question-area"">
                        <p style=""font-size: 20px; font-weight: bold; margin: 0;"">Is there a person in this image?</p>
                    </div>
                </div>","0","main_experiment_trial","6","hotel_scheme","schematic_sequence","","","","","","",""
"","","","","","html-keyboard-response","71","273764","0.0-71.0","8E593DF86F9E4D25BBBD31C589B243E8","019cedd1-f13e-724c-aad4-1f45dcc84150","019cedc9-bfe1-7bb5-8857-de065a1e03dd","","null","
                <div class=""stimulus-container"">
                    <img src=""images/schematic_sequence/hotel_scheme/hotel_scheme_7.png"" class=""exp-image"">
                    <div class=""question-area""></div> 
                </div>","null","","","","","","","","","","",""
"","","","","","html-button-response","72","274701","0.0-72.0","8E593DF86F9E4D25BBBD31C589B243E8","019cedd1-f13e-724c-aad4-1f45dcc84150","019cedc9-bfe1-7bb5-8857-de065a1e03dd","","936","
                <div class=""stimulus-container"">
                    <img src=""images/schematic_sequence/hotel_scheme/hotel_scheme_7.png"" class=""exp-image"">
                    <div class=""question-area"">
                        <p style=""font-size: 20px; font-weight: bold; margin: 0;"">Is there a person in this image?</p>
                    </div>
                </div>","0","main_experiment_trial","7","hotel_scheme","schematic_sequence","","","","","","",""
"","","","","","html-keyboard-response","73","279703","0.0-73.0","8E593DF86F9E4D25BBBD31C589B243E8","019cedd1-f13e-724c-aad4-1f45dcc84150","019cedc9-bfe1-7bb5-8857-de065a1e03dd","","null","
                <div class=""stimulus-container"">
                    <img src=""images/schematic_sequence/hotel_scheme/hotel_scheme_8.png"" class=""exp-image"">
                    <div class=""question-area""></div> 
                </div>","null","","","","","","","","","","",""
"","","","","","html-button-response","74","280882","0.0-74.0","8E593DF86F9E4D25BBBD31C589B243E8","019cedd1-f13e-724c-aad4-1f45dcc84150","019cedc9-bfe1-7bb5-8857-de065a1e03dd","","1178","
                <div class=""stimulus-container"">
                    <img src=""images/schematic_sequence/hotel_scheme/hotel_scheme_8.png"" class=""exp-image"">
                    <div class=""question-area"">
                        <p style=""font-size: 20px; font-weight: bold; margin: 0;"">Is there a person in this image?</p>
                    </div>
                </div>","0","main_experiment_trial","8","hotel_scheme","schematic_sequence","","","","","","",""
"","","","","","html-keyboard-response","75","285883","0.0-75.0","8E593DF86F9E4D25BBBD31C589B243E8","019cedd1-f13e-724c-aad4-1f45dcc84150","019cedc9-bfe1-7bb5-8857-de065a1e03dd","","null","
                <div class=""stimulus-container"">
                    <img src=""images/schematic_sequence/hotel_scheme/hotel_scheme_9.png"" class=""exp-image"">
                    <div class=""question-area""></div> 
                </div>","null","","","","","","","","","","",""
"","","","","","html-button-response","76","287388","0.0-76.0","8E593DF86F9E4D25BBBD31C589B243E8","019cedd1-f13e-724c-aad4-1f45dcc84150","019cedc9-bfe1-7bb5-8857-de065a1e03dd","","1504","
                <div class=""stimulus-container"">
                    <img src=""images/schematic_sequence/hotel_scheme/hotel_scheme_9.png"" class=""exp-image"">
                    <div class=""question-area"">
                        <p style=""font-size: 20px; font-weight: bold; margin: 0;"">Is there a person in this image?</p>
                    </div>
                </div>","0","main_experiment_trial","9","hotel_scheme","schematic_sequence","","","","","","",""
"","","","","","html-keyboard-response","77","292391","0.0-77.0","8E593DF86F9E4D25BBBD31C589B243E8","019cedd1-f13e-724c-aad4-1f45dcc84150","019cedc9-bfe1-7bb5-8857-de065a1e03dd","","null","
                <div class=""stimulus-container"">
                    <img src=""images/schematic_sequence/hotel_scheme/hotel_scheme_ten.png"" class=""exp-image"">
                    <div class=""question-area""></div> 
                </div>","null","","","","","","","","","","",""
"","","","","","html-button-response","78","293150","0.0-78.0","8E593DF86F9E4D25BBBD31C589B243E8","019cedd1-f13e-724c-aad4-1f45dcc84150","019cedc9-bfe1-7bb5-8857-de065a1e03dd","","758","
                <div class=""stimulus-container"">
                    <img src=""images/schematic_sequence/hotel_scheme/hotel_scheme_ten.png"" class=""exp-image"">
                    <div class=""question-area"">
                        <p style=""font-size: 20px; font-weight: bold; margin: 0;"">Is there a person in this image?</p>
                    </div>
                </div>","0","main_experiment_trial","ten","hotel_scheme","schematic_sequence","","","","","","",""
"","","","","","html-keyboard-response","79","294152","0.0-79.0","8E593DF86F9E4D25BBBD31C589B243E8","019cedd1-f13e-724c-aad4-1f45dcc84150","019cedc9-bfe1-7bb5-8857-de065a1e03dd","","null","<div style=""background-color: white; width: 100vw; height: 100vh;""></div>","null","","","","","","","","","","",""
"","","","","","html-keyboard-response","80","299153","0.0-80.0","8E593DF86F9E4D25BBBD31C589B243E8","019cedd1-f13e-724c-aad4-1f45dcc84150","019cedc9-bfe1-7bb5-8857-de065a1e03dd","","null","
                <div class=""stimulus-container"">
                    <img src=""images/schematic_sequence/dinner_party_scheme/dinner_party_scheme_1.png"" class=""exp-image"">
                    <div class=""question-area""></div> 
                </div>","null","","","","","","","","","","",""
"","","","","","html-button-response","81","299790","0.0-81.0","8E593DF86F9E4D25BBBD31C589B243E8","019cedd1-f13e-724c-aad4-1f45dcc84150","019cedc9-bfe1-7bb5-8857-de065a1e03dd","","636","
                <div class=""stimulus-container"">
                    <img src=""images/schematic_sequence/dinner_party_scheme/dinner_party_scheme_1.png"" class=""exp-image"">
                    <div class=""question-area"">
                        <p style=""font-size: 20px; font-weight: bold; margin: 0;"">Is there a person in this image?</p>
                    </div>
                </div>","0","main_experiment_trial","1","dinner_party_scheme","schematic_sequence","","","","","","",""
"","","","","","html-keyboard-response","82","304792","0.0-82.0","8E593DF86F9E4D25BBBD31C589B243E8","019cedd1-f13e-724c-aad4-1f45dcc84150","019cedc9-bfe1-7bb5-8857-de065a1e03dd","","null","
                <div class=""stimulus-container"">
                    <img src=""images/schematic_sequence/dinner_party_scheme/dinner_party_scheme_2.png"" class=""exp-image"">
                    <div class=""question-area""></div> 
                </div>","null","","","","","","","","","","",""
"","","","","","html-button-response","83","305332","0.0-83.0","8E593DF86F9E4D25BBBD31C589B243E8","019cedd1-f13e-724c-aad4-1f45dcc84150","019cedc9-bfe1-7bb5-8857-de065a1e03dd","","539","
                <div class=""stimulus-container"">
                    <img src=""images/schematic_sequence/dinner_party_scheme/dinner_party_scheme_2.png"" class=""exp-image"">
                    <div class=""question-area"">
                        <p style=""font-size: 20px; font-weight: bold; margin: 0;"">Is there a person in this image?</p>
                    </div>
                </div>","0","main_experiment_trial","2","dinner_party_scheme","schematic_sequence","","","","","","",""
"","","","","","html-keyboard-response","84","310334","0.0-84.0","8E593DF86F9E4D25BBBD31C589B243E8","019cedd1-f13e-724c-aad4-1f45dcc84150","019cedc9-bfe1-7bb5-8857-de065a1e03dd","","null","
                <div class=""stimulus-container"">
                    <img src=""images/schematic_sequence/dinner_party_scheme/dinner_party_scheme_3.png"" class=""exp-image"">
                    <div class=""question-area""></div> 
                </div>","null","","","","","","","","","","",""
"","","","","","html-button-response","85","310952","0.0-85.0","8E593DF86F9E4D25BBBD31C589B243E8","019cedd1-f13e-724c-aad4-1f45dcc84150","019cedc9-bfe1-7bb5-8857-de065a1e03dd","","617","
                <div class=""stimulus-container"">
                    <img src=""images/schematic_sequence/dinner_party_scheme/dinner_party_scheme_3.png"" class=""exp-image"">
                    <div class=""question-area"">
                        <p style=""font-size: 20px; font-weight: bold; margin: 0;"">Is there a person in this image?</p>
                    </div>
                </div>","0","main_experiment_trial","3","dinner_party_scheme","schematic_sequence","","","","","","",""
"","","","","","html-keyboard-response","86","315955","0.0-86.0","8E593DF86F9E4D25BBBD31C589B243E8","019cedd1-f13e-724c-aad4-1f45dcc84150","019cedc9-bfe1-7bb5-8857-de065a1e03dd","","null","
                <div class=""stimulus-container"">
                    <img src=""images/schematic_sequence/dinner_party_scheme/dinner_party_scheme_4.png"" class=""exp-image"">
                    <div class=""question-area""></div> 
                </div>","null","","","","","","","","","","",""
"","","","","","html-button-response","87","316636","0.0-87.0","8E593DF86F9E4D25BBBD31C589B243E8","019cedd1-f13e-724c-aad4-1f45dcc84150","019cedc9-bfe1-7bb5-8857-de065a1e03dd","","681","
                <div class=""stimulus-container"">
                    <img src=""images/schematic_sequence/dinner_party_scheme/dinner_party_scheme_4.png"" class=""exp-image"">
                    <div class=""question-area"">
                        <p style=""font-size: 20px; font-weight: bold; margin: 0;"">Is there a person in this image?</p>
                    </div>
                </div>","0","main_experiment_trial","4","dinner_party_scheme","schematic_sequence","","","","","","",""
"","","","","","html-keyboard-response","88","321639","0.0-88.0","8E593DF86F9E4D25BBBD31C589B243E8","019cedd1-f13e-724c-aad4-1f45dcc84150","019cedc9-bfe1-7bb5-8857-de065a1e03dd","","null","
                <div class=""stimulus-container"">
                    <img src=""images/schematic_sequence/dinner_party_scheme/dinner_party_scheme_5.png"" class=""exp-image"">
                    <div class=""question-area""></div> 
                </div>","null","","","","","","","","","","",""
"","","","","","html-button-response","89","322408","0.0-89.0","8E593DF86F9E4D25BBBD31C589B243E8","019cedd1-f13e-724c-aad4-1f45dcc84150","019cedc9-bfe1-7bb5-8857-de065a1e03dd","","768","
                <div class=""stimulus-container"">
                    <img src=""images/schematic_sequence/dinner_party_scheme/dinner_party_scheme_5.png"" class=""exp-image"">
                    <div class=""question-area"">
                        <p style=""font-size: 20px; font-weight: bold; margin: 0;"">Is there a person in this image?</p>
                    </div>
                </div>","0","main_experiment_trial","5","dinner_party_scheme","schematic_sequence","","","","","","",""
"","","","","","html-keyboard-response","90","327410","0.0-90.0","8E593DF86F9E4D25BBBD31C589B243E8","019cedd1-f13e-724c-aad4-1f45dcc84150","019cedc9-bfe1-7bb5-8857-de065a1e03dd","","null","
                <div class=""stimulus-container"">
                    <img src=""images/schematic_sequence/dinner_party_scheme/dinner_party_scheme_6.png"" class=""exp-image"">
                    <div class=""question-area""></div> 
                </div>","null","","","","","","","","","","",""
"","","","","","html-button-response","91","328302","0.0-91.0","8E593DF86F9E4D25BBBD31C589B243E8","019cedd1-f13e-724c-aad4-1f45dcc84150","019cedc9-bfe1-7bb5-8857-de065a1e03dd","","891","
                <div class=""stimulus-container"">
                    <img src=""images/schematic_sequence/dinner_party_scheme/dinner_party_scheme_6.png"" class=""exp-image"">
                    <div class=""question-area"">
                        <p style=""font-size: 20px; font-weight: bold; margin: 0;"">Is there a person in this image?</p>
                    </div>
                </div>","0","main_experiment_trial","6","dinner_party_scheme","schematic_sequence","","","","","","",""
"","","","","","html-keyboard-response","92","333303","0.0-92.0","8E593DF86F9E4D25BBBD31C589B243E8","019cedd1-f13e-724c-aad4-1f45dcc84150","019cedc9-bfe1-7bb5-8857-de065a1e03dd","","null","
                <div class=""stimulus-container"">
                    <img src=""images/schematic_sequence/dinner_party_scheme/dinner_party_scheme_7.png"" class=""exp-image"">
                    <div class=""question-area""></div> 
                </div>","null","","","","","","","","","","",""
"","","","","","html-button-response","93","334388","0.0-93.0","8E593DF86F9E4D25BBBD31C589B243E8","019cedd1-f13e-724c-aad4-1f45dcc84150","019cedc9-bfe1-7bb5-8857-de065a1e03dd","","1084","
                <div class=""stimulus-container"">
                    <img src=""images/schematic_sequence/dinner_party_scheme/dinner_party_scheme_7.png"" class=""exp-image"">
                    <div class=""question-area"">
                        <p style=""font-size: 20px; font-weight: bold; margin: 0;"">Is there a person in this image?</p>
                    </div>
                </div>","0","main_experiment_trial","7","dinner_party_scheme","schematic_sequence","","","","","","",""
"","","","","","html-keyboard-response","94","339390","0.0-94.0","8E593DF86F9E4D25BBBD31C589B243E8","019cedd1-f13e-724c-aad4-1f45dcc84150","019cedc9-bfe1-7bb5-8857-de065a1e03dd","","null","
                <div class=""stimulus-container"">
                    <img src=""images/schematic_sequence/dinner_party_scheme/dinner_party_scheme_8.png"" class=""exp-image"">
                    <div class=""question-area""></div> 
                </div>","null","","","","","","","","","","",""
"","","","","","html-button-response","95","340346","0.0-95.0","8E593DF86F9E4D25BBBD31C589B243E8","019cedd1-f13e-724c-aad4-1f45dcc84150","019cedc9-bfe1-7bb5-8857-de065a1e03dd","","955","
                <div class=""stimulus-container"">
                    <img src=""images/schematic_sequence/dinner_party_scheme/dinner_party_scheme_8.png"" class=""exp-image"">
                    <div class=""question-area"">
                        <p style=""font-size: 20px; font-weight: bold; margin: 0;"">Is there a person in this image?</p>
                    </div>
                </div>","0","main_experiment_trial","8","dinner_party_scheme","schematic_sequence","","","","","","",""
"","","","","","html-keyboard-response","96","345347","0.0-96.0","8E593DF86F9E4D25BBBD31C589B243E8","019cedd1-f13e-724c-aad4-1f45dcc84150","019cedc9-bfe1-7bb5-8857-de065a1e03dd","","null","
                <div class=""stimulus-container"">
                    <img src=""images/schematic_sequence/dinner_party_scheme/dinner_party_scheme_9.png"" class=""exp-image"">
                    <div class=""question-area""></div> 
                </div>","null","","","","","","","","","","",""
"","","","","","html-button-response","97","345987","0.0-97.0","8E593DF86F9E4D25BBBD31C589B243E8","019cedd1-f13e-724c-aad4-1f45dcc84150","019cedc9-bfe1-7bb5-8857-de065a1e03dd","","639","
                <div class=""stimulus-container"">
                    <img src=""images/schematic_sequence/dinner_party_scheme/dinner_party_scheme_9.png"" class=""exp-image"">
                    <div class=""question-area"">
                        <p style=""font-size: 20px; font-weight: bold; margin: 0;"">Is there a person in this image?</p>
                    </div>
                </div>","0","main_experiment_trial","9","dinner_party_scheme","schematic_sequence","","","","","","",""
"","","","","","html-keyboard-response","98","350989","0.0-98.0","8E593DF86F9E4D25BBBD31C589B243E8","019cedd1-f13e-724c-aad4-1f45dcc84150","019cedc9-bfe1-7bb5-8857-de065a1e03dd","","null","
                <div class=""stimulus-container"">
                    <img src=""images/schematic_sequence/dinner_party_scheme/dinner_party_scheme_ten.png"" class=""exp-image"">
                    <div class=""question-area""></div> 
                </div>","null","","","","","","","","","","",""
"","","","","","html-button-response","99","352074","0.0-99.0","8E593DF86F9E4D25BBBD31C589B243E8","019cedd1-f13e-724c-aad4-1f45dcc84150","019cedc9-bfe1-7bb5-8857-de065a1e03dd","","1084","
                <div class=""stimulus-container"">
                    <img src=""images/schematic_sequence/dinner_party_scheme/dinner_party_scheme_ten.png"" class=""exp-image"">
                    <div class=""question-area"">
                        <p style=""font-size: 20px; font-weight: bold; margin: 0;"">Is there a person in this image?</p>
                    </div>
                </div>","0","main_experiment_trial","ten","dinner_party_scheme","schematic_sequence","","","","","","",""
"","","","","","html-keyboard-response","100","353077","0.0-100.0","8E593DF86F9E4D25BBBD31C589B243E8","019cedd1-f13e-724c-aad4-1f45dcc84150","019cedc9-bfe1-7bb5-8857-de065a1e03dd","","null","<div style=""background-color: white; width: 100vw; height: 100vh;""></div>","null","","","","","","","","","","",""
"","","","","","html-keyboard-response","101","358078","0.0-101.0","8E593DF86F9E4D25BBBD31C589B243E8","019cedd1-f13e-724c-aad4-1f45dcc84150","019cedc9-bfe1-7bb5-8857-de065a1e03dd","","null","
                <div class=""stimulus-container"">
                    <img src=""images/causal_sequence/dog_causal/dog_causal_1.png"" class=""exp-image"">
                    <div class=""question-area""></div> 
                </div>","null","","","","","","","","","","",""
"","","","","","html-button-response","102","358602","0.0-102.0","8E593DF86F9E4D25BBBD31C589B243E8","019cedd1-f13e-724c-aad4-1f45dcc84150","019cedc9-bfe1-7bb5-8857-de065a1e03dd","","523","
                <div class=""stimulus-container"">
                    <img src=""images/causal_sequence/dog_causal/dog_causal_1.png"" class=""exp-image"">
                    <div class=""question-area"">
                        <p style=""font-size: 20px; font-weight: bold; margin: 0;"">Is there a person in this image?</p>
                    </div>
                </div>","0","main_experiment_trial","1","dog_causal","causal_sequence","","","","","","",""
"","","","","","html-keyboard-response","103","363604","0.0-103.0","8E593DF86F9E4D25BBBD31C589B243E8","019cedd1-f13e-724c-aad4-1f45dcc84150","019cedc9-bfe1-7bb5-8857-de065a1e03dd","","null","
                <div class=""stimulus-container"">
                    <img src=""images/causal_sequence/dog_causal/dog_causal_2.png"" class=""exp-image"">
                    <div class=""question-area""></div> 
                </div>","null","","","","","","","","","","",""
"","","","","","html-button-response","104","364347","0.0-104.0","8E593DF86F9E4D25BBBD31C589B243E8","019cedd1-f13e-724c-aad4-1f45dcc84150","019cedc9-bfe1-7bb5-8857-de065a1e03dd","","742","
                <div class=""stimulus-container"">
                    <img src=""images/causal_sequence/dog_causal/dog_causal_2.png"" class=""exp-image"">
                    <div class=""question-area"">
                        <p style=""font-size: 20px; font-weight: bold; margin: 0;"">Is there a person in this image?</p>
                    </div>
                </div>","0","main_experiment_trial","2","dog_causal","causal_sequence","","","","","","",""
"","","","","","html-keyboard-response","105","369349","0.0-105.0","8E593DF86F9E4D25BBBD31C589B243E8","019cedd1-f13e-724c-aad4-1f45dcc84150","019cedc9-bfe1-7bb5-8857-de065a1e03dd","","null","
                <div class=""stimulus-container"">
                    <img src=""images/causal_sequence/dog_causal/dog_causal_3.png"" class=""exp-image"">
                    <div class=""question-area""></div> 
                </div>","null","","","","","","","","","","",""
"","","","","","html-button-response","106","370181","0.0-106.0","8E593DF86F9E4D25BBBD31C589B243E8","019cedd1-f13e-724c-aad4-1f45dcc84150","019cedc9-bfe1-7bb5-8857-de065a1e03dd","","831","
                <div class=""stimulus-container"">
                    <img src=""images/causal_sequence/dog_causal/dog_causal_3.png"" class=""exp-image"">
                    <div class=""question-area"">
                        <p style=""font-size: 20px; font-weight: bold; margin: 0;"">Is there a person in this image?</p>
                    </div>
                </div>","0","main_experiment_trial","3","dog_causal","causal_sequence","","","","","","",""
"","","","","","html-keyboard-response","107","375182","0.0-107.0","8E593DF86F9E4D25BBBD31C589B243E8","019cedd1-f13e-724c-aad4-1f45dcc84150","019cedc9-bfe1-7bb5-8857-de065a1e03dd","","null","
                <div class=""stimulus-container"">
                    <img src=""images/causal_sequence/dog_causal/dog_causal_4.png"" class=""exp-image"">
                    <div class=""question-area""></div> 
                </div>","null","","","","","","","","","","",""
"","","","","","html-button-response","108","376179","0.0-108.0","8E593DF86F9E4D25BBBD31C589B243E8","019cedd1-f13e-724c-aad4-1f45dcc84150","019cedc9-bfe1-7bb5-8857-de065a1e03dd","","997","
                <div class=""stimulus-container"">
                    <img src=""images/causal_sequence/dog_causal/dog_causal_4.png"" class=""exp-image"">
                    <div class=""question-area"">
                        <p style=""font-size: 20px; font-weight: bold; margin: 0;"">Is there a person in this image?</p>
                    </div>
                </div>","0","main_experiment_trial","4","dog_causal","causal_sequence","","","","","","",""
"","","","","","html-keyboard-response","109","381181","0.0-109.0","8E593DF86F9E4D25BBBD31C589B243E8","019cedd1-f13e-724c-aad4-1f45dcc84150","019cedc9-bfe1-7bb5-8857-de065a1e03dd","","null","
                <div class=""stimulus-container"">
                    <img src=""images/causal_sequence/dog_causal/dog_causal_5.png"" class=""exp-image"">
                    <div class=""question-area""></div> 
                </div>","null","","","","","","","","","","",""
"","","","","","html-button-response","110","381963","0.0-110.0","8E593DF86F9E4D25BBBD31C589B243E8","019cedd1-f13e-724c-aad4-1f45dcc84150","019cedc9-bfe1-7bb5-8857-de065a1e03dd","","781","
                <div class=""stimulus-container"">
                    <img src=""images/causal_sequence/dog_causal/dog_causal_5.png"" class=""exp-image"">
                    <div class=""question-area"">
                        <p style=""font-size: 20px; font-weight: bold; margin: 0;"">Is there a person in this image?</p>
                    </div>
                </div>","0","main_experiment_trial","5","dog_causal","causal_sequence","","","","","","",""
"","","","","","html-keyboard-response","111","386965","0.0-111.0","8E593DF86F9E4D25BBBD31C589B243E8","019cedd1-f13e-724c-aad4-1f45dcc84150","019cedc9-bfe1-7bb5-8857-de065a1e03dd","","null","
                <div class=""stimulus-container"">
                    <img src=""images/causal_sequence/dog_causal/dog_causal_6.png"" class=""exp-image"">
                    <div class=""question-area""></div> 
                </div>","null","","","","","","","","","","",""
"","","","","","html-button-response","112","387917","0.0-112.0","8E593DF86F9E4D25BBBD31C589B243E8","019cedd1-f13e-724c-aad4-1f45dcc84150","019cedc9-bfe1-7bb5-8857-de065a1e03dd","","950","
                <div class=""stimulus-container"">
                    <img src=""images/causal_sequence/dog_causal/dog_causal_6.png"" class=""exp-image"">
                    <div class=""question-area"">
                        <p style=""font-size: 20px; font-weight: bold; margin: 0;"">Is there a person in this image?</p>
                    </div>
                </div>","0","main_experiment_trial","6","dog_causal","causal_sequence","","","","","","",""
"","","","","","html-keyboard-response","113","392919","0.0-113.0","8E593DF86F9E4D25BBBD31C589B243E8","019cedd1-f13e-724c-aad4-1f45dcc84150","019cedc9-bfe1-7bb5-8857-de065a1e03dd","","null","
                <div class=""stimulus-container"">
                    <img src=""images/causal_sequence/dog_causal/dog_causal_7.png"" class=""exp-image"">
                    <div class=""question-area""></div> 
                </div>","null","","","","","","","","","","",""
"","","","","","html-button-response","114","393780","0.0-114.0","8E593DF86F9E4D25BBBD31C589B243E8","019cedd1-f13e-724c-aad4-1f45dcc84150","019cedc9-bfe1-7bb5-8857-de065a1e03dd","","860","
                <div class=""stimulus-container"">
                    <img src=""images/causal_sequence/dog_causal/dog_causal_7.png"" class=""exp-image"">
                    <div class=""question-area"">
                        <p style=""font-size: 20px; font-weight: bold; margin: 0;"">Is there a person in this image?</p>
                    </div>
                </div>","0","main_experiment_trial","7","dog_causal","causal_sequence","","","","","","",""
"","","","","","html-keyboard-response","115","398782","0.0-115.0","8E593DF86F9E4D25BBBD31C589B243E8","019cedd1-f13e-724c-aad4-1f45dcc84150","019cedc9-bfe1-7bb5-8857-de065a1e03dd","","null","
                <div class=""stimulus-container"">
                    <img src=""images/causal_sequence/dog_causal/dog_causal_8.png"" class=""exp-image"">
                    <div class=""question-area""></div> 
                </div>","null","","","","","","","","","","",""
"","","","","","html-button-response","116","399428","0.0-116.0","8E593DF86F9E4D25BBBD31C589B243E8","019cedd1-f13e-724c-aad4-1f45dcc84150","019cedc9-bfe1-7bb5-8857-de065a1e03dd","","645","
                <div class=""stimulus-container"">
                    <img src=""images/causal_sequence/dog_causal/dog_causal_8.png"" class=""exp-image"">
                    <div class=""question-area"">
                        <p style=""font-size: 20px; font-weight: bold; margin: 0;"">Is there a person in this image?</p>
                    </div>
                </div>","0","main_experiment_trial","8","dog_causal","causal_sequence","","","","","","",""
"","","","","","html-keyboard-response","117","404430","0.0-117.0","8E593DF86F9E4D25BBBD31C589B243E8","019cedd1-f13e-724c-aad4-1f45dcc84150","019cedc9-bfe1-7bb5-8857-de065a1e03dd","","null","
                <div class=""stimulus-container"">
                    <img src=""images/causal_sequence/dog_causal/dog_causal_9.png"" class=""exp-image"">
                    <div class=""question-area""></div> 
                </div>","null","","","","","","","","","","",""
"","","","","","html-button-response","118","405044","0.0-118.0","8E593DF86F9E4D25BBBD31C589B243E8","019cedd1-f13e-724c-aad4-1f45dcc84150","019cedc9-bfe1-7bb5-8857-de065a1e03dd","","613","
                <div class=""stimulus-container"">
                    <img src=""images/causal_sequence/dog_causal/dog_causal_9.png"" class=""exp-image"">
                    <div class=""question-area"">
                        <p style=""font-size: 20px; font-weight: bold; margin: 0;"">Is there a person in this image?</p>
                    </div>
                </div>","0","main_experiment_trial","9","dog_causal","causal_sequence","","","","","","",""
"","","","","","html-keyboard-response","119","410046","0.0-119.0","8E593DF86F9E4D25BBBD31C589B243E8","019cedd1-f13e-724c-aad4-1f45dcc84150","019cedc9-bfe1-7bb5-8857-de065a1e03dd","","null","
                <div class=""stimulus-container"">
                    <img src=""images/causal_sequence/dog_causal/dog_causal_ten.png"" class=""exp-image"">
                    <div class=""question-area""></div> 
                </div>","null","","","","","","","","","","",""
"","","","","","html-button-response","120","410607","0.0-120.0","8E593DF86F9E4D25BBBD31C589B243E8","019cedd1-f13e-724c-aad4-1f45dcc84150","019cedc9-bfe1-7bb5-8857-de065a1e03dd","","561","
                <div class=""stimulus-container"">
                    <img src=""images/causal_sequence/dog_causal/dog_causal_ten.png"" class=""exp-image"">
                    <div class=""question-area"">
                        <p style=""font-size: 20px; font-weight: bold; margin: 0;"">Is there a person in this image?</p>
                    </div>
                </div>","0","main_experiment_trial","ten","dog_causal","causal_sequence","","","","","","",""
"","","","","","html-keyboard-response","121","411609","0.0-121.0","8E593DF86F9E4D25BBBD31C589B243E8","019cedd1-f13e-724c-aad4-1f45dcc84150","019cedc9-bfe1-7bb5-8857-de065a1e03dd","","null","<div style=""background-color: white; width: 100vw; height: 100vh;""></div>","null","","","","","","","","","","",""
"","","","","","html-keyboard-response","122","416611","0.0-122.0","8E593DF86F9E4D25BBBD31C589B243E8","019cedd1-f13e-724c-aad4-1f45dcc84150","019cedc9-bfe1-7bb5-8857-de065a1e03dd","","null","
                <div class=""stimulus-container"">
                    <img src=""images/causal_sequence/package_causal/package_causal_1.png"" class=""exp-image"">
                    <div class=""question-area""></div> 
                </div>","null","","","","","","","","","","",""
"","","","","","html-button-response","123","417253","0.0-123.0","8E593DF86F9E4D25BBBD31C589B243E8","019cedd1-f13e-724c-aad4-1f45dcc84150","019cedc9-bfe1-7bb5-8857-de065a1e03dd","","642","
                <div class=""stimulus-container"">
                    <img src=""images/causal_sequence/package_causal/package_causal_1.png"" class=""exp-image"">
                    <div class=""question-area"">
                        <p style=""font-size: 20px; font-weight: bold; margin: 0;"">Is there a person in this image?</p>
                    </div>
                </div>","0","main_experiment_trial","1","package_causal","causal_sequence","","","","","","",""
"","","","","","html-keyboard-response","124","422255","0.0-124.0","8E593DF86F9E4D25BBBD31C589B243E8","019cedd1-f13e-724c-aad4-1f45dcc84150","019cedc9-bfe1-7bb5-8857-de065a1e03dd","","null","
                <div class=""stimulus-container"">
                    <img src=""images/causal_sequence/package_causal/package_causal_2.png"" class=""exp-image"">
                    <div class=""question-area""></div> 
                </div>","null","","","","","","","","","","",""
"","","","","","html-button-response","125","422924","0.0-125.0","8E593DF86F9E4D25BBBD31C589B243E8","019cedd1-f13e-724c-aad4-1f45dcc84150","019cedc9-bfe1-7bb5-8857-de065a1e03dd","","669","
                <div class=""stimulus-container"">
                    <img src=""images/causal_sequence/package_causal/package_causal_2.png"" class=""exp-image"">
                    <div class=""question-area"">
                        <p style=""font-size: 20px; font-weight: bold; margin: 0;"">Is there a person in this image?</p>
                    </div>
                </div>","0","main_experiment_trial","2","package_causal","causal_sequence","","","","","","",""
"","","","","","html-keyboard-response","126","427926","0.0-126.0","8E593DF86F9E4D25BBBD31C589B243E8","019cedd1-f13e-724c-aad4-1f45dcc84150","019cedc9-bfe1-7bb5-8857-de065a1e03dd","","null","
                <div class=""stimulus-container"">
                    <img src=""images/causal_sequence/package_causal/package_causal_3.png"" class=""exp-image"">
                    <div class=""question-area""></div> 
                </div>","null","","","","","","","","","","",""
"","","","","","html-button-response","127","428432","0.0-127.0","8E593DF86F9E4D25BBBD31C589B243E8","019cedd1-f13e-724c-aad4-1f45dcc84150","019cedc9-bfe1-7bb5-8857-de065a1e03dd","","505","
                <div class=""stimulus-container"">
                    <img src=""images/causal_sequence/package_causal/package_causal_3.png"" class=""exp-image"">
                    <div class=""question-area"">
                        <p style=""font-size: 20px; font-weight: bold; margin: 0;"">Is there a person in this image?</p>
                    </div>
                </div>","0","main_experiment_trial","3","package_causal","causal_sequence","","","","","","",""
"","","","","","html-keyboard-response","128","433435","0.0-128.0","8E593DF86F9E4D25BBBD31C589B243E8","019cedd1-f13e-724c-aad4-1f45dcc84150","019cedc9-bfe1-7bb5-8857-de065a1e03dd","","null","
                <div class=""stimulus-container"">
                    <img src=""images/causal_sequence/package_causal/package_causal_4.png"" class=""exp-image"">
                    <div class=""question-area""></div> 
                </div>","null","","","","","","","","","","",""
"","","","","","html-button-response","129","434588","0.0-129.0","8E593DF86F9E4D25BBBD31C589B243E8","019cedd1-f13e-724c-aad4-1f45dcc84150","019cedc9-bfe1-7bb5-8857-de065a1e03dd","","1152","
                <div class=""stimulus-container"">
                    <img src=""images/causal_sequence/package_causal/package_causal_4.png"" class=""exp-image"">
                    <div class=""question-area"">
                        <p style=""font-size: 20px; font-weight: bold; margin: 0;"">Is there a person in this image?</p>
                    </div>
                </div>","1","main_experiment_trial","4","package_causal","causal_sequence","","","","","","",""
"","","","","","html-keyboard-response","130","439590","0.0-130.0","8E593DF86F9E4D25BBBD31C589B243E8","019cedd1-f13e-724c-aad4-1f45dcc84150","019cedc9-bfe1-7bb5-8857-de065a1e03dd","","null","
                <div class=""stimulus-container"">
                    <img src=""images/causal_sequence/package_causal/package_causal_5.png"" class=""exp-image"">
                    <div class=""question-area""></div> 
                </div>","null","","","","","","","","","","",""
"","","","","","html-button-response","131","440656","0.0-131.0","8E593DF86F9E4D25BBBD31C589B243E8","019cedd1-f13e-724c-aad4-1f45dcc84150","019cedc9-bfe1-7bb5-8857-de065a1e03dd","","1065","
                <div class=""stimulus-container"">
                    <img src=""images/causal_sequence/package_causal/package_causal_5.png"" class=""exp-image"">
                    <div class=""question-area"">
                        <p style=""font-size: 20px; font-weight: bold; margin: 0;"">Is there a person in this image?</p>
                    </div>
                </div>","0","main_experiment_trial","5","package_causal","causal_sequence","","","","","","",""
"","","","","","html-keyboard-response","132","445658","0.0-132.0","8E593DF86F9E4D25BBBD31C589B243E8","019cedd1-f13e-724c-aad4-1f45dcc84150","019cedc9-bfe1-7bb5-8857-de065a1e03dd","","null","
                <div class=""stimulus-container"">
                    <img src=""images/causal_sequence/package_causal/package_causal_6.png"" class=""exp-image"">
                    <div class=""question-area""></div> 
                </div>","null","","","","","","","","","","",""
"","","","","","html-button-response","133","446550","0.0-133.0","8E593DF86F9E4D25BBBD31C589B243E8","019cedd1-f13e-724c-aad4-1f45dcc84150","019cedc9-bfe1-7bb5-8857-de065a1e03dd","","891","
                <div class=""stimulus-container"">
                    <img src=""images/causal_sequence/package_causal/package_causal_6.png"" class=""exp-image"">
                    <div class=""question-area"">
                        <p style=""font-size: 20px; font-weight: bold; margin: 0;"">Is there a person in this image?</p>
                    </div>
                </div>","0","main_experiment_trial","6","package_causal","causal_sequence","","","","","","",""
"","","","","","html-keyboard-response","134","451550","0.0-134.0","8E593DF86F9E4D25BBBD31C589B243E8","019cedd1-f13e-724c-aad4-1f45dcc84150","019cedc9-bfe1-7bb5-8857-de065a1e03dd","","null","
                <div class=""stimulus-container"">
                    <img src=""images/causal_sequence/package_causal/package_causal_7.png"" class=""exp-image"">
                    <div class=""question-area""></div> 
                </div>","null","","","","","","","","","","",""
"","","","","","html-button-response","135","452105","0.0-135.0","8E593DF86F9E4D25BBBD31C589B243E8","019cedd1-f13e-724c-aad4-1f45dcc84150","019cedc9-bfe1-7bb5-8857-de065a1e03dd","","554","
                <div class=""stimulus-container"">
                    <img src=""images/causal_sequence/package_causal/package_causal_7.png"" class=""exp-image"">
                    <div class=""question-area"">
                        <p style=""font-size: 20px; font-weight: bold; margin: 0;"">Is there a person in this image?</p>
                    </div>
                </div>","0","main_experiment_trial","7","package_causal","causal_sequence","","","","","","",""
"","","","","","html-keyboard-response","136","457106","0.0-136.0","8E593DF86F9E4D25BBBD31C589B243E8","019cedd1-f13e-724c-aad4-1f45dcc84150","019cedc9-bfe1-7bb5-8857-de065a1e03dd","","null","
                <div class=""stimulus-container"">
                    <img src=""images/causal_sequence/package_causal/package_causal_8.png"" class=""exp-image"">
                    <div class=""question-area""></div> 
                </div>","null","","","","","","","","","","",""
"","","","","","html-button-response","137","457773","0.0-137.0","8E593DF86F9E4D25BBBD31C589B243E8","019cedd1-f13e-724c-aad4-1f45dcc84150","019cedc9-bfe1-7bb5-8857-de065a1e03dd","","666","
                <div class=""stimulus-container"">
                    <img src=""images/causal_sequence/package_causal/package_causal_8.png"" class=""exp-image"">
                    <div class=""question-area"">
                        <p style=""font-size: 20px; font-weight: bold; margin: 0;"">Is there a person in this image?</p>
                    </div>
                </div>","0","main_experiment_trial","8","package_causal","causal_sequence","","","","","","",""
"","","","","","html-keyboard-response","138","462776","0.0-138.0","8E593DF86F9E4D25BBBD31C589B243E8","019cedd1-f13e-724c-aad4-1f45dcc84150","019cedc9-bfe1-7bb5-8857-de065a1e03dd","","null","
                <div class=""stimulus-container"">
                    <img src=""images/causal_sequence/package_causal/package_causal_9.png"" class=""exp-image"">
                    <div class=""question-area""></div> 
                </div>","null","","","","","","","","","","",""
"","","","","","html-button-response","139","463886","0.0-139.0","8E593DF86F9E4D25BBBD31C589B243E8","019cedd1-f13e-724c-aad4-1f45dcc84150","019cedc9-bfe1-7bb5-8857-de065a1e03dd","","1109","
                <div class=""stimulus-container"">
                    <img src=""images/causal_sequence/package_causal/package_causal_9.png"" class=""exp-image"">
                    <div class=""question-area"">
                        <p style=""font-size: 20px; font-weight: bold; margin: 0;"">Is there a person in this image?</p>
                    </div>
                </div>","0","main_experiment_trial","9","package_causal","causal_sequence","","","","","","",""
"","","","","","html-keyboard-response","140","468889","0.0-140.0","8E593DF86F9E4D25BBBD31C589B243E8","019cedd1-f13e-724c-aad4-1f45dcc84150","019cedc9-bfe1-7bb5-8857-de065a1e03dd","","null","
                <div class=""stimulus-container"">
                    <img src=""images/causal_sequence/package_causal/package_causal_ten.png"" class=""exp-image"">
                    <div class=""question-area""></div> 
                </div>","null","","","","","","","","","","",""
"","","","","","html-button-response","141","470071","0.0-141.0","8E593DF86F9E4D25BBBD31C589B243E8","019cedd1-f13e-724c-aad4-1f45dcc84150","019cedc9-bfe1-7bb5-8857-de065a1e03dd","","1181","
                <div class=""stimulus-container"">
                    <img src=""images/causal_sequence/package_causal/package_causal_ten.png"" class=""exp-image"">
                    <div class=""question-area"">
                        <p style=""font-size: 20px; font-weight: bold; margin: 0;"">Is there a person in this image?</p>
                    </div>
                </div>","0","main_experiment_trial","ten","package_causal","causal_sequence","","","","","","",""
"","","","","","html-keyboard-response","142","471073","0.0-142.0","8E593DF86F9E4D25BBBD31C589B243E8","019cedd1-f13e-724c-aad4-1f45dcc84150","019cedc9-bfe1-7bb5-8857-de065a1e03dd","","null","<div style=""background-color: white; width: 100vw; height: 100vh;""></div>","null","","","","","","","","","","",""
"","","","","","html-keyboard-response","143","476075","0.0-143.0","8E593DF86F9E4D25BBBD31C589B243E8","019cedd1-f13e-724c-aad4-1f45dcc84150","019cedc9-bfe1-7bb5-8857-de065a1e03dd","","null","
                <div class=""stimulus-container"">
                    <img src=""images/causal_sequence/coin_causal/coin_causal_1.png"" class=""exp-image"">
                    <div class=""question-area""></div> 
                </div>","null","","","","","","","","","","",""
"","","","","","html-button-response","144","477035","0.0-144.0","8E593DF86F9E4D25BBBD31C589B243E8","019cedd1-f13e-724c-aad4-1f45dcc84150","019cedc9-bfe1-7bb5-8857-de065a1e03dd","","960","
                <div class=""stimulus-container"">
                    <img src=""images/causal_sequence/coin_causal/coin_causal_1.png"" class=""exp-image"">
                    <div class=""question-area"">
                        <p style=""font-size: 20px; font-weight: bold; margin: 0;"">Is there a person in this image?</p>
                    </div>
                </div>","0","main_experiment_trial","1","coin_causal","causal_sequence","","","","","","",""
"","","","","","html-keyboard-response","145","482036","0.0-145.0","8E593DF86F9E4D25BBBD31C589B243E8","019cedd1-f13e-724c-aad4-1f45dcc84150","019cedc9-bfe1-7bb5-8857-de065a1e03dd","","null","
                <div class=""stimulus-container"">
                    <img src=""images/causal_sequence/coin_causal/coin_causal_2.png"" class=""exp-image"">
                    <div class=""question-area""></div> 
                </div>","null","","","","","","","","","","",""
"","","","","","html-button-response","146","482716","0.0-146.0","8E593DF86F9E4D25BBBD31C589B243E8","019cedd1-f13e-724c-aad4-1f45dcc84150","019cedc9-bfe1-7bb5-8857-de065a1e03dd","","678","
                <div class=""stimulus-container"">
                    <img src=""images/causal_sequence/coin_causal/coin_causal_2.png"" class=""exp-image"">
                    <div class=""question-area"">
                        <p style=""font-size: 20px; font-weight: bold; margin: 0;"">Is there a person in this image?</p>
                    </div>
                </div>","0","main_experiment_trial","2","coin_causal","causal_sequence","","","","","","",""
"","","","","","html-keyboard-response","147","487718","0.0-147.0","8E593DF86F9E4D25BBBD31C589B243E8","019cedd1-f13e-724c-aad4-1f45dcc84150","019cedc9-bfe1-7bb5-8857-de065a1e03dd","","null","
                <div class=""stimulus-container"">
                    <img src=""images/causal_sequence/coin_causal/coin_causal_3.png"" class=""exp-image"">
                    <div class=""question-area""></div> 
                </div>","null","","","","","","","","","","",""
"","","","","","html-button-response","148","488665","0.0-148.0","8E593DF86F9E4D25BBBD31C589B243E8","019cedd1-f13e-724c-aad4-1f45dcc84150","019cedc9-bfe1-7bb5-8857-de065a1e03dd","","946","
                <div class=""stimulus-container"">
                    <img src=""images/causal_sequence/coin_causal/coin_causal_3.png"" class=""exp-image"">
                    <div class=""question-area"">
                        <p style=""font-size: 20px; font-weight: bold; margin: 0;"">Is there a person in this image?</p>
                    </div>
                </div>","0","main_experiment_trial","3","coin_causal","causal_sequence","","","","","","",""
"","","","","","html-keyboard-response","149","493666","0.0-149.0","8E593DF86F9E4D25BBBD31C589B243E8","019cedd1-f13e-724c-aad4-1f45dcc84150","019cedc9-bfe1-7bb5-8857-de065a1e03dd","","null","
                <div class=""stimulus-container"">
                    <img src=""images/causal_sequence/coin_causal/coin_causal_4.png"" class=""exp-image"">
                    <div class=""question-area""></div> 
                </div>","null","","","","","","","","","","",""
"","","","","","html-button-response","150","494637","0.0-150.0","8E593DF86F9E4D25BBBD31C589B243E8","019cedd1-f13e-724c-aad4-1f45dcc84150","019cedc9-bfe1-7bb5-8857-de065a1e03dd","","971","
                <div class=""stimulus-container"">
                    <img src=""images/causal_sequence/coin_causal/coin_causal_4.png"" class=""exp-image"">
                    <div class=""question-area"">
                        <p style=""font-size: 20px; font-weight: bold; margin: 0;"">Is there a person in this image?</p>
                    </div>
                </div>","0","main_experiment_trial","4","coin_causal","causal_sequence","","","","","","",""
"","","","","","html-keyboard-response","151","499640","0.0-151.0","8E593DF86F9E4D25BBBD31C589B243E8","019cedd1-f13e-724c-aad4-1f45dcc84150","019cedc9-bfe1-7bb5-8857-de065a1e03dd","","null","
                <div class=""stimulus-container"">
                    <img src=""images/causal_sequence/coin_causal/coin_causal_5.png"" class=""exp-image"">
                    <div class=""question-area""></div> 
                </div>","null","","","","","","","","","","",""
"","","","","","html-button-response","152","500464","0.0-152.0","8E593DF86F9E4D25BBBD31C589B243E8","019cedd1-f13e-724c-aad4-1f45dcc84150","019cedc9-bfe1-7bb5-8857-de065a1e03dd","","824","
                <div class=""stimulus-container"">
                    <img src=""images/causal_sequence/coin_causal/coin_causal_5.png"" class=""exp-image"">
                    <div class=""question-area"">
                        <p style=""font-size: 20px; font-weight: bold; margin: 0;"">Is there a person in this image?</p>
                    </div>
                </div>","0","main_experiment_trial","5","coin_causal","causal_sequence","","","","","","",""
"","","","","","html-keyboard-response","153","505466","0.0-153.0","8E593DF86F9E4D25BBBD31C589B243E8","019cedd1-f13e-724c-aad4-1f45dcc84150","019cedc9-bfe1-7bb5-8857-de065a1e03dd","","null","
                <div class=""stimulus-container"">
                    <img src=""images/causal_sequence/coin_causal/coin_causal_6.png"" class=""exp-image"">
                    <div class=""question-area""></div> 
                </div>","null","","","","","","","","","","",""
"","","","","","html-button-response","154","506519","0.0-154.0","8E593DF86F9E4D25BBBD31C589B243E8","019cedd1-f13e-724c-aad4-1f45dcc84150","019cedc9-bfe1-7bb5-8857-de065a1e03dd","","1052","
                <div class=""stimulus-container"">
                    <img src=""images/causal_sequence/coin_causal/coin_causal_6.png"" class=""exp-image"">
                    <div class=""question-area"">
                        <p style=""font-size: 20px; font-weight: bold; margin: 0;"">Is there a person in this image?</p>
                    </div>
                </div>","0","main_experiment_trial","6","coin_causal","causal_sequence","","","","","","",""
"","","","","","html-keyboard-response","155","511520","0.0-155.0","8E593DF86F9E4D25BBBD31C589B243E8","019cedd1-f13e-724c-aad4-1f45dcc84150","019cedc9-bfe1-7bb5-8857-de065a1e03dd","","null","
                <div class=""stimulus-container"">
                    <img src=""images/causal_sequence/coin_causal/coin_causal_7.png"" class=""exp-image"">
                    <div class=""question-area""></div> 
                </div>","null","","","","","","","","","","",""
"","","","","","html-button-response","156","512464","0.0-156.0","8E593DF86F9E4D25BBBD31C589B243E8","019cedd1-f13e-724c-aad4-1f45dcc84150","019cedc9-bfe1-7bb5-8857-de065a1e03dd","","943","
                <div class=""stimulus-container"">
                    <img src=""images/causal_sequence/coin_causal/coin_causal_7.png"" class=""exp-image"">
                    <div class=""question-area"">
                        <p style=""font-size: 20px; font-weight: bold; margin: 0;"">Is there a person in this image?</p>
                    </div>
                </div>","0","main_experiment_trial","7","coin_causal","causal_sequence","","","","","","",""
"","","","","","html-keyboard-response","157","517466","0.0-157.0","8E593DF86F9E4D25BBBD31C589B243E8","019cedd1-f13e-724c-aad4-1f45dcc84150","019cedc9-bfe1-7bb5-8857-de065a1e03dd","","null","
                <div class=""stimulus-container"">
                    <img src=""images/causal_sequence/coin_causal/coin_causal_8.png"" class=""exp-image"">
                    <div class=""question-area""></div> 
                </div>","null","","","","","","","","","","",""
"","","","","","html-button-response","158","518503","0.0-158.0","8E593DF86F9E4D25BBBD31C589B243E8","019cedd1-f13e-724c-aad4-1f45dcc84150","019cedc9-bfe1-7bb5-8857-de065a1e03dd","","1037","
                <div class=""stimulus-container"">
                    <img src=""images/causal_sequence/coin_causal/coin_causal_8.png"" class=""exp-image"">
                    <div class=""question-area"">
                        <p style=""font-size: 20px; font-weight: bold; margin: 0;"">Is there a person in this image?</p>
                    </div>
                </div>","0","main_experiment_trial","8","coin_causal","causal_sequence","","","","","","",""
"","","","","","html-keyboard-response","159","523504","0.0-159.0","8E593DF86F9E4D25BBBD31C589B243E8","019cedd1-f13e-724c-aad4-1f45dcc84150","019cedc9-bfe1-7bb5-8857-de065a1e03dd","","null","
                <div class=""stimulus-container"">
                    <img src=""images/causal_sequence/coin_causal/coin_causal_9.png"" class=""exp-image"">
                    <div class=""question-area""></div> 
                </div>","null","","","","","","","","","","",""
"","","","","","html-button-response","160","524039","0.0-160.0","8E593DF86F9E4D25BBBD31C589B243E8","019cedd1-f13e-724c-aad4-1f45dcc84150","019cedc9-bfe1-7bb5-8857-de065a1e03dd","","533","
                <div class=""stimulus-container"">
                    <img src=""images/causal_sequence/coin_causal/coin_causal_9.png"" class=""exp-image"">
                    <div class=""question-area"">
                        <p style=""font-size: 20px; font-weight: bold; margin: 0;"">Is there a person in this image?</p>
                    </div>
                </div>","0","main_experiment_trial","9","coin_causal","causal_sequence","","","","","","",""
"","","","","","html-keyboard-response","161","529042","0.0-161.0","8E593DF86F9E4D25BBBD31C589B243E8","019cedd1-f13e-724c-aad4-1f45dcc84150","019cedc9-bfe1-7bb5-8857-de065a1e03dd","","null","
                <div class=""stimulus-container"">
                    <img src=""images/causal_sequence/coin_causal/coin_causal_ten.png"" class=""exp-image"">
                    <div class=""question-area""></div> 
                </div>","null","","","","","","","","","","",""
"","","","","","html-button-response","162","529694","0.0-162.0","8E593DF86F9E4D25BBBD31C589B243E8","019cedd1-f13e-724c-aad4-1f45dcc84150","019cedc9-bfe1-7bb5-8857-de065a1e03dd","","651","
                <div class=""stimulus-container"">
                    <img src=""images/causal_sequence/coin_causal/coin_causal_ten.png"" class=""exp-image"">
                    <div class=""question-area"">
                        <p style=""font-size: 20px; font-weight: bold; margin: 0;"">Is there a person in this image?</p>
                    </div>
                </div>","0","main_experiment_trial","ten","coin_causal","causal_sequence","","","","","","",""
"","","","","","html-keyboard-response","163","530696","0.0-163.0","8E593DF86F9E4D25BBBD31C589B243E8","019cedd1-f13e-724c-aad4-1f45dcc84150","019cedc9-bfe1-7bb5-8857-de065a1e03dd","","null","<div style=""background-color: white; width: 100vw; height: 100vh;""></div>","null","","","","","","","","","","",""
"","","","","","html-keyboard-response","164","535697","0.0-164.0","8E593DF86F9E4D25BBBD31C589B243E8","019cedd1-f13e-724c-aad4-1f45dcc84150","019cedc9-bfe1-7bb5-8857-de065a1e03dd","","null","
                <div class=""stimulus-container"">
                    <img src=""images/causal_sequence/the_performance_causal/the_performance_causal_1.png"" class=""exp-image"">
                    <div class=""question-area""></div> 
                </div>","null","","","","","","","","","","",""
"","","","","","html-button-response","165","536729","0.0-165.0","8E593DF86F9E4D25BBBD31C589B243E8","019cedd1-f13e-724c-aad4-1f45dcc84150","019cedc9-bfe1-7bb5-8857-de065a1e03dd","","1031","
                <div class=""stimulus-container"">
                    <img src=""images/causal_sequence/the_performance_causal/the_performance_causal_1.png"" class=""exp-image"">
                    <div class=""question-area"">
                        <p style=""font-size: 20px; font-weight: bold; margin: 0;"">Is there a person in this image?</p>
                    </div>
                </div>","0","main_experiment_trial","1","the_performance_causal","causal_sequence","","","","","","",""
"","","","","","html-keyboard-response","166","541731","0.0-166.0","8E593DF86F9E4D25BBBD31C589B243E8","019cedd1-f13e-724c-aad4-1f45dcc84150","019cedc9-bfe1-7bb5-8857-de065a1e03dd","","null","
                <div class=""stimulus-container"">
                    <img src=""images/causal_sequence/the_performance_causal/the_performance_causal_2.png"" class=""exp-image"">
                    <div class=""question-area""></div> 
                </div>","null","","","","","","","","","","",""
"","","","","","html-button-response","167","542816","0.0-167.0","8E593DF86F9E4D25BBBD31C589B243E8","019cedd1-f13e-724c-aad4-1f45dcc84150","019cedc9-bfe1-7bb5-8857-de065a1e03dd","","1084","
                <div class=""stimulus-container"">
                    <img src=""images/causal_sequence/the_performance_causal/the_performance_causal_2.png"" class=""exp-image"">
                    <div class=""question-area"">
                        <p style=""font-size: 20px; font-weight: bold; margin: 0;"">Is there a person in this image?</p>
                    </div>
                </div>","0","main_experiment_trial","2","the_performance_causal","causal_sequence","","","","","","",""
"","","","","","html-keyboard-response","168","547818","0.0-168.0","8E593DF86F9E4D25BBBD31C589B243E8","019cedd1-f13e-724c-aad4-1f45dcc84150","019cedc9-bfe1-7bb5-8857-de065a1e03dd","","null","
                <div class=""stimulus-container"">
                    <img src=""images/causal_sequence/the_performance_causal/the_performance_causal_3.png"" class=""exp-image"">
                    <div class=""question-area""></div> 
                </div>","null","","","","","","","","","","",""
"","","","","","html-button-response","169","548500","0.0-169.0","8E593DF86F9E4D25BBBD31C589B243E8","019cedd1-f13e-724c-aad4-1f45dcc84150","019cedc9-bfe1-7bb5-8857-de065a1e03dd","","681","
                <div class=""stimulus-container"">
                    <img src=""images/causal_sequence/the_performance_causal/the_performance_causal_3.png"" class=""exp-image"">
                    <div class=""question-area"">
                        <p style=""font-size: 20px; font-weight: bold; margin: 0;"">Is there a person in this image?</p>
                    </div>
                </div>","0","main_experiment_trial","3","the_performance_causal","causal_sequence","","","","","","",""
"","","","","","html-keyboard-response","170","553502","0.0-170.0","8E593DF86F9E4D25BBBD31C589B243E8","019cedd1-f13e-724c-aad4-1f45dcc84150","019cedc9-bfe1-7bb5-8857-de065a1e03dd","","null","
                <div class=""stimulus-container"">
                    <img src=""images/causal_sequence/the_performance_causal/the_performance_causal_4.png"" class=""exp-image"">
                    <div class=""question-area""></div> 
                </div>","null","","","","","","","","","","",""
"","","","","","html-button-response","171","554398","0.0-171.0","8E593DF86F9E4D25BBBD31C589B243E8","019cedd1-f13e-724c-aad4-1f45dcc84150","019cedc9-bfe1-7bb5-8857-de065a1e03dd","","896","
                <div class=""stimulus-container"">
                    <img src=""images/causal_sequence/the_performance_causal/the_performance_causal_4.png"" class=""exp-image"">
                    <div class=""question-area"">
                        <p style=""font-size: 20px; font-weight: bold; margin: 0;"">Is there a person in this image?</p>
                    </div>
                </div>","0","main_experiment_trial","4","the_performance_causal","causal_sequence","","","","","","",""
"","","","","","html-keyboard-response","172","559399","0.0-172.0","8E593DF86F9E4D25BBBD31C589B243E8","019cedd1-f13e-724c-aad4-1f45dcc84150","019cedc9-bfe1-7bb5-8857-de065a1e03dd","","null","
                <div class=""stimulus-container"">
                    <img src=""images/causal_sequence/the_performance_causal/the_performance_causal_5.png"" class=""exp-image"">
                    <div class=""question-area""></div> 
                </div>","null","","","","","","","","","","",""
"","","","","","html-button-response","173","560153","0.0-173.0","8E593DF86F9E4D25BBBD31C589B243E8","019cedd1-f13e-724c-aad4-1f45dcc84150","019cedc9-bfe1-7bb5-8857-de065a1e03dd","","753","
                <div class=""stimulus-container"">
                    <img src=""images/causal_sequence/the_performance_causal/the_performance_causal_5.png"" class=""exp-image"">
                    <div class=""question-area"">
                        <p style=""font-size: 20px; font-weight: bold; margin: 0;"">Is there a person in this image?</p>
                    </div>
                </div>","0","main_experiment_trial","5","the_performance_causal","causal_sequence","","","","","","",""
"","","","","","html-keyboard-response","174","565156","0.0-174.0","8E593DF86F9E4D25BBBD31C589B243E8","019cedd1-f13e-724c-aad4-1f45dcc84150","019cedc9-bfe1-7bb5-8857-de065a1e03dd","","null","
                <div class=""stimulus-container"">
                    <img src=""images/causal_sequence/the_performance_causal/the_performance_causal_6.png"" class=""exp-image"">
                    <div class=""question-area""></div> 
                </div>","null","","","","","","","","","","",""
"","","","","","html-button-response","175","565955","0.0-175.0","8E593DF86F9E4D25BBBD31C589B243E8","019cedd1-f13e-724c-aad4-1f45dcc84150","019cedc9-bfe1-7bb5-8857-de065a1e03dd","","798","
                <div class=""stimulus-container"">
                    <img src=""images/causal_sequence/the_performance_causal/the_performance_causal_6.png"" class=""exp-image"">
                    <div class=""question-area"">
                        <p style=""font-size: 20px; font-weight: bold; margin: 0;"">Is there a person in this image?</p>
                    </div>
                </div>","0","main_experiment_trial","6","the_performance_causal","causal_sequence","","","","","","",""
"","","","","","html-keyboard-response","176","570957","0.0-176.0","8E593DF86F9E4D25BBBD31C589B243E8","019cedd1-f13e-724c-aad4-1f45dcc84150","019cedc9-bfe1-7bb5-8857-de065a1e03dd","","null","
                <div class=""stimulus-container"">
                    <img src=""images/causal_sequence/the_performance_causal/the_performance_causal_7.png"" class=""exp-image"">
                    <div class=""question-area""></div> 
                </div>","null","","","","","","","","","","",""
"","","","","","html-button-response","177","572073","0.0-177.0","8E593DF86F9E4D25BBBD31C589B243E8","019cedd1-f13e-724c-aad4-1f45dcc84150","019cedc9-bfe1-7bb5-8857-de065a1e03dd","","1115","
                <div class=""stimulus-container"">
                    <img src=""images/causal_sequence/the_performance_causal/the_performance_causal_7.png"" class=""exp-image"">
                    <div class=""question-area"">
                        <p style=""font-size: 20px; font-weight: bold; margin: 0;"">Is there a person in this image?</p>
                    </div>
                </div>","0","main_experiment_trial","7","the_performance_causal","causal_sequence","","","","","","",""
"","","","","","html-keyboard-response","178","577075","0.0-178.0","8E593DF86F9E4D25BBBD31C589B243E8","019cedd1-f13e-724c-aad4-1f45dcc84150","019cedc9-bfe1-7bb5-8857-de065a1e03dd","","null","
                <div class=""stimulus-container"">
                    <img src=""images/causal_sequence/the_performance_causal/the_performance_causal_8.png"" class=""exp-image"">
                    <div class=""question-area""></div> 
                </div>","null","","","","","","","","","","",""
"","","","","","html-button-response","179","577859","0.0-179.0","8E593DF86F9E4D25BBBD31C589B243E8","019cedd1-f13e-724c-aad4-1f45dcc84150","019cedc9-bfe1-7bb5-8857-de065a1e03dd","","783","
                <div class=""stimulus-container"">
                    <img src=""images/causal_sequence/the_performance_causal/the_performance_causal_8.png"" class=""exp-image"">
                    <div class=""question-area"">
                        <p style=""font-size: 20px; font-weight: bold; margin: 0;"">Is there a person in this image?</p>
                    </div>
                </div>","0","main_experiment_trial","8","the_performance_causal","causal_sequence","","","","","","",""
"","","","","","html-keyboard-response","180","582861","0.0-180.0","8E593DF86F9E4D25BBBD31C589B243E8","019cedd1-f13e-724c-aad4-1f45dcc84150","019cedc9-bfe1-7bb5-8857-de065a1e03dd","","null","
                <div class=""stimulus-container"">
                    <img src=""images/causal_sequence/the_performance_causal/the_performance_causal_9.png"" class=""exp-image"">
                    <div class=""question-area""></div> 
                </div>","null","","","","","","","","","","",""
"","","","","","html-button-response","181","583639","0.0-181.0","8E593DF86F9E4D25BBBD31C589B243E8","019cedd1-f13e-724c-aad4-1f45dcc84150","019cedc9-bfe1-7bb5-8857-de065a1e03dd","","777","
                <div class=""stimulus-container"">
                    <img src=""images/causal_sequence/the_performance_causal/the_performance_causal_9.png"" class=""exp-image"">
                    <div class=""question-area"">
                        <p style=""font-size: 20px; font-weight: bold; margin: 0;"">Is there a person in this image?</p>
                    </div>
                </div>","0","main_experiment_trial","9","the_performance_causal","causal_sequence","","","","","","",""
