"success","timeout","failed_images","failed_audio","failed_video","trial_type","trial_index","time_elapsed","internal_node_id","subject_id","study_id","session_id","view_history","rt","stimulus","response","task","image_index","folder","sequence_type","presentation_order","valuable_image_index","reward_type","distance_from_x","target_X","chosen_image_index","is_x_plus_dist","correct_choice"
"true","false","[]","[]","[]","preload","0","50847","0.0-0.0","6443FA556FA54BD0803D712F7FE14BB7","019cfa76-bfb5-7d7d-bb54-bd4f6c518d79","019cfa3a-388e-72ab-ad58-bdeb258f96cd","","","","","","","","","","","","","","","",""
"","","","","","instructions","1","191154","0.0-1.0","6443FA556FA54BD0803D712F7FE14BB7","019cfa76-bfb5-7d7d-bb54-bd4f6c518d79","019cfa3a-388e-72ab-ad58-bdeb258f96cd","[{""page_index"":0,""viewing_time"":140292}]","140295","","","","","","","","","","","","","",""
"","","","","","instructions","2","193059","0.0-2.0","6443FA556FA54BD0803D712F7FE14BB7","019cfa76-bfb5-7d7d-bb54-bd4f6c518d79","019cfa3a-388e-72ab-ad58-bdeb258f96cd","[{""page_index"":0,""viewing_time"":1903}]","1903","","","","","","","","","","","","","",""
"true","","","","","fullscreen","3","1381982","0.0-3.0","6443FA556FA54BD0803D712F7FE14BB7","019cfa76-bfb5-7d7d-bb54-bd4f6c518d79","019cfa3a-388e-72ab-ad58-bdeb258f96cd","","1187916","","","","","","","","","","","","","",""
"","","","","","instructions","4","1393780","0.0-4.0","6443FA556FA54BD0803D712F7FE14BB7","019cfa76-bfb5-7d7d-bb54-bd4f6c518d79","019cfa3a-388e-72ab-ad58-bdeb258f96cd","[{""page_index"":0,""viewing_time"":11796}]","11797","","","","","","","","","","","","","",""
"","","","","","instructions","5","1398787","0.0-5.0","6443FA556FA54BD0803D712F7FE14BB7","019cfa76-bfb5-7d7d-bb54-bd4f6c518d79","019cfa3a-388e-72ab-ad58-bdeb258f96cd","[{""page_index"":0,""viewing_time"":5004}]","5005","","","","","","","","","","","","","",""
"","","","","","html-keyboard-response","6","1402790","0.0-6.0","6443FA556FA54BD0803D712F7FE14BB7","019cfa76-bfb5-7d7d-bb54-bd4f6c518d79","019cfa3a-388e-72ab-ad58-bdeb258f96cd","","null","
                <div class=""stimulus-container"">
                    <img src=""images/instructions/movie_1.png"" class=""exp-image"">
                    <div class=""question-area""></div> 
                </div>","null","","","","","","","","","","","",""
"","","","","","html-button-response","7","1403994","0.0-7.0","6443FA556FA54BD0803D712F7FE14BB7","019cfa76-bfb5-7d7d-bb54-bd4f6c518d79","019cfa3a-388e-72ab-ad58-bdeb258f96cd","","1200","
                <div class=""stimulus-container"">
                    <img src=""images/instructions/movie_1.png"" class=""exp-image"">
                    <div class=""question-area"">
                        <p style=""font-size: 20px; font-weight: bold; margin: 0;"">Was there a person in this image?</p>
                    </div>
                </div>","0","example_question","1","","","","","","","","","",""
"","","","","","html-keyboard-response","8","1407996","0.0-8.0","6443FA556FA54BD0803D712F7FE14BB7","019cfa76-bfb5-7d7d-bb54-bd4f6c518d79","019cfa3a-388e-72ab-ad58-bdeb258f96cd","","null","
                <div class=""stimulus-container"">
                    <img src=""images/instructions/movie_2.png"" class=""exp-image"">
                    <div class=""question-area""></div> 
                </div>","null","","","","","","","","","","","",""
"","","","","","html-button-response","9","1408365","0.0-9.0","6443FA556FA54BD0803D712F7FE14BB7","019cfa76-bfb5-7d7d-bb54-bd4f6c518d79","019cfa3a-388e-72ab-ad58-bdeb258f96cd","","366","
                <div class=""stimulus-container"">
                    <img src=""images/instructions/movie_2.png"" class=""exp-image"">
                    <div class=""question-area"">
                        <p style=""font-size: 20px; font-weight: bold; margin: 0;"">Was there a person in this image?</p>
                    </div>
                </div>","0","example_question","2","","","","","","","","","",""
"","","","","","html-keyboard-response","10","1412367","0.0-10.0","6443FA556FA54BD0803D712F7FE14BB7","019cfa76-bfb5-7d7d-bb54-bd4f6c518d79","019cfa3a-388e-72ab-ad58-bdeb258f96cd","","null","
                <div class=""stimulus-container"">
                    <img src=""images/instructions/movie_3.png"" class=""exp-image"">
                    <div class=""question-area""></div> 
                </div>","null","","","","","","","","","","","",""
"","","","","","html-button-response","11","1412812","0.0-11.0","6443FA556FA54BD0803D712F7FE14BB7","019cfa76-bfb5-7d7d-bb54-bd4f6c518d79","019cfa3a-388e-72ab-ad58-bdeb258f96cd","","443","
                <div class=""stimulus-container"">
                    <img src=""images/instructions/movie_3.png"" class=""exp-image"">
                    <div class=""question-area"">
                        <p style=""font-size: 20px; font-weight: bold; margin: 0;"">Was there a person in this image?</p>
                    </div>
                </div>","0","example_question","3","","","","","","","","","",""
"","","","","","html-keyboard-response","12","1416814","0.0-12.0","6443FA556FA54BD0803D712F7FE14BB7","019cfa76-bfb5-7d7d-bb54-bd4f6c518d79","019cfa3a-388e-72ab-ad58-bdeb258f96cd","","null","
                <div class=""stimulus-container"">
                    <img src=""images/instructions/movie_4.png"" class=""exp-image"">
                    <div class=""question-area""></div> 
                </div>","null","","","","","","","","","","","",""
"","","","","","html-button-response","13","1417475","0.0-13.0","6443FA556FA54BD0803D712F7FE14BB7","019cfa76-bfb5-7d7d-bb54-bd4f6c518d79","019cfa3a-388e-72ab-ad58-bdeb258f96cd","","658","
                <div class=""stimulus-container"">
                    <img src=""images/instructions/movie_4.png"" class=""exp-image"">
                    <div class=""question-area"">
                        <p style=""font-size: 20px; font-weight: bold; margin: 0;"">Was there a person in this image?</p>
                    </div>
                </div>","0","example_question","4","","","","","","","","","",""
"","","","","","instructions","14","1418627","0.0-14.0","6443FA556FA54BD0803D712F7FE14BB7","019cfa76-bfb5-7d7d-bb54-bd4f6c518d79","019cfa3a-388e-72ab-ad58-bdeb258f96cd","[{""page_index"":0,""viewing_time"":1150}]","1151","","","","","","","","","","","","","",""
"","","","","","instructions","15","1422010","0.0-15.0","6443FA556FA54BD0803D712F7FE14BB7","019cfa76-bfb5-7d7d-bb54-bd4f6c518d79","019cfa3a-388e-72ab-ad58-bdeb258f96cd","[{""page_index"":0,""viewing_time"":3381}]","3382","","","","","","","","","","","","","",""
"","","","","","html-keyboard-response","16","1427012","0.0-16.0","6443FA556FA54BD0803D712F7FE14BB7","019cfa76-bfb5-7d7d-bb54-bd4f6c518d79","019cfa3a-388e-72ab-ad58-bdeb258f96cd","","null","<div style=""background-color: white; width: 100vw; height: 100vh;""></div>","null","","","","","","","","","","","",""
"","","","","","html-keyboard-response","17","1428013","0.0-17.0","6443FA556FA54BD0803D712F7FE14BB7","019cfa76-bfb5-7d7d-bb54-bd4f6c518d79","019cfa3a-388e-72ab-ad58-bdeb258f96cd","","null","
                <div class=""stimulus-container"">
                    <img src=""images/causal_sequence/coin_causal/coin_causal_1.png"" class=""exp-image"">
                    <div class=""question-area""></div> 
                </div>","null","","","","","","","","","","","",""
"","","","","","html-button-response","18","1430802","0.0-18.0","6443FA556FA54BD0803D712F7FE14BB7","019cfa76-bfb5-7d7d-bb54-bd4f6c518d79","019cfa3a-388e-72ab-ad58-bdeb258f96cd","","2786","
                <div class=""stimulus-container"">
                    <img src=""images/causal_sequence/coin_causal/coin_causal_1.png"" class=""exp-image"">
                    <div class=""question-area"">
                        <p style=""font-size: 20px; font-weight: bold; margin: 0;"">Is there a person in this image?</p>
                    </div>
                </div>","0","main_experiment_trial","1","coin_causal","causal_sequence","chronological","","","","","","",""
"","","","","","html-keyboard-response","19","1431805","0.0-19.0","6443FA556FA54BD0803D712F7FE14BB7","019cfa76-bfb5-7d7d-bb54-bd4f6c518d79","019cfa3a-388e-72ab-ad58-bdeb258f96cd","","null","
                <div class=""stimulus-container"">
                    <img src=""images/causal_sequence/coin_causal/coin_causal_2.png"" class=""exp-image"">
                    <div class=""question-area""></div> 
                </div>","null","","","","","","","","","","","",""
"","","","","","html-button-response","20","1432187","0.0-20.0","6443FA556FA54BD0803D712F7FE14BB7","019cfa76-bfb5-7d7d-bb54-bd4f6c518d79","019cfa3a-388e-72ab-ad58-bdeb258f96cd","","380","
                <div class=""stimulus-container"">
                    <img src=""images/causal_sequence/coin_causal/coin_causal_2.png"" class=""exp-image"">
                    <div class=""question-area"">
                        <p style=""font-size: 20px; font-weight: bold; margin: 0;"">Is there a person in this image?</p>
                    </div>
                </div>","0","main_experiment_trial","2","coin_causal","causal_sequence","chronological","","","","","","",""
"","","","","","html-keyboard-response","21","1433189","0.0-21.0","6443FA556FA54BD0803D712F7FE14BB7","019cfa76-bfb5-7d7d-bb54-bd4f6c518d79","019cfa3a-388e-72ab-ad58-bdeb258f96cd","","null","
                <div class=""stimulus-container"">
                    <img src=""images/causal_sequence/coin_causal/coin_causal_3.png"" class=""exp-image"">
                    <div class=""question-area""></div> 
                </div>","null","","","","","","","","","","","",""
"","","","","","html-button-response","22","1433533","0.0-22.0","6443FA556FA54BD0803D712F7FE14BB7","019cfa76-bfb5-7d7d-bb54-bd4f6c518d79","019cfa3a-388e-72ab-ad58-bdeb258f96cd","","341","
                <div class=""stimulus-container"">
                    <img src=""images/causal_sequence/coin_causal/coin_causal_3.png"" class=""exp-image"">
                    <div class=""question-area"">
                        <p style=""font-size: 20px; font-weight: bold; margin: 0;"">Is there a person in this image?</p>
                    </div>
                </div>","0","main_experiment_trial","3","coin_causal","causal_sequence","chronological","","","","","","",""
"","","","","","html-keyboard-response","23","1434535","0.0-23.0","6443FA556FA54BD0803D712F7FE14BB7","019cfa76-bfb5-7d7d-bb54-bd4f6c518d79","019cfa3a-388e-72ab-ad58-bdeb258f96cd","","null","
                <div class=""stimulus-container"">
                    <img src=""images/causal_sequence/coin_causal/coin_causal_4.png"" class=""exp-image"">
                    <div class=""question-area""></div> 
                </div>","null","","","","","","","","","","","",""
"","","","","","html-button-response","24","1435038","0.0-24.0","6443FA556FA54BD0803D712F7FE14BB7","019cfa76-bfb5-7d7d-bb54-bd4f6c518d79","019cfa3a-388e-72ab-ad58-bdeb258f96cd","","501","
                <div class=""stimulus-container"">
                    <img src=""images/causal_sequence/coin_causal/coin_causal_4.png"" class=""exp-image"">
                    <div class=""question-area"">
                        <p style=""font-size: 20px; font-weight: bold; margin: 0;"">Is there a person in this image?</p>
                    </div>
                </div>","0","main_experiment_trial","4","coin_causal","causal_sequence","chronological","","","","","","",""
"","","","","","html-keyboard-response","25","1436041","0.0-25.0","6443FA556FA54BD0803D712F7FE14BB7","019cfa76-bfb5-7d7d-bb54-bd4f6c518d79","019cfa3a-388e-72ab-ad58-bdeb258f96cd","","null","
                <div class=""stimulus-container"">
                    <img src=""images/causal_sequence/coin_causal/coin_causal_5.png"" class=""exp-image"">
                    <div class=""question-area""></div> 
                </div>","null","","","","","","","","","","","",""
"","","","","","html-button-response","26","1436629","0.0-26.0","6443FA556FA54BD0803D712F7FE14BB7","019cfa76-bfb5-7d7d-bb54-bd4f6c518d79","019cfa3a-388e-72ab-ad58-bdeb258f96cd","","585","
                <div class=""stimulus-container"">
                    <img src=""images/causal_sequence/coin_causal/coin_causal_5.png"" class=""exp-image"">
                    <div class=""question-area"">
                        <p style=""font-size: 20px; font-weight: bold; margin: 0;"">Is there a person in this image?</p>
                    </div>
                </div>","0","main_experiment_trial","5","coin_causal","causal_sequence","chronological","","","","","","",""
"","","","","","html-keyboard-response","27","1437631","0.0-27.0","6443FA556FA54BD0803D712F7FE14BB7","019cfa76-bfb5-7d7d-bb54-bd4f6c518d79","019cfa3a-388e-72ab-ad58-bdeb258f96cd","","null","
                <div class=""stimulus-container"">
                    <img src=""images/causal_sequence/coin_causal/coin_causal_6.png"" class=""exp-image"">
                    <div class=""question-area""></div> 
                </div>","null","","","","","","","","","","","",""
"","","","","","html-button-response","28","1437970","0.0-28.0","6443FA556FA54BD0803D712F7FE14BB7","019cfa76-bfb5-7d7d-bb54-bd4f6c518d79","019cfa3a-388e-72ab-ad58-bdeb258f96cd","","335","
                <div class=""stimulus-container"">
                    <img src=""images/causal_sequence/coin_causal/coin_causal_6.png"" class=""exp-image"">
                    <div class=""question-area"">
                        <p style=""font-size: 20px; font-weight: bold; margin: 0;"">Is there a person in this image?</p>
                    </div>
                </div>","0","main_experiment_trial","6","coin_causal","causal_sequence","chronological","","","","","","",""
"","","","","","html-keyboard-response","29","1438972","0.0-29.0","6443FA556FA54BD0803D712F7FE14BB7","019cfa76-bfb5-7d7d-bb54-bd4f6c518d79","019cfa3a-388e-72ab-ad58-bdeb258f96cd","","null","
                <div class=""stimulus-container"">
                    <img src=""images/causal_sequence/coin_causal/coin_causal_7.png"" class=""exp-image"">
                    <div class=""question-area""></div> 
                </div>","null","","","","","","","","","","","",""
"","","","","","html-button-response","30","1439458","0.0-30.0","6443FA556FA54BD0803D712F7FE14BB7","019cfa76-bfb5-7d7d-bb54-bd4f6c518d79","019cfa3a-388e-72ab-ad58-bdeb258f96cd","","484","
                <div class=""stimulus-container"">
                    <img src=""images/causal_sequence/coin_causal/coin_causal_7.png"" class=""exp-image"">
                    <div class=""question-area"">
                        <p style=""font-size: 20px; font-weight: bold; margin: 0;"">Is there a person in this image?</p>
                    </div>
                </div>","1","main_experiment_trial","7","coin_causal","causal_sequence","chronological","","","","","","",""
"","","","","","html-keyboard-response","31","1440460","0.0-31.0","6443FA556FA54BD0803D712F7FE14BB7","019cfa76-bfb5-7d7d-bb54-bd4f6c518d79","019cfa3a-388e-72ab-ad58-bdeb258f96cd","","null","
                <div class=""stimulus-container"">
                    <img src=""images/causal_sequence/coin_causal/coin_causal_8.png"" class=""exp-image"">
                    <div class=""question-area""></div> 
                </div>","null","","","","","","","","","","","",""
"","","","","","html-button-response","32","1440843","0.0-32.0","6443FA556FA54BD0803D712F7FE14BB7","019cfa76-bfb5-7d7d-bb54-bd4f6c518d79","019cfa3a-388e-72ab-ad58-bdeb258f96cd","","381","
                <div class=""stimulus-container"">
                    <img src=""images/causal_sequence/coin_causal/coin_causal_8.png"" class=""exp-image"">
                    <div class=""question-area"">
                        <p style=""font-size: 20px; font-weight: bold; margin: 0;"">Is there a person in this image?</p>
                    </div>
                </div>","0","main_experiment_trial","8","coin_causal","causal_sequence","chronological","","","","","","",""
"","","","","","html-keyboard-response","33","1441846","0.0-33.0","6443FA556FA54BD0803D712F7FE14BB7","019cfa76-bfb5-7d7d-bb54-bd4f6c518d79","019cfa3a-388e-72ab-ad58-bdeb258f96cd","","null","
                <div class=""stimulus-container"">
                    <img src=""images/causal_sequence/coin_causal/coin_causal_9.png"" class=""exp-image"">
                    <div class=""question-area""></div> 
                </div>","null","","","","","","","","","","","",""
"","","","","","html-button-response","34","1441956","0.0-34.0","6443FA556FA54BD0803D712F7FE14BB7","019cfa76-bfb5-7d7d-bb54-bd4f6c518d79","019cfa3a-388e-72ab-ad58-bdeb258f96cd","","107","
                <div class=""stimulus-container"">
                    <img src=""images/causal_sequence/coin_causal/coin_causal_9.png"" class=""exp-image"">
                    <div class=""question-area"">
                        <p style=""font-size: 20px; font-weight: bold; margin: 0;"">Is there a person in this image?</p>
                    </div>
                </div>","0","main_experiment_trial","9","coin_causal","causal_sequence","chronological","","","","","","",""
"","","","","","html-keyboard-response","35","1442958","0.0-35.0","6443FA556FA54BD0803D712F7FE14BB7","019cfa76-bfb5-7d7d-bb54-bd4f6c518d79","019cfa3a-388e-72ab-ad58-bdeb258f96cd","","null","
                <div class=""stimulus-container"">
                    <img src=""images/causal_sequence/coin_causal/coin_causal_ten.png"" class=""exp-image"">
                    <div class=""question-area""></div> 
                </div>","null","","","","","","","","","","","",""
"","","","","","html-button-response","36","1443131","0.0-36.0","6443FA556FA54BD0803D712F7FE14BB7","019cfa76-bfb5-7d7d-bb54-bd4f6c518d79","019cfa3a-388e-72ab-ad58-bdeb258f96cd","","171","
                <div class=""stimulus-container"">
                    <img src=""images/causal_sequence/coin_causal/coin_causal_ten.png"" class=""exp-image"">
                    <div class=""question-area"">
                        <p style=""font-size: 20px; font-weight: bold; margin: 0;"">Is there a person in this image?</p>
                    </div>
                </div>","0","main_experiment_trial","ten","coin_causal","causal_sequence","chronological","","","","","","",""
"","","","","","html-keyboard-response","37","1448133","0.0-37.0","6443FA556FA54BD0803D712F7FE14BB7","019cfa76-bfb5-7d7d-bb54-bd4f6c518d79","019cfa3a-388e-72ab-ad58-bdeb258f96cd","","null","<div style=""background-color: white; width: 100vw; height: 100vh;""></div>","null","","","","","","","","","","","",""
"","","","","","html-keyboard-response","38","1449136","0.0-38.0","6443FA556FA54BD0803D712F7FE14BB7","019cfa76-bfb5-7d7d-bb54-bd4f6c518d79","019cfa3a-388e-72ab-ad58-bdeb258f96cd","","null","
                <div class=""stimulus-container"">
                    <img src=""images/causal_sequence/the_performance_causal/the_performance_causal_1.png"" class=""exp-image"">
                    <div class=""question-area""></div> 
                </div>","null","","","","","","","","","","","",""
"","","","","","html-button-response","39","1449892","0.0-39.0","6443FA556FA54BD0803D712F7FE14BB7","019cfa76-bfb5-7d7d-bb54-bd4f6c518d79","019cfa3a-388e-72ab-ad58-bdeb258f96cd","","754","
                <div class=""stimulus-container"">
                    <img src=""images/causal_sequence/the_performance_causal/the_performance_causal_1.png"" class=""exp-image"">
                    <div class=""question-area"">
                        <p style=""font-size: 20px; font-weight: bold; margin: 0;"">Is there a person in this image?</p>
                    </div>
                </div>","0","main_experiment_trial","1","the_performance_causal","causal_sequence","chronological","","","","","","",""
"","","","","","html-keyboard-response","40","1450894","0.0-40.0","6443FA556FA54BD0803D712F7FE14BB7","019cfa76-bfb5-7d7d-bb54-bd4f6c518d79","019cfa3a-388e-72ab-ad58-bdeb258f96cd","","null","
                <div class=""stimulus-container"">
                    <img src=""images/causal_sequence/the_performance_causal/the_performance_causal_2.png"" class=""exp-image"">
                    <div class=""question-area""></div> 
                </div>","null","","","","","","","","","","","",""
"","","","","","html-button-response","41","1451243","0.0-41.0","6443FA556FA54BD0803D712F7FE14BB7","019cfa76-bfb5-7d7d-bb54-bd4f6c518d79","019cfa3a-388e-72ab-ad58-bdeb258f96cd","","346","
                <div class=""stimulus-container"">
                    <img src=""images/causal_sequence/the_performance_causal/the_performance_causal_2.png"" class=""exp-image"">
                    <div class=""question-area"">
                        <p style=""font-size: 20px; font-weight: bold; margin: 0;"">Is there a person in this image?</p>
                    </div>
                </div>","0","main_experiment_trial","2","the_performance_causal","causal_sequence","chronological","","","","","","",""
"","","","","","html-keyboard-response","42","1452245","0.0-42.0","6443FA556FA54BD0803D712F7FE14BB7","019cfa76-bfb5-7d7d-bb54-bd4f6c518d79","019cfa3a-388e-72ab-ad58-bdeb258f96cd","","null","
                <div class=""stimulus-container"">
                    <img src=""images/causal_sequence/the_performance_causal/the_performance_causal_3.png"" class=""exp-image"">
                    <div class=""question-area""></div> 
                </div>","null","","","","","","","","","","","",""
"","","","","","html-button-response","43","1452523","0.0-43.0","6443FA556FA54BD0803D712F7FE14BB7","019cfa76-bfb5-7d7d-bb54-bd4f6c518d79","019cfa3a-388e-72ab-ad58-bdeb258f96cd","","276","
                <div class=""stimulus-container"">
                    <img src=""images/causal_sequence/the_performance_causal/the_performance_causal_3.png"" class=""exp-image"">
                    <div class=""question-area"">
                        <p style=""font-size: 20px; font-weight: bold; margin: 0;"">Is there a person in this image?</p>
                    </div>
                </div>","0","main_experiment_trial","3","the_performance_causal","causal_sequence","chronological","","","","","","",""
"","","","","","html-keyboard-response","44","1453525","0.0-44.0","6443FA556FA54BD0803D712F7FE14BB7","019cfa76-bfb5-7d7d-bb54-bd4f6c518d79","019cfa3a-388e-72ab-ad58-bdeb258f96cd","","null","
                <div class=""stimulus-container"">
                    <img src=""images/causal_sequence/the_performance_causal/the_performance_causal_4.png"" class=""exp-image"">
                    <div class=""question-area""></div> 
                </div>","null","","","","","","","","","","","",""
"","","","","","html-button-response","45","1453801","0.0-45.0","6443FA556FA54BD0803D712F7FE14BB7","019cfa76-bfb5-7d7d-bb54-bd4f6c518d79","019cfa3a-388e-72ab-ad58-bdeb258f96cd","","274","
                <div class=""stimulus-container"">
                    <img src=""images/causal_sequence/the_performance_causal/the_performance_causal_4.png"" class=""exp-image"">
                    <div class=""question-area"">
                        <p style=""font-size: 20px; font-weight: bold; margin: 0;"">Is there a person in this image?</p>
                    </div>
                </div>","0","main_experiment_trial","4","the_performance_causal","causal_sequence","chronological","","","","","","",""
"","","","","","html-keyboard-response","46","1454804","0.0-46.0","6443FA556FA54BD0803D712F7FE14BB7","019cfa76-bfb5-7d7d-bb54-bd4f6c518d79","019cfa3a-388e-72ab-ad58-bdeb258f96cd","","null","
                <div class=""stimulus-container"">
                    <img src=""images/causal_sequence/the_performance_causal/the_performance_causal_5.png"" class=""exp-image"">
                    <div class=""question-area""></div> 
                </div>","null","","","","","","","","","","","",""
"","","","","","html-button-response","47","1455149","0.0-47.0","6443FA556FA54BD0803D712F7FE14BB7","019cfa76-bfb5-7d7d-bb54-bd4f6c518d79","019cfa3a-388e-72ab-ad58-bdeb258f96cd","","343","
                <div class=""stimulus-container"">
                    <img src=""images/causal_sequence/the_performance_causal/the_performance_causal_5.png"" class=""exp-image"">
                    <div class=""question-area"">
                        <p style=""font-size: 20px; font-weight: bold; margin: 0;"">Is there a person in this image?</p>
                    </div>
                </div>","0","main_experiment_trial","5","the_performance_causal","causal_sequence","chronological","","","","","","",""
"","","","","","html-keyboard-response","48","1456151","0.0-48.0","6443FA556FA54BD0803D712F7FE14BB7","019cfa76-bfb5-7d7d-bb54-bd4f6c518d79","019cfa3a-388e-72ab-ad58-bdeb258f96cd","","null","
                <div class=""stimulus-container"">
                    <img src=""images/causal_sequence/the_performance_causal/the_performance_causal_6.png"" class=""exp-image"">
                    <div class=""question-area""></div> 
                </div>","null","","","","","","","","","","","",""
"","","","","","html-button-response","49","1456437","0.0-49.0","6443FA556FA54BD0803D712F7FE14BB7","019cfa76-bfb5-7d7d-bb54-bd4f6c518d79","019cfa3a-388e-72ab-ad58-bdeb258f96cd","","284","
                <div class=""stimulus-container"">
                    <img src=""images/causal_sequence/the_performance_causal/the_performance_causal_6.png"" class=""exp-image"">
                    <div class=""question-area"">
                        <p style=""font-size: 20px; font-weight: bold; margin: 0;"">Is there a person in this image?</p>
                    </div>
                </div>","0","main_experiment_trial","6","the_performance_causal","causal_sequence","chronological","","","","","","",""
"","","","","","html-keyboard-response","50","1457439","0.0-50.0","6443FA556FA54BD0803D712F7FE14BB7","019cfa76-bfb5-7d7d-bb54-bd4f6c518d79","019cfa3a-388e-72ab-ad58-bdeb258f96cd","","null","
                <div class=""stimulus-container"">
                    <img src=""images/causal_sequence/the_performance_causal/the_performance_causal_7.png"" class=""exp-image"">
                    <div class=""question-area""></div> 
                </div>","null","","","","","","","","","","","",""
"","","","","","html-button-response","51","1457796","0.0-51.0","6443FA556FA54BD0803D712F7FE14BB7","019cfa76-bfb5-7d7d-bb54-bd4f6c518d79","019cfa3a-388e-72ab-ad58-bdeb258f96cd","","355","
                <div class=""stimulus-container"">
                    <img src=""images/causal_sequence/the_performance_causal/the_performance_causal_7.png"" class=""exp-image"">
                    <div class=""question-area"">
                        <p style=""font-size: 20px; font-weight: bold; margin: 0;"">Is there a person in this image?</p>
                    </div>
                </div>","0","main_experiment_trial","7","the_performance_causal","causal_sequence","chronological","","","","","","",""
"","","","","","html-keyboard-response","52","1458798","0.0-52.0","6443FA556FA54BD0803D712F7FE14BB7","019cfa76-bfb5-7d7d-bb54-bd4f6c518d79","019cfa3a-388e-72ab-ad58-bdeb258f96cd","","null","
                <div class=""stimulus-container"">
                    <img src=""images/causal_sequence/the_performance_causal/the_performance_causal_8.png"" class=""exp-image"">
                    <div class=""question-area""></div> 
                </div>","null","","","","","","","","","","","",""
"","","","","","html-button-response","53","1459214","0.0-53.0","6443FA556FA54BD0803D712F7FE14BB7","019cfa76-bfb5-7d7d-bb54-bd4f6c518d79","019cfa3a-388e-72ab-ad58-bdeb258f96cd","","415","
                <div class=""stimulus-container"">
                    <img src=""images/causal_sequence/the_performance_causal/the_performance_causal_8.png"" class=""exp-image"">
                    <div class=""question-area"">
                        <p style=""font-size: 20px; font-weight: bold; margin: 0;"">Is there a person in this image?</p>
                    </div>
                </div>","0","main_experiment_trial","8","the_performance_causal","causal_sequence","chronological","","","","","","",""
"","","","","","html-keyboard-response","54","1460216","0.0-54.0","6443FA556FA54BD0803D712F7FE14BB7","019cfa76-bfb5-7d7d-bb54-bd4f6c518d79","019cfa3a-388e-72ab-ad58-bdeb258f96cd","","null","
                <div class=""stimulus-container"">
                    <img src=""images/causal_sequence/the_performance_causal/the_performance_causal_9.png"" class=""exp-image"">
                    <div class=""question-area""></div> 
                </div>","null","","","","","","","","","","","",""
"","","","","","html-button-response","55","1460631","0.0-55.0","6443FA556FA54BD0803D712F7FE14BB7","019cfa76-bfb5-7d7d-bb54-bd4f6c518d79","019cfa3a-388e-72ab-ad58-bdeb258f96cd","","412","
                <div class=""stimulus-container"">
                    <img src=""images/causal_sequence/the_performance_causal/the_performance_causal_9.png"" class=""exp-image"">
                    <div class=""question-area"">
                        <p style=""font-size: 20px; font-weight: bold; margin: 0;"">Is there a person in this image?</p>
                    </div>
                </div>","0","main_experiment_trial","9","the_performance_causal","causal_sequence","chronological","","","","","","",""
"","","","","","html-keyboard-response","56","1461633","0.0-56.0","6443FA556FA54BD0803D712F7FE14BB7","019cfa76-bfb5-7d7d-bb54-bd4f6c518d79","019cfa3a-388e-72ab-ad58-bdeb258f96cd","","null","
                <div class=""stimulus-container"">
                    <img src=""images/causal_sequence/the_performance_causal/the_performance_causal_ten.png"" class=""exp-image"">
                    <div class=""question-area""></div> 
                </div>","null","","","","","","","","","","","",""
"","","","","","html-button-response","57","1462262","0.0-57.0","6443FA556FA54BD0803D712F7FE14BB7","019cfa76-bfb5-7d7d-bb54-bd4f6c518d79","019cfa3a-388e-72ab-ad58-bdeb258f96cd","","627","
                <div class=""stimulus-container"">
                    <img src=""images/causal_sequence/the_performance_causal/the_performance_causal_ten.png"" class=""exp-image"">
                    <div class=""question-area"">
                        <p style=""font-size: 20px; font-weight: bold; margin: 0;"">Is there a person in this image?</p>
                    </div>
                </div>","0","main_experiment_trial","ten","the_performance_causal","causal_sequence","chronological","","","","","","",""
"","","","","","html-keyboard-response","58","1467265","0.0-58.0","6443FA556FA54BD0803D712F7FE14BB7","019cfa76-bfb5-7d7d-bb54-bd4f6c518d79","019cfa3a-388e-72ab-ad58-bdeb258f96cd","","null","<div style=""background-color: white; width: 100vw; height: 100vh;""></div>","null","","","","","","","","","","","",""
"","","","","","html-keyboard-response","59","1468266","0.0-59.0","6443FA556FA54BD0803D712F7FE14BB7","019cfa76-bfb5-7d7d-bb54-bd4f6c518d79","019cfa3a-388e-72ab-ad58-bdeb258f96cd","","null","
                <div class=""stimulus-container"">
                    <img src=""images/causal_sequence/museum_causal/museum_causal_1.png"" class=""exp-image"">
                    <div class=""question-area""></div> 
                </div>","null","","","","","","","","","","","",""
"","","","","","html-button-response","60","1468621","0.0-60.0","6443FA556FA54BD0803D712F7FE14BB7","019cfa76-bfb5-7d7d-bb54-bd4f6c518d79","019cfa3a-388e-72ab-ad58-bdeb258f96cd","","352","
                <div class=""stimulus-container"">
                    <img src=""images/causal_sequence/museum_causal/museum_causal_1.png"" class=""exp-image"">
                    <div class=""question-area"">
                        <p style=""font-size: 20px; font-weight: bold; margin: 0;"">Is there a person in this image?</p>
                    </div>
                </div>","0","main_experiment_trial","1","museum_causal","causal_sequence","chronological","","","","","","",""
"","","","","","html-keyboard-response","61","1469623","0.0-61.0","6443FA556FA54BD0803D712F7FE14BB7","019cfa76-bfb5-7d7d-bb54-bd4f6c518d79","019cfa3a-388e-72ab-ad58-bdeb258f96cd","","null","
                <div class=""stimulus-container"">
                    <img src=""images/causal_sequence/museum_causal/museum_causal_2.png"" class=""exp-image"">
                    <div class=""question-area""></div> 
                </div>","null","","","","","","","","","","","",""
"","","","","","html-button-response","62","1470779","0.0-62.0","6443FA556FA54BD0803D712F7FE14BB7","019cfa76-bfb5-7d7d-bb54-bd4f6c518d79","019cfa3a-388e-72ab-ad58-bdeb258f96cd","","1153","
                <div class=""stimulus-container"">
                    <img src=""images/causal_sequence/museum_causal/museum_causal_2.png"" class=""exp-image"">
                    <div class=""question-area"">
                        <p style=""font-size: 20px; font-weight: bold; margin: 0;"">Is there a person in this image?</p>
                    </div>
                </div>","1","main_experiment_trial","2","museum_causal","causal_sequence","chronological","","","","","","",""
"","","","","","html-keyboard-response","63","1471781","0.0-63.0","6443FA556FA54BD0803D712F7FE14BB7","019cfa76-bfb5-7d7d-bb54-bd4f6c518d79","019cfa3a-388e-72ab-ad58-bdeb258f96cd","","null","
                <div class=""stimulus-container"">
                    <img src=""images/causal_sequence/museum_causal/museum_causal_3.png"" class=""exp-image"">
                    <div class=""question-area""></div> 
                </div>","null","","","","","","","","","","","",""
"","","","","","html-button-response","64","1472955","0.0-64.0","6443FA556FA54BD0803D712F7FE14BB7","019cfa76-bfb5-7d7d-bb54-bd4f6c518d79","019cfa3a-388e-72ab-ad58-bdeb258f96cd","","1172","
                <div class=""stimulus-container"">
                    <img src=""images/causal_sequence/museum_causal/museum_causal_3.png"" class=""exp-image"">
                    <div class=""question-area"">
                        <p style=""font-size: 20px; font-weight: bold; margin: 0;"">Is there a person in this image?</p>
                    </div>
                </div>","0","main_experiment_trial","3","museum_causal","causal_sequence","chronological","","","","","","",""
"","","","","","html-keyboard-response","65","1473957","0.0-65.0","6443FA556FA54BD0803D712F7FE14BB7","019cfa76-bfb5-7d7d-bb54-bd4f6c518d79","019cfa3a-388e-72ab-ad58-bdeb258f96cd","","null","
                <div class=""stimulus-container"">
                    <img src=""images/causal_sequence/museum_causal/museum_causal_4.png"" class=""exp-image"">
                    <div class=""question-area""></div> 
                </div>","null","","","","","","","","","","","",""
"","","","","","html-button-response","66","1474338","0.0-66.0","6443FA556FA54BD0803D712F7FE14BB7","019cfa76-bfb5-7d7d-bb54-bd4f6c518d79","019cfa3a-388e-72ab-ad58-bdeb258f96cd","","378","
                <div class=""stimulus-container"">
                    <img src=""images/causal_sequence/museum_causal/museum_causal_4.png"" class=""exp-image"">
                    <div class=""question-area"">
                        <p style=""font-size: 20px; font-weight: bold; margin: 0;"">Is there a person in this image?</p>
                    </div>
                </div>","1","main_experiment_trial","4","museum_causal","causal_sequence","chronological","","","","","","",""
"","","","","","html-keyboard-response","67","1475342","0.0-67.0","6443FA556FA54BD0803D712F7FE14BB7","019cfa76-bfb5-7d7d-bb54-bd4f6c518d79","019cfa3a-388e-72ab-ad58-bdeb258f96cd","","null","
                <div class=""stimulus-container"">
                    <img src=""images/causal_sequence/museum_causal/museum_causal_5.png"" class=""exp-image"">
                    <div class=""question-area""></div> 
                </div>","null","","","","","","","","","","","",""
"","","","","","html-button-response","68","1475780","0.0-68.0","6443FA556FA54BD0803D712F7FE14BB7","019cfa76-bfb5-7d7d-bb54-bd4f6c518d79","019cfa3a-388e-72ab-ad58-bdeb258f96cd","","435","
                <div class=""stimulus-container"">
                    <img src=""images/causal_sequence/museum_causal/museum_causal_5.png"" class=""exp-image"">
                    <div class=""question-area"">
                        <p style=""font-size: 20px; font-weight: bold; margin: 0;"">Is there a person in this image?</p>
                    </div>
                </div>","0","main_experiment_trial","5","museum_causal","causal_sequence","chronological","","","","","","",""
"","","","","","html-keyboard-response","69","1476782","0.0-69.0","6443FA556FA54BD0803D712F7FE14BB7","019cfa76-bfb5-7d7d-bb54-bd4f6c518d79","019cfa3a-388e-72ab-ad58-bdeb258f96cd","","null","
                <div class=""stimulus-container"">
                    <img src=""images/causal_sequence/museum_causal/museum_causal_6.png"" class=""exp-image"">
                    <div class=""question-area""></div> 
                </div>","null","","","","","","","","","","","",""
"","","","","","html-button-response","70","1477135","0.0-70.0","6443FA556FA54BD0803D712F7FE14BB7","019cfa76-bfb5-7d7d-bb54-bd4f6c518d79","019cfa3a-388e-72ab-ad58-bdeb258f96cd","","351","
                <div class=""stimulus-container"">
                    <img src=""images/causal_sequence/museum_causal/museum_causal_6.png"" class=""exp-image"">
                    <div class=""question-area"">
                        <p style=""font-size: 20px; font-weight: bold; margin: 0;"">Is there a person in this image?</p>
                    </div>
                </div>","0","main_experiment_trial","6","museum_causal","causal_sequence","chronological","","","","","","",""
"","","","","","html-keyboard-response","71","1478137","0.0-71.0","6443FA556FA54BD0803D712F7FE14BB7","019cfa76-bfb5-7d7d-bb54-bd4f6c518d79","019cfa3a-388e-72ab-ad58-bdeb258f96cd","","null","
                <div class=""stimulus-container"">
                    <img src=""images/causal_sequence/museum_causal/museum_causal_7.png"" class=""exp-image"">
                    <div class=""question-area""></div> 
                </div>","null","","","","","","","","","","","",""
"","","","","","html-button-response","72","1479105","0.0-72.0","6443FA556FA54BD0803D712F7FE14BB7","019cfa76-bfb5-7d7d-bb54-bd4f6c518d79","019cfa3a-388e-72ab-ad58-bdeb258f96cd","","966","
                <div class=""stimulus-container"">
                    <img src=""images/causal_sequence/museum_causal/museum_causal_7.png"" class=""exp-image"">
                    <div class=""question-area"">
                        <p style=""font-size: 20px; font-weight: bold; margin: 0;"">Is there a person in this image?</p>
                    </div>
                </div>","1","main_experiment_trial","7","museum_causal","causal_sequence","chronological","","","","","","",""
"","","","","","html-keyboard-response","73","1480107","0.0-73.0","6443FA556FA54BD0803D712F7FE14BB7","019cfa76-bfb5-7d7d-bb54-bd4f6c518d79","019cfa3a-388e-72ab-ad58-bdeb258f96cd","","null","
                <div class=""stimulus-container"">
                    <img src=""images/causal_sequence/museum_causal/museum_causal_8.png"" class=""exp-image"">
                    <div class=""question-area""></div> 
                </div>","null","","","","","","","","","","","",""
"","","","","","html-button-response","74","1481040","0.0-74.0","6443FA556FA54BD0803D712F7FE14BB7","019cfa76-bfb5-7d7d-bb54-bd4f6c518d79","019cfa3a-388e-72ab-ad58-bdeb258f96cd","","931","
                <div class=""stimulus-container"">
                    <img src=""images/causal_sequence/museum_causal/museum_causal_8.png"" class=""exp-image"">
                    <div class=""question-area"">
                        <p style=""font-size: 20px; font-weight: bold; margin: 0;"">Is there a person in this image?</p>
                    </div>
                </div>","0","main_experiment_trial","8","museum_causal","causal_sequence","chronological","","","","","","",""
"","","","","","html-keyboard-response","75","1482042","0.0-75.0","6443FA556FA54BD0803D712F7FE14BB7","019cfa76-bfb5-7d7d-bb54-bd4f6c518d79","019cfa3a-388e-72ab-ad58-bdeb258f96cd","","null","
                <div class=""stimulus-container"">
                    <img src=""images/causal_sequence/museum_causal/museum_causal_9.png"" class=""exp-image"">
                    <div class=""question-area""></div> 
                </div>","null","","","","","","","","","","","",""
"","","","","","html-button-response","76","1482416","0.0-76.0","6443FA556FA54BD0803D712F7FE14BB7","019cfa76-bfb5-7d7d-bb54-bd4f6c518d79","019cfa3a-388e-72ab-ad58-bdeb258f96cd","","371","
                <div class=""stimulus-container"">
                    <img src=""images/causal_sequence/museum_causal/museum_causal_9.png"" class=""exp-image"">
                    <div class=""question-area"">
                        <p style=""font-size: 20px; font-weight: bold; margin: 0;"">Is there a person in this image?</p>
                    </div>
                </div>","1","main_experiment_trial","9","museum_causal","causal_sequence","chronological","","","","","","",""
"","","","","","html-keyboard-response","77","1483418","0.0-77.0","6443FA556FA54BD0803D712F7FE14BB7","019cfa76-bfb5-7d7d-bb54-bd4f6c518d79","019cfa3a-388e-72ab-ad58-bdeb258f96cd","","null","
                <div class=""stimulus-container"">
                    <img src=""images/causal_sequence/museum_causal/museum_causal_ten.png"" class=""exp-image"">
                    <div class=""question-area""></div> 
                </div>","null","","","","","","","","","","","",""
"","","","","","html-button-response","78","1483955","0.0-78.0","6443FA556FA54BD0803D712F7FE14BB7","019cfa76-bfb5-7d7d-bb54-bd4f6c518d79","019cfa3a-388e-72ab-ad58-bdeb258f96cd","","535","
                <div class=""stimulus-container"">
                    <img src=""images/causal_sequence/museum_causal/museum_causal_ten.png"" class=""exp-image"">
                    <div class=""question-area"">
                        <p style=""font-size: 20px; font-weight: bold; margin: 0;"">Is there a person in this image?</p>
                    </div>
                </div>","0","main_experiment_trial","ten","museum_causal","causal_sequence","chronological","","","","","","",""
"","","","","","html-keyboard-response","79","1488958","0.0-79.0","6443FA556FA54BD0803D712F7FE14BB7","019cfa76-bfb5-7d7d-bb54-bd4f6c518d79","019cfa3a-388e-72ab-ad58-bdeb258f96cd","","null","<div style=""background-color: white; width: 100vw; height: 100vh;""></div>","null","","","","","","","","","","","",""
"","","","","","html-keyboard-response","80","1489959","0.0-80.0","6443FA556FA54BD0803D712F7FE14BB7","019cfa76-bfb5-7d7d-bb54-bd4f6c518d79","019cfa3a-388e-72ab-ad58-bdeb258f96cd","","null","
                <div class=""stimulus-container"">
                    <img src=""images/semantic_sequence/redecorating_a_house_semantic/redecorating_a_house_semantic_1.png"" class=""exp-image"">
                    <div class=""question-area""></div> 
                </div>","null","","","","","","","","","","","",""
"","","","","","html-button-response","81","1490620","0.0-81.0","6443FA556FA54BD0803D712F7FE14BB7","019cfa76-bfb5-7d7d-bb54-bd4f6c518d79","019cfa3a-388e-72ab-ad58-bdeb258f96cd","","658","
                <div class=""stimulus-container"">
                    <img src=""images/semantic_sequence/redecorating_a_house_semantic/redecorating_a_house_semantic_1.png"" class=""exp-image"">
                    <div class=""question-area"">
                        <p style=""font-size: 20px; font-weight: bold; margin: 0;"">Is there a person in this image?</p>
                    </div>
                </div>","0","main_experiment_trial","1","redecorating_a_house_semantic","semantic_sequence","chronological","","","","","","",""
"","","","","","html-keyboard-response","82","1491622","0.0-82.0","6443FA556FA54BD0803D712F7FE14BB7","019cfa76-bfb5-7d7d-bb54-bd4f6c518d79","019cfa3a-388e-72ab-ad58-bdeb258f96cd","","null","
                <div class=""stimulus-container"">
                    <img src=""images/semantic_sequence/redecorating_a_house_semantic/redecorating_a_house_semantic_2.png"" class=""exp-image"">
                    <div class=""question-area""></div> 
                </div>","null","","","","","","","","","","","",""
"","","","","","html-button-response","83","1491938","0.0-83.0","6443FA556FA54BD0803D712F7FE14BB7","019cfa76-bfb5-7d7d-bb54-bd4f6c518d79","019cfa3a-388e-72ab-ad58-bdeb258f96cd","","314","
                <div class=""stimulus-container"">
                    <img src=""images/semantic_sequence/redecorating_a_house_semantic/redecorating_a_house_semantic_2.png"" class=""exp-image"">
                    <div class=""question-area"">
                        <p style=""font-size: 20px; font-weight: bold; margin: 0;"">Is there a person in this image?</p>
                    </div>
                </div>","0","main_experiment_trial","2","redecorating_a_house_semantic","semantic_sequence","chronological","","","","","","",""
"","","","","","html-keyboard-response","84","1492940","0.0-84.0","6443FA556FA54BD0803D712F7FE14BB7","019cfa76-bfb5-7d7d-bb54-bd4f6c518d79","019cfa3a-388e-72ab-ad58-bdeb258f96cd","","null","
                <div class=""stimulus-container"">
                    <img src=""images/semantic_sequence/redecorating_a_house_semantic/redecorating_a_house_semantic_3.png"" class=""exp-image"">
                    <div class=""question-area""></div> 
                </div>","null","","","","","","","","","","","",""
"","","","","","html-button-response","85","1493058","0.0-85.0","6443FA556FA54BD0803D712F7FE14BB7","019cfa76-bfb5-7d7d-bb54-bd4f6c518d79","019cfa3a-388e-72ab-ad58-bdeb258f96cd","","116","
                <div class=""stimulus-container"">
                    <img src=""images/semantic_sequence/redecorating_a_house_semantic/redecorating_a_house_semantic_3.png"" class=""exp-image"">
                    <div class=""question-area"">
                        <p style=""font-size: 20px; font-weight: bold; margin: 0;"">Is there a person in this image?</p>
                    </div>
                </div>","0","main_experiment_trial","3","redecorating_a_house_semantic","semantic_sequence","chronological","","","","","","",""
"","","","","","html-keyboard-response","86","1494059","0.0-86.0","6443FA556FA54BD0803D712F7FE14BB7","019cfa76-bfb5-7d7d-bb54-bd4f6c518d79","019cfa3a-388e-72ab-ad58-bdeb258f96cd","","null","
                <div class=""stimulus-container"">
                    <img src=""images/semantic_sequence/redecorating_a_house_semantic/redecorating_a_house_semantic_4.png"" class=""exp-image"">
                    <div class=""question-area""></div> 
                </div>","null","","","","","","","","","","","",""
"","","","","","html-button-response","87","1494120","0.0-87.0","6443FA556FA54BD0803D712F7FE14BB7","019cfa76-bfb5-7d7d-bb54-bd4f6c518d79","019cfa3a-388e-72ab-ad58-bdeb258f96cd","","57","
                <div class=""stimulus-container"">
                    <img src=""images/semantic_sequence/redecorating_a_house_semantic/redecorating_a_house_semantic_4.png"" class=""exp-image"">
                    <div class=""question-area"">
                        <p style=""font-size: 20px; font-weight: bold; margin: 0;"">Is there a person in this image?</p>
                    </div>
                </div>","0","main_experiment_trial","4","redecorating_a_house_semantic","semantic_sequence","chronological","","","","","","",""
"","","","","","html-keyboard-response","88","1495122","0.0-88.0","6443FA556FA54BD0803D712F7FE14BB7","019cfa76-bfb5-7d7d-bb54-bd4f6c518d79","019cfa3a-388e-72ab-ad58-bdeb258f96cd","","null","
                <div class=""stimulus-container"">
                    <img src=""images/semantic_sequence/redecorating_a_house_semantic/redecorating_a_house_semantic_5.png"" class=""exp-image"">
                    <div class=""question-area""></div> 
                </div>","null","","","","","","","","","","","",""
"","","","","","html-button-response","89","1495326","0.0-89.0","6443FA556FA54BD0803D712F7FE14BB7","019cfa76-bfb5-7d7d-bb54-bd4f6c518d79","019cfa3a-388e-72ab-ad58-bdeb258f96cd","","202","
                <div class=""stimulus-container"">
                    <img src=""images/semantic_sequence/redecorating_a_house_semantic/redecorating_a_house_semantic_5.png"" class=""exp-image"">
                    <div class=""question-area"">
                        <p style=""font-size: 20px; font-weight: bold; margin: 0;"">Is there a person in this image?</p>
                    </div>
                </div>","0","main_experiment_trial","5","redecorating_a_house_semantic","semantic_sequence","chronological","","","","","","",""
"","","","","","html-keyboard-response","90","1496329","0.0-90.0","6443FA556FA54BD0803D712F7FE14BB7","019cfa76-bfb5-7d7d-bb54-bd4f6c518d79","019cfa3a-388e-72ab-ad58-bdeb258f96cd","","null","
                <div class=""stimulus-container"">
                    <img src=""images/semantic_sequence/redecorating_a_house_semantic/redecorating_a_house_semantic_6.png"" class=""exp-image"">
                    <div class=""question-area""></div> 
                </div>","null","","","","","","","","","","","",""
"","","","","","html-button-response","91","1496452","0.0-91.0","6443FA556FA54BD0803D712F7FE14BB7","019cfa76-bfb5-7d7d-bb54-bd4f6c518d79","019cfa3a-388e-72ab-ad58-bdeb258f96cd","","121","
                <div class=""stimulus-container"">
                    <img src=""images/semantic_sequence/redecorating_a_house_semantic/redecorating_a_house_semantic_6.png"" class=""exp-image"">
                    <div class=""question-area"">
                        <p style=""font-size: 20px; font-weight: bold; margin: 0;"">Is there a person in this image?</p>
                    </div>
                </div>","0","main_experiment_trial","6","redecorating_a_house_semantic","semantic_sequence","chronological","","","","","","",""
"","","","","","html-keyboard-response","92","1497454","0.0-92.0","6443FA556FA54BD0803D712F7FE14BB7","019cfa76-bfb5-7d7d-bb54-bd4f6c518d79","019cfa3a-388e-72ab-ad58-bdeb258f96cd","","null","
                <div class=""stimulus-container"">
                    <img src=""images/semantic_sequence/redecorating_a_house_semantic/redecorating_a_house_semantic_7.png"" class=""exp-image"">
                    <div class=""question-area""></div> 
                </div>","null","","","","","","","","","","","",""
"","","","","","html-button-response","93","1497574","0.0-93.0","6443FA556FA54BD0803D712F7FE14BB7","019cfa76-bfb5-7d7d-bb54-bd4f6c518d79","019cfa3a-388e-72ab-ad58-bdeb258f96cd","","118","
                <div class=""stimulus-container"">
                    <img src=""images/semantic_sequence/redecorating_a_house_semantic/redecorating_a_house_semantic_7.png"" class=""exp-image"">
                    <div class=""question-area"">
                        <p style=""font-size: 20px; font-weight: bold; margin: 0;"">Is there a person in this image?</p>
                    </div>
                </div>","0","main_experiment_trial","7","redecorating_a_house_semantic","semantic_sequence","chronological","","","","","","",""
"","","","","","html-keyboard-response","94","1498577","0.0-94.0","6443FA556FA54BD0803D712F7FE14BB7","019cfa76-bfb5-7d7d-bb54-bd4f6c518d79","019cfa3a-388e-72ab-ad58-bdeb258f96cd","","null","
                <div class=""stimulus-container"">
                    <img src=""images/semantic_sequence/redecorating_a_house_semantic/redecorating_a_house_semantic_8.png"" class=""exp-image"">
                    <div class=""question-area""></div> 
                </div>","null","","","","","","","","","","","",""
"","","","","","html-button-response","95","1498746","0.0-95.0","6443FA556FA54BD0803D712F7FE14BB7","019cfa76-bfb5-7d7d-bb54-bd4f6c518d79","019cfa3a-388e-72ab-ad58-bdeb258f96cd","","167","
                <div class=""stimulus-container"">
                    <img src=""images/semantic_sequence/redecorating_a_house_semantic/redecorating_a_house_semantic_8.png"" class=""exp-image"">
                    <div class=""question-area"">
                        <p style=""font-size: 20px; font-weight: bold; margin: 0;"">Is there a person in this image?</p>
                    </div>
                </div>","0","main_experiment_trial","8","redecorating_a_house_semantic","semantic_sequence","chronological","","","","","","",""
"","","","","","html-keyboard-response","96","1499748","0.0-96.0","6443FA556FA54BD0803D712F7FE14BB7","019cfa76-bfb5-7d7d-bb54-bd4f6c518d79","019cfa3a-388e-72ab-ad58-bdeb258f96cd","","null","
                <div class=""stimulus-container"">
                    <img src=""images/semantic_sequence/redecorating_a_house_semantic/redecorating_a_house_semantic_9.png"" class=""exp-image"">
                    <div class=""question-area""></div> 
                </div>","null","","","","","","","","","","","",""
"","","","","","html-button-response","97","1499896","0.0-97.0","6443FA556FA54BD0803D712F7FE14BB7","019cfa76-bfb5-7d7d-bb54-bd4f6c518d79","019cfa3a-388e-72ab-ad58-bdeb258f96cd","","146","
                <div class=""stimulus-container"">
                    <img src=""images/semantic_sequence/redecorating_a_house_semantic/redecorating_a_house_semantic_9.png"" class=""exp-image"">
                    <div class=""question-area"">
                        <p style=""font-size: 20px; font-weight: bold; margin: 0;"">Is there a person in this image?</p>
                    </div>
                </div>","0","main_experiment_trial","9","redecorating_a_house_semantic","semantic_sequence","chronological","","","","","","",""
"","","","","","html-keyboard-response","98","1500898","0.0-98.0","6443FA556FA54BD0803D712F7FE14BB7","019cfa76-bfb5-7d7d-bb54-bd4f6c518d79","019cfa3a-388e-72ab-ad58-bdeb258f96cd","","null","
                <div class=""stimulus-container"">
                    <img src=""images/semantic_sequence/redecorating_a_house_semantic/redecorating_a_house_semantic_ten.png"" class=""exp-image"">
                    <div class=""question-area""></div> 
                </div>","null","","","","","","","","","","","",""
"","","","","","html-button-response","99","1501229","0.0-99.0","6443FA556FA54BD0803D712F7FE14BB7","019cfa76-bfb5-7d7d-bb54-bd4f6c518d79","019cfa3a-388e-72ab-ad58-bdeb258f96cd","","328","
                <div class=""stimulus-container"">
                    <img src=""images/semantic_sequence/redecorating_a_house_semantic/redecorating_a_house_semantic_ten.png"" class=""exp-image"">
                    <div class=""question-area"">
                        <p style=""font-size: 20px; font-weight: bold; margin: 0;"">Is there a person in this image?</p>
                    </div>
                </div>","0","main_experiment_trial","ten","redecorating_a_house_semantic","semantic_sequence","chronological","","","","","","",""
"","","","","","html-keyboard-response","100","1506231","0.0-100.0","6443FA556FA54BD0803D712F7FE14BB7","019cfa76-bfb5-7d7d-bb54-bd4f6c518d79","019cfa3a-388e-72ab-ad58-bdeb258f96cd","","null","<div style=""background-color: white; width: 100vw; height: 100vh;""></div>","null","","","","","","","","","","","",""
"","","","","","html-keyboard-response","101","1507233","0.0-101.0","6443FA556FA54BD0803D712F7FE14BB7","019cfa76-bfb5-7d7d-bb54-bd4f6c518d79","019cfa3a-388e-72ab-ad58-bdeb258f96cd","","null","
                <div class=""stimulus-container"">
                    <img src=""images/semantic_sequence/visiting_cities_semantic/visiting_cities_semantic_1.png"" class=""exp-image"">
                    <div class=""question-area""></div> 
                </div>","null","","","","","","","","","","","",""
"","","","","","html-button-response","102","1508406","0.0-102.0","6443FA556FA54BD0803D712F7FE14BB7","019cfa76-bfb5-7d7d-bb54-bd4f6c518d79","019cfa3a-388e-72ab-ad58-bdeb258f96cd","","1170","
                <div class=""stimulus-container"">
                    <img src=""images/semantic_sequence/visiting_cities_semantic/visiting_cities_semantic_1.png"" class=""exp-image"">
                    <div class=""question-area"">
                        <p style=""font-size: 20px; font-weight: bold; margin: 0;"">Is there a person in this image?</p>
                    </div>
                </div>","0","main_experiment_trial","1","visiting_cities_semantic","semantic_sequence","chronological","","","","","","",""
"","","","","","html-keyboard-response","103","1509408","0.0-103.0","6443FA556FA54BD0803D712F7FE14BB7","019cfa76-bfb5-7d7d-bb54-bd4f6c518d79","019cfa3a-388e-72ab-ad58-bdeb258f96cd","","null","
                <div class=""stimulus-container"">
                    <img src=""images/semantic_sequence/visiting_cities_semantic/visiting_cities_semantic_2.png"" class=""exp-image"">
                    <div class=""question-area""></div> 
                </div>","null","","","","","","","","","","","",""
"","","","","","html-button-response","104","1510051","0.0-104.0","6443FA556FA54BD0803D712F7FE14BB7","019cfa76-bfb5-7d7d-bb54-bd4f6c518d79","019cfa3a-388e-72ab-ad58-bdeb258f96cd","","641","
                <div class=""stimulus-container"">
                    <img src=""images/semantic_sequence/visiting_cities_semantic/visiting_cities_semantic_2.png"" class=""exp-image"">
                    <div class=""question-area"">
                        <p style=""font-size: 20px; font-weight: bold; margin: 0;"">Is there a person in this image?</p>
                    </div>
                </div>","1","main_experiment_trial","2","visiting_cities_semantic","semantic_sequence","chronological","","","","","","",""
"","","","","","html-keyboard-response","105","1511053","0.0-105.0","6443FA556FA54BD0803D712F7FE14BB7","019cfa76-bfb5-7d7d-bb54-bd4f6c518d79","019cfa3a-388e-72ab-ad58-bdeb258f96cd","","null","
                <div class=""stimulus-container"">
                    <img src=""images/semantic_sequence/visiting_cities_semantic/visiting_cities_semantic_3.png"" class=""exp-image"">
                    <div class=""question-area""></div> 
                </div>","null","","","","","","","","","","","",""
"","","","","","html-button-response","106","1511405","0.0-106.0","6443FA556FA54BD0803D712F7FE14BB7","019cfa76-bfb5-7d7d-bb54-bd4f6c518d79","019cfa3a-388e-72ab-ad58-bdeb258f96cd","","349","
                <div class=""stimulus-container"">
                    <img src=""images/semantic_sequence/visiting_cities_semantic/visiting_cities_semantic_3.png"" class=""exp-image"">
                    <div class=""question-area"">
                        <p style=""font-size: 20px; font-weight: bold; margin: 0;"">Is there a person in this image?</p>
                    </div>
                </div>","1","main_experiment_trial","3","visiting_cities_semantic","semantic_sequence","chronological","","","","","","",""
"","","","","","html-keyboard-response","107","1512406","0.0-107.0","6443FA556FA54BD0803D712F7FE14BB7","019cfa76-bfb5-7d7d-bb54-bd4f6c518d79","019cfa3a-388e-72ab-ad58-bdeb258f96cd","","null","
                <div class=""stimulus-container"">
                    <img src=""images/semantic_sequence/visiting_cities_semantic/visiting_cities_semantic_4.png"" class=""exp-image"">
                    <div class=""question-area""></div> 
                </div>","null","","","","","","","","","","","",""
"","","","","","html-button-response","108","1512867","0.0-108.0","6443FA556FA54BD0803D712F7FE14BB7","019cfa76-bfb5-7d7d-bb54-bd4f6c518d79","019cfa3a-388e-72ab-ad58-bdeb258f96cd","","458","
                <div class=""stimulus-container"">
                    <img src=""images/semantic_sequence/visiting_cities_semantic/visiting_cities_semantic_4.png"" class=""exp-image"">
                    <div class=""question-area"">
                        <p style=""font-size: 20px; font-weight: bold; margin: 0;"">Is there a person in this image?</p>
                    </div>
                </div>","1","main_experiment_trial","4","visiting_cities_semantic","semantic_sequence","chronological","","","","","","",""
"","","","","","html-keyboard-response","109","1513869","0.0-109.0","6443FA556FA54BD0803D712F7FE14BB7","019cfa76-bfb5-7d7d-bb54-bd4f6c518d79","019cfa3a-388e-72ab-ad58-bdeb258f96cd","","null","
                <div class=""stimulus-container"">
                    <img src=""images/semantic_sequence/visiting_cities_semantic/visiting_cities_semantic_5.png"" class=""exp-image"">
                    <div class=""question-area""></div> 
                </div>","null","","","","","","","","","","","",""
"","","","","","html-button-response","110","1514153","0.0-110.0","6443FA556FA54BD0803D712F7FE14BB7","019cfa76-bfb5-7d7d-bb54-bd4f6c518d79","019cfa3a-388e-72ab-ad58-bdeb258f96cd","","282","
                <div class=""stimulus-container"">
                    <img src=""images/semantic_sequence/visiting_cities_semantic/visiting_cities_semantic_5.png"" class=""exp-image"">
                    <div class=""question-area"">
                        <p style=""font-size: 20px; font-weight: bold; margin: 0;"">Is there a person in this image?</p>
                    </div>
                </div>","1","main_experiment_trial","5","visiting_cities_semantic","semantic_sequence","chronological","","","","","","",""
"","","","","","html-keyboard-response","111","1515155","0.0-111.0","6443FA556FA54BD0803D712F7FE14BB7","019cfa76-bfb5-7d7d-bb54-bd4f6c518d79","019cfa3a-388e-72ab-ad58-bdeb258f96cd","","null","
                <div class=""stimulus-container"">
                    <img src=""images/semantic_sequence/visiting_cities_semantic/visiting_cities_semantic_6.png"" class=""exp-image"">
                    <div class=""question-area""></div> 
                </div>","null","","","","","","","","","","","",""
"","","","","","html-button-response","112","1515482","0.0-112.0","6443FA556FA54BD0803D712F7FE14BB7","019cfa76-bfb5-7d7d-bb54-bd4f6c518d79","019cfa3a-388e-72ab-ad58-bdeb258f96cd","","324","
                <div class=""stimulus-container"">
                    <img src=""images/semantic_sequence/visiting_cities_semantic/visiting_cities_semantic_6.png"" class=""exp-image"">
                    <div class=""question-area"">
                        <p style=""font-size: 20px; font-weight: bold; margin: 0;"">Is there a person in this image?</p>
                    </div>
                </div>","1","main_experiment_trial","6","visiting_cities_semantic","semantic_sequence","chronological","","","","","","",""
"","","","","","html-keyboard-response","113","1516484","0.0-113.0","6443FA556FA54BD0803D712F7FE14BB7","019cfa76-bfb5-7d7d-bb54-bd4f6c518d79","019cfa3a-388e-72ab-ad58-bdeb258f96cd","","null","
                <div class=""stimulus-container"">
                    <img src=""images/semantic_sequence/visiting_cities_semantic/visiting_cities_semantic_7.png"" class=""exp-image"">
                    <div class=""question-area""></div> 
                </div>","null","","","","","","","","","","","",""
"","","","","","html-button-response","114","1516890","0.0-114.0","6443FA556FA54BD0803D712F7FE14BB7","019cfa76-bfb5-7d7d-bb54-bd4f6c518d79","019cfa3a-388e-72ab-ad58-bdeb258f96cd","","404","
                <div class=""stimulus-container"">
                    <img src=""images/semantic_sequence/visiting_cities_semantic/visiting_cities_semantic_7.png"" class=""exp-image"">
                    <div class=""question-area"">
                        <p style=""font-size: 20px; font-weight: bold; margin: 0;"">Is there a person in this image?</p>
                    </div>
                </div>","0","main_experiment_trial","7","visiting_cities_semantic","semantic_sequence","chronological","","","","","","",""
"","","","","","html-keyboard-response","115","1517891","0.0-115.0","6443FA556FA54BD0803D712F7FE14BB7","019cfa76-bfb5-7d7d-bb54-bd4f6c518d79","019cfa3a-388e-72ab-ad58-bdeb258f96cd","","null","
                <div class=""stimulus-container"">
                    <img src=""images/semantic_sequence/visiting_cities_semantic/visiting_cities_semantic_8.png"" class=""exp-image"">
                    <div class=""question-area""></div> 
                </div>","null","","","","","","","","","","","",""
"","","","","","html-button-response","116","1518205","0.0-116.0","6443FA556FA54BD0803D712F7FE14BB7","019cfa76-bfb5-7d7d-bb54-bd4f6c518d79","019cfa3a-388e-72ab-ad58-bdeb258f96cd","","312","
                <div class=""stimulus-container"">
                    <img src=""images/semantic_sequence/visiting_cities_semantic/visiting_cities_semantic_8.png"" class=""exp-image"">
                    <div class=""question-area"">
                        <p style=""font-size: 20px; font-weight: bold; margin: 0;"">Is there a person in this image?</p>
                    </div>
                </div>","0","main_experiment_trial","8","visiting_cities_semantic","semantic_sequence","chronological","","","","","","",""
"","","","","","html-keyboard-response","117","1519207","0.0-117.0","6443FA556FA54BD0803D712F7FE14BB7","019cfa76-bfb5-7d7d-bb54-bd4f6c518d79","019cfa3a-388e-72ab-ad58-bdeb258f96cd","","null","
                <div class=""stimulus-container"">
                    <img src=""images/semantic_sequence/visiting_cities_semantic/visiting_cities_semantic_9.png"" class=""exp-image"">
                    <div class=""question-area""></div> 
                </div>","null","","","","","","","","","","","",""
"","","","","","html-button-response","118","1519532","0.0-118.0","6443FA556FA54BD0803D712F7FE14BB7","019cfa76-bfb5-7d7d-bb54-bd4f6c518d79","019cfa3a-388e-72ab-ad58-bdeb258f96cd","","322","
                <div class=""stimulus-container"">
                    <img src=""images/semantic_sequence/visiting_cities_semantic/visiting_cities_semantic_9.png"" class=""exp-image"">
                    <div class=""question-area"">
                        <p style=""font-size: 20px; font-weight: bold; margin: 0;"">Is there a person in this image?</p>
                    </div>
                </div>","0","main_experiment_trial","9","visiting_cities_semantic","semantic_sequence","chronological","","","","","","",""
"","","","","","html-keyboard-response","119","1520534","0.0-119.0","6443FA556FA54BD0803D712F7FE14BB7","019cfa76-bfb5-7d7d-bb54-bd4f6c518d79","019cfa3a-388e-72ab-ad58-bdeb258f96cd","","null","
                <div class=""stimulus-container"">
                    <img src=""images/semantic_sequence/visiting_cities_semantic/visiting_cities_semantic_ten.png"" class=""exp-image"">
                    <div class=""question-area""></div> 
                </div>","null","","","","","","","","","","","",""
"","","","","","html-button-response","120","1521061","0.0-120.0","6443FA556FA54BD0803D712F7FE14BB7","019cfa76-bfb5-7d7d-bb54-bd4f6c518d79","019cfa3a-388e-72ab-ad58-bdeb258f96cd","","524","
                <div class=""stimulus-container"">
                    <img src=""images/semantic_sequence/visiting_cities_semantic/visiting_cities_semantic_ten.png"" class=""exp-image"">
                    <div class=""question-area"">
                        <p style=""font-size: 20px; font-weight: bold; margin: 0;"">Is there a person in this image?</p>
                    </div>
                </div>","1","main_experiment_trial","ten","visiting_cities_semantic","semantic_sequence","chronological","","","","","","",""
"","","","","","html-keyboard-response","121","1526063","0.0-121.0","6443FA556FA54BD0803D712F7FE14BB7","019cfa76-bfb5-7d7d-bb54-bd4f6c518d79","019cfa3a-388e-72ab-ad58-bdeb258f96cd","","null","<div style=""background-color: white; width: 100vw; height: 100vh;""></div>","null","","","","","","","","","","","",""
"","","","","","html-keyboard-response","122","1527064","0.0-122.0","6443FA556FA54BD0803D712F7FE14BB7","019cfa76-bfb5-7d7d-bb54-bd4f6c518d79","019cfa3a-388e-72ab-ad58-bdeb258f96cd","","null","
                <div class=""stimulus-container"">
                    <img src=""images/semantic_sequence/exploring_nature_semantic/exploring_nature_semantic_1.png"" class=""exp-image"">
                    <div class=""question-area""></div> 
                </div>","null","","","","","","","","","","","",""
"","","","","","html-button-response","123","1527660","0.0-123.0","6443FA556FA54BD0803D712F7FE14BB7","019cfa76-bfb5-7d7d-bb54-bd4f6c518d79","019cfa3a-388e-72ab-ad58-bdeb258f96cd","","593","
                <div class=""stimulus-container"">
                    <img src=""images/semantic_sequence/exploring_nature_semantic/exploring_nature_semantic_1.png"" class=""exp-image"">
                    <div class=""question-area"">
                        <p style=""font-size: 20px; font-weight: bold; margin: 0;"">Is there a person in this image?</p>
                    </div>
                </div>","0","main_experiment_trial","1","exploring_nature_semantic","semantic_sequence","chronological","","","","","","",""
"","","","","","html-keyboard-response","124","1528662","0.0-124.0","6443FA556FA54BD0803D712F7FE14BB7","019cfa76-bfb5-7d7d-bb54-bd4f6c518d79","019cfa3a-388e-72ab-ad58-bdeb258f96cd","","null","
                <div class=""stimulus-container"">
                    <img src=""images/semantic_sequence/exploring_nature_semantic/exploring_nature_semantic_2.png"" class=""exp-image"">
                    <div class=""question-area""></div> 
                </div>","null","","","","","","","","","","","",""
"","","","","","html-button-response","125","1528806","0.0-125.0","6443FA556FA54BD0803D712F7FE14BB7","019cfa76-bfb5-7d7d-bb54-bd4f6c518d79","019cfa3a-388e-72ab-ad58-bdeb258f96cd","","141","
                <div class=""stimulus-container"">
                    <img src=""images/semantic_sequence/exploring_nature_semantic/exploring_nature_semantic_2.png"" class=""exp-image"">
                    <div class=""question-area"">
                        <p style=""font-size: 20px; font-weight: bold; margin: 0;"">Is there a person in this image?</p>
                    </div>
                </div>","0","main_experiment_trial","2","exploring_nature_semantic","semantic_sequence","chronological","","","","","","",""
"","","","","","html-keyboard-response","126","1529808","0.0-126.0","6443FA556FA54BD0803D712F7FE14BB7","019cfa76-bfb5-7d7d-bb54-bd4f6c518d79","019cfa3a-388e-72ab-ad58-bdeb258f96cd","","null","
                <div class=""stimulus-container"">
                    <img src=""images/semantic_sequence/exploring_nature_semantic/exploring_nature_semantic_3.png"" class=""exp-image"">
                    <div class=""question-area""></div> 
                </div>","null","","","","","","","","","","","",""
"","","","","","html-button-response","127","1530030","0.0-127.0","6443FA556FA54BD0803D712F7FE14BB7","019cfa76-bfb5-7d7d-bb54-bd4f6c518d79","019cfa3a-388e-72ab-ad58-bdeb258f96cd","","220","
                <div class=""stimulus-container"">
                    <img src=""images/semantic_sequence/exploring_nature_semantic/exploring_nature_semantic_3.png"" class=""exp-image"">
                    <div class=""question-area"">
                        <p style=""font-size: 20px; font-weight: bold; margin: 0;"">Is there a person in this image?</p>
                    </div>
                </div>","0","main_experiment_trial","3","exploring_nature_semantic","semantic_sequence","chronological","","","","","","",""
"","","","","","html-keyboard-response","128","1531032","0.0-128.0","6443FA556FA54BD0803D712F7FE14BB7","019cfa76-bfb5-7d7d-bb54-bd4f6c518d79","019cfa3a-388e-72ab-ad58-bdeb258f96cd","","null","
                <div class=""stimulus-container"">
                    <img src=""images/semantic_sequence/exploring_nature_semantic/exploring_nature_semantic_4.png"" class=""exp-image"">
                    <div class=""question-area""></div> 
                </div>","null","","","","","","","","","","","",""
"","","","","","html-button-response","129","1531262","0.0-129.0","6443FA556FA54BD0803D712F7FE14BB7","019cfa76-bfb5-7d7d-bb54-bd4f6c518d79","019cfa3a-388e-72ab-ad58-bdeb258f96cd","","227","
                <div class=""stimulus-container"">
                    <img src=""images/semantic_sequence/exploring_nature_semantic/exploring_nature_semantic_4.png"" class=""exp-image"">
                    <div class=""question-area"">
                        <p style=""font-size: 20px; font-weight: bold; margin: 0;"">Is there a person in this image?</p>
                    </div>
                </div>","0","main_experiment_trial","4","exploring_nature_semantic","semantic_sequence","chronological","","","","","","",""
"","","","","","html-keyboard-response","130","1532264","0.0-130.0","6443FA556FA54BD0803D712F7FE14BB7","019cfa76-bfb5-7d7d-bb54-bd4f6c518d79","019cfa3a-388e-72ab-ad58-bdeb258f96cd","","null","
                <div class=""stimulus-container"">
                    <img src=""images/semantic_sequence/exploring_nature_semantic/exploring_nature_semantic_5.png"" class=""exp-image"">
                    <div class=""question-area""></div> 
                </div>","null","","","","","","","","","","","",""
"","","","","","html-button-response","131","1532638","0.0-131.0","6443FA556FA54BD0803D712F7FE14BB7","019cfa76-bfb5-7d7d-bb54-bd4f6c518d79","019cfa3a-388e-72ab-ad58-bdeb258f96cd","","371","
                <div class=""stimulus-container"">
                    <img src=""images/semantic_sequence/exploring_nature_semantic/exploring_nature_semantic_5.png"" class=""exp-image"">
                    <div class=""question-area"">
                        <p style=""font-size: 20px; font-weight: bold; margin: 0;"">Is there a person in this image?</p>
                    </div>
                </div>","0","main_experiment_trial","5","exploring_nature_semantic","semantic_sequence","chronological","","","","","","",""
"","","","","","html-keyboard-response","132","1533641","0.0-132.0","6443FA556FA54BD0803D712F7FE14BB7","019cfa76-bfb5-7d7d-bb54-bd4f6c518d79","019cfa3a-388e-72ab-ad58-bdeb258f96cd","","null","
                <div class=""stimulus-container"">
                    <img src=""images/semantic_sequence/exploring_nature_semantic/exploring_nature_semantic_6.png"" class=""exp-image"">
                    <div class=""question-area""></div> 
                </div>","null","","","","","","","","","","","",""
"","","","","","html-button-response","133","1533964","0.0-133.0","6443FA556FA54BD0803D712F7FE14BB7","019cfa76-bfb5-7d7d-bb54-bd4f6c518d79","019cfa3a-388e-72ab-ad58-bdeb258f96cd","","321","
                <div class=""stimulus-container"">
                    <img src=""images/semantic_sequence/exploring_nature_semantic/exploring_nature_semantic_6.png"" class=""exp-image"">
                    <div class=""question-area"">
                        <p style=""font-size: 20px; font-weight: bold; margin: 0;"">Is there a person in this image?</p>
                    </div>
                </div>","0","main_experiment_trial","6","exploring_nature_semantic","semantic_sequence","chronological","","","","","","",""
"","","","","","html-keyboard-response","134","1534966","0.0-134.0","6443FA556FA54BD0803D712F7FE14BB7","019cfa76-bfb5-7d7d-bb54-bd4f6c518d79","019cfa3a-388e-72ab-ad58-bdeb258f96cd","","null","
                <div class=""stimulus-container"">
                    <img src=""images/semantic_sequence/exploring_nature_semantic/exploring_nature_semantic_7.png"" class=""exp-image"">
                    <div class=""question-area""></div> 
                </div>","null","","","","","","","","","","","",""
"","","","","","html-button-response","135","1535253","0.0-135.0","6443FA556FA54BD0803D712F7FE14BB7","019cfa76-bfb5-7d7d-bb54-bd4f6c518d79","019cfa3a-388e-72ab-ad58-bdeb258f96cd","","284","
                <div class=""stimulus-container"">
                    <img src=""images/semantic_sequence/exploring_nature_semantic/exploring_nature_semantic_7.png"" class=""exp-image"">
                    <div class=""question-area"">
                        <p style=""font-size: 20px; font-weight: bold; margin: 0;"">Is there a person in this image?</p>
                    </div>
                </div>","0","main_experiment_trial","7","exploring_nature_semantic","semantic_sequence","chronological","","","","","","",""
"","","","","","html-keyboard-response","136","1536255","0.0-136.0","6443FA556FA54BD0803D712F7FE14BB7","019cfa76-bfb5-7d7d-bb54-bd4f6c518d79","019cfa3a-388e-72ab-ad58-bdeb258f96cd","","null","
                <div class=""stimulus-container"">
                    <img src=""images/semantic_sequence/exploring_nature_semantic/exploring_nature_semantic_8.png"" class=""exp-image"">
                    <div class=""question-area""></div> 
                </div>","null","","","","","","","","","","","",""
"","","","","","html-button-response","137","1536525","0.0-137.0","6443FA556FA54BD0803D712F7FE14BB7","019cfa76-bfb5-7d7d-bb54-bd4f6c518d79","019cfa3a-388e-72ab-ad58-bdeb258f96cd","","268","
                <div class=""stimulus-container"">
                    <img src=""images/semantic_sequence/exploring_nature_semantic/exploring_nature_semantic_8.png"" class=""exp-image"">
                    <div class=""question-area"">
                        <p style=""font-size: 20px; font-weight: bold; margin: 0;"">Is there a person in this image?</p>
                    </div>
                </div>","0","main_experiment_trial","8","exploring_nature_semantic","semantic_sequence","chronological","","","","","","",""
"","","","","","html-keyboard-response","138","1537527","0.0-138.0","6443FA556FA54BD0803D712F7FE14BB7","019cfa76-bfb5-7d7d-bb54-bd4f6c518d79","019cfa3a-388e-72ab-ad58-bdeb258f96cd","","null","
                <div class=""stimulus-container"">
                    <img src=""images/semantic_sequence/exploring_nature_semantic/exploring_nature_semantic_9.png"" class=""exp-image"">
                    <div class=""question-area""></div> 
                </div>","null","","","","","","","","","","","",""
"","","","","","html-button-response","139","1537799","0.0-139.0","6443FA556FA54BD0803D712F7FE14BB7","019cfa76-bfb5-7d7d-bb54-bd4f6c518d79","019cfa3a-388e-72ab-ad58-bdeb258f96cd","","269","
                <div class=""stimulus-container"">
                    <img src=""images/semantic_sequence/exploring_nature_semantic/exploring_nature_semantic_9.png"" class=""exp-image"">
                    <div class=""question-area"">
                        <p style=""font-size: 20px; font-weight: bold; margin: 0;"">Is there a person in this image?</p>
                    </div>
                </div>","0","main_experiment_trial","9","exploring_nature_semantic","semantic_sequence","chronological","","","","","","",""
"","","","","","html-keyboard-response","140","1538801","0.0-140.0","6443FA556FA54BD0803D712F7FE14BB7","019cfa76-bfb5-7d7d-bb54-bd4f6c518d79","019cfa3a-388e-72ab-ad58-bdeb258f96cd","","null","
                <div class=""stimulus-container"">
                    <img src=""images/semantic_sequence/exploring_nature_semantic/exploring_nature_semantic_ten.png"" class=""exp-image"">
                    <div class=""question-area""></div> 
                </div>","null","","","","","","","","","","","",""
"","","","","","html-button-response","141","1539023","0.0-141.0","6443FA556FA54BD0803D712F7FE14BB7","019cfa76-bfb5-7d7d-bb54-bd4f6c518d79","019cfa3a-388e-72ab-ad58-bdeb258f96cd","","220","
                <div class=""stimulus-container"">
                    <img src=""images/semantic_sequence/exploring_nature_semantic/exploring_nature_semantic_ten.png"" class=""exp-image"">
                    <div class=""question-area"">
                        <p style=""font-size: 20px; font-weight: bold; margin: 0;"">Is there a person in this image?</p>
                    </div>
                </div>","0","main_experiment_trial","ten","exploring_nature_semantic","semantic_sequence","chronological","","","","","","",""
"","","","","","html-keyboard-response","142","1544025","0.0-142.0","6443FA556FA54BD0803D712F7FE14BB7","019cfa76-bfb5-7d7d-bb54-bd4f6c518d79","019cfa3a-388e-72ab-ad58-bdeb258f96cd","","null","<div style=""background-color: white; width: 100vw; height: 100vh;""></div>","null","","","","","","","","","","","",""
"","","","","","html-keyboard-response","143","1545027","0.0-143.0","6443FA556FA54BD0803D712F7FE14BB7","019cfa76-bfb5-7d7d-bb54-bd4f6c518d79","019cfa3a-388e-72ab-ad58-bdeb258f96cd","","null","
                <div class=""stimulus-container"">
                    <img src=""images/semantic_sequence/maintaining_a_car_semantic/maintaining_a_car_semantic_1.png"" class=""exp-image"">
                    <div class=""question-area""></div> 
                </div>","null","","","","","","","","","","","",""
"","","","","","html-button-response","144","1545335","0.0-144.0","6443FA556FA54BD0803D712F7FE14BB7","019cfa76-bfb5-7d7d-bb54-bd4f6c518d79","019cfa3a-388e-72ab-ad58-bdeb258f96cd","","306","
                <div class=""stimulus-container"">
                    <img src=""images/semantic_sequence/maintaining_a_car_semantic/maintaining_a_car_semantic_1.png"" class=""exp-image"">
                    <div class=""question-area"">
                        <p style=""font-size: 20px; font-weight: bold; margin: 0;"">Is there a person in this image?</p>
                    </div>
                </div>","0","main_experiment_trial","1","maintaining_a_car_semantic","semantic_sequence","chronological","","","","","","",""
"","","","","","html-keyboard-response","145","1546338","0.0-145.0","6443FA556FA54BD0803D712F7FE14BB7","019cfa76-bfb5-7d7d-bb54-bd4f6c518d79","019cfa3a-388e-72ab-ad58-bdeb258f96cd","","null","
                <div class=""stimulus-container"">
                    <img src=""images/semantic_sequence/maintaining_a_car_semantic/maintaining_a_car_semantic_2.png"" class=""exp-image"">
                    <div class=""question-area""></div> 
                </div>","null","","","","","","","","","","","",""
"","","","","","html-button-response","146","1546649","0.0-146.0","6443FA556FA54BD0803D712F7FE14BB7","019cfa76-bfb5-7d7d-bb54-bd4f6c518d79","019cfa3a-388e-72ab-ad58-bdeb258f96cd","","309","
                <div class=""stimulus-container"">
                    <img src=""images/semantic_sequence/maintaining_a_car_semantic/maintaining_a_car_semantic_2.png"" class=""exp-image"">
                    <div class=""question-area"">
                        <p style=""font-size: 20px; font-weight: bold; margin: 0;"">Is there a person in this image?</p>
                    </div>
                </div>","0","main_experiment_trial","2","maintaining_a_car_semantic","semantic_sequence","chronological","","","","","","",""
"","","","","","html-keyboard-response","147","1547651","0.0-147.0","6443FA556FA54BD0803D712F7FE14BB7","019cfa76-bfb5-7d7d-bb54-bd4f6c518d79","019cfa3a-388e-72ab-ad58-bdeb258f96cd","","null","
                <div class=""stimulus-container"">
                    <img src=""images/semantic_sequence/maintaining_a_car_semantic/maintaining_a_car_semantic_3.png"" class=""exp-image"">
                    <div class=""question-area""></div> 
                </div>","null","","","","","","","","","","","",""
"","","","","","html-button-response","148","1547975","0.0-148.0","6443FA556FA54BD0803D712F7FE14BB7","019cfa76-bfb5-7d7d-bb54-bd4f6c518d79","019cfa3a-388e-72ab-ad58-bdeb258f96cd","","321","
                <div class=""stimulus-container"">
                    <img src=""images/semantic_sequence/maintaining_a_car_semantic/maintaining_a_car_semantic_3.png"" class=""exp-image"">
                    <div class=""question-area"">
                        <p style=""font-size: 20px; font-weight: bold; margin: 0;"">Is there a person in this image?</p>
                    </div>
                </div>","0","main_experiment_trial","3","maintaining_a_car_semantic","semantic_sequence","chronological","","","","","","",""
"","","","","","html-keyboard-response","149","1548976","0.0-149.0","6443FA556FA54BD0803D712F7FE14BB7","019cfa76-bfb5-7d7d-bb54-bd4f6c518d79","019cfa3a-388e-72ab-ad58-bdeb258f96cd","","null","
                <div class=""stimulus-container"">
                    <img src=""images/semantic_sequence/maintaining_a_car_semantic/maintaining_a_car_semantic_4.png"" class=""exp-image"">
                    <div class=""question-area""></div> 
                </div>","null","","","","","","","","","","","",""
"","","","","","html-button-response","150","1549332","0.0-150.0","6443FA556FA54BD0803D712F7FE14BB7","019cfa76-bfb5-7d7d-bb54-bd4f6c518d79","019cfa3a-388e-72ab-ad58-bdeb258f96cd","","353","
                <div class=""stimulus-container"">
                    <img src=""images/semantic_sequence/maintaining_a_car_semantic/maintaining_a_car_semantic_4.png"" class=""exp-image"">
                    <div class=""question-area"">
                        <p style=""font-size: 20px; font-weight: bold; margin: 0;"">Is there a person in this image?</p>
                    </div>
                </div>","0","main_experiment_trial","4","maintaining_a_car_semantic","semantic_sequence","chronological","","","","","","",""
"","","","","","html-keyboard-response","151","1550334","0.0-151.0","6443FA556FA54BD0803D712F7FE14BB7","019cfa76-bfb5-7d7d-bb54-bd4f6c518d79","019cfa3a-388e-72ab-ad58-bdeb258f96cd","","null","
                <div class=""stimulus-container"">
                    <img src=""images/semantic_sequence/maintaining_a_car_semantic/maintaining_a_car_semantic_5.png"" class=""exp-image"">
                    <div class=""question-area""></div> 
                </div>","null","","","","","","","","","","","",""
"","","","","","html-button-response","152","1550621","0.0-152.0","6443FA556FA54BD0803D712F7FE14BB7","019cfa76-bfb5-7d7d-bb54-bd4f6c518d79","019cfa3a-388e-72ab-ad58-bdeb258f96cd","","284","
                <div class=""stimulus-container"">
                    <img src=""images/semantic_sequence/maintaining_a_car_semantic/maintaining_a_car_semantic_5.png"" class=""exp-image"">
                    <div class=""question-area"">
                        <p style=""font-size: 20px; font-weight: bold; margin: 0;"">Is there a person in this image?</p>
                    </div>
                </div>","0","main_experiment_trial","5","maintaining_a_car_semantic","semantic_sequence","chronological","","","","","","",""
"","","","","","html-keyboard-response","153","1551623","0.0-153.0","6443FA556FA54BD0803D712F7FE14BB7","019cfa76-bfb5-7d7d-bb54-bd4f6c518d79","019cfa3a-388e-72ab-ad58-bdeb258f96cd","","null","
                <div class=""stimulus-container"">
                    <img src=""images/semantic_sequence/maintaining_a_car_semantic/maintaining_a_car_semantic_6.png"" class=""exp-image"">
                    <div class=""question-area""></div> 
                </div>","null","","","","","","","","","","","",""
"","","","","","html-button-response","154","1552119","0.0-154.0","6443FA556FA54BD0803D712F7FE14BB7","019cfa76-bfb5-7d7d-bb54-bd4f6c518d79","019cfa3a-388e-72ab-ad58-bdeb258f96cd","","494","
                <div class=""stimulus-container"">
                    <img src=""images/semantic_sequence/maintaining_a_car_semantic/maintaining_a_car_semantic_6.png"" class=""exp-image"">
                    <div class=""question-area"">
                        <p style=""font-size: 20px; font-weight: bold; margin: 0;"">Is there a person in this image?</p>
                    </div>
                </div>","0","main_experiment_trial","6","maintaining_a_car_semantic","semantic_sequence","chronological","","","","","","",""
"","","","","","html-keyboard-response","155","1553121","0.0-155.0","6443FA556FA54BD0803D712F7FE14BB7","019cfa76-bfb5-7d7d-bb54-bd4f6c518d79","019cfa3a-388e-72ab-ad58-bdeb258f96cd","","null","
                <div class=""stimulus-container"">
                    <img src=""images/semantic_sequence/maintaining_a_car_semantic/maintaining_a_car_semantic_7.png"" class=""exp-image"">
                    <div class=""question-area""></div> 
                </div>","null","","","","","","","","","","","",""
"","","","","","html-button-response","156","1553578","0.0-156.0","6443FA556FA54BD0803D712F7FE14BB7","019cfa76-bfb5-7d7d-bb54-bd4f6c518d79","019cfa3a-388e-72ab-ad58-bdeb258f96cd","","454","
                <div class=""stimulus-container"">
                    <img src=""images/semantic_sequence/maintaining_a_car_semantic/maintaining_a_car_semantic_7.png"" class=""exp-image"">
                    <div class=""question-area"">
                        <p style=""font-size: 20px; font-weight: bold; margin: 0;"">Is there a person in this image?</p>
                    </div>
                </div>","0","main_experiment_trial","7","maintaining_a_car_semantic","semantic_sequence","chronological","","","","","","",""
"","","","","","html-keyboard-response","157","1554580","0.0-157.0","6443FA556FA54BD0803D712F7FE14BB7","019cfa76-bfb5-7d7d-bb54-bd4f6c518d79","019cfa3a-388e-72ab-ad58-bdeb258f96cd","","null","
                <div class=""stimulus-container"">
                    <img src=""images/semantic_sequence/maintaining_a_car_semantic/maintaining_a_car_semantic_8.png"" class=""exp-image"">
                    <div class=""question-area""></div> 
                </div>","null","","","","","","","","","","","",""
"","","","","","html-button-response","158","1555218","0.0-158.0","6443FA556FA54BD0803D712F7FE14BB7","019cfa76-bfb5-7d7d-bb54-bd4f6c518d79","019cfa3a-388e-72ab-ad58-bdeb258f96cd","","635","
                <div class=""stimulus-container"">
                    <img src=""images/semantic_sequence/maintaining_a_car_semantic/maintaining_a_car_semantic_8.png"" class=""exp-image"">
                    <div class=""question-area"">
                        <p style=""font-size: 20px; font-weight: bold; margin: 0;"">Is there a person in this image?</p>
                    </div>
                </div>","0","main_experiment_trial","8","maintaining_a_car_semantic","semantic_sequence","chronological","","","","","","",""
"","","","","","html-keyboard-response","159","1556220","0.0-159.0","6443FA556FA54BD0803D712F7FE14BB7","019cfa76-bfb5-7d7d-bb54-bd4f6c518d79","019cfa3a-388e-72ab-ad58-bdeb258f96cd","","null","
                <div class=""stimulus-container"">
                    <img src=""images/semantic_sequence/maintaining_a_car_semantic/maintaining_a_car_semantic_9.png"" class=""exp-image"">
                    <div class=""question-area""></div> 
                </div>","null","","","","","","","","","","","",""
"","","","","","html-button-response","160","1556544","0.0-160.0","6443FA556FA54BD0803D712F7FE14BB7","019cfa76-bfb5-7d7d-bb54-bd4f6c518d79","019cfa3a-388e-72ab-ad58-bdeb258f96cd","","322","
                <div class=""stimulus-container"">
                    <img src=""images/semantic_sequence/maintaining_a_car_semantic/maintaining_a_car_semantic_9.png"" class=""exp-image"">
                    <div class=""question-area"">
                        <p style=""font-size: 20px; font-weight: bold; margin: 0;"">Is there a person in this image?</p>
                    </div>
                </div>","0","main_experiment_trial","9","maintaining_a_car_semantic","semantic_sequence","chronological","","","","","","",""
"","","","","","html-keyboard-response","161","1557546","0.0-161.0","6443FA556FA54BD0803D712F7FE14BB7","019cfa76-bfb5-7d7d-bb54-bd4f6c518d79","019cfa3a-388e-72ab-ad58-bdeb258f96cd","","null","
                <div class=""stimulus-container"">
                    <img src=""images/semantic_sequence/maintaining_a_car_semantic/maintaining_a_car_semantic_ten.png"" class=""exp-image"">
                    <div class=""question-area""></div> 
                </div>","null","","","","","","","","","","","",""
"","","","","","html-button-response","162","1557924","0.0-162.0","6443FA556FA54BD0803D712F7FE14BB7","019cfa76-bfb5-7d7d-bb54-bd4f6c518d79","019cfa3a-388e-72ab-ad58-bdeb258f96cd","","375","
                <div class=""stimulus-container"">
                    <img src=""images/semantic_sequence/maintaining_a_car_semantic/maintaining_a_car_semantic_ten.png"" class=""exp-image"">
                    <div class=""question-area"">
                        <p style=""font-size: 20px; font-weight: bold; margin: 0;"">Is there a person in this image?</p>
                    </div>
                </div>","0","main_experiment_trial","ten","maintaining_a_car_semantic","semantic_sequence","chronological","","","","","","",""
"","","","","","html-keyboard-response","163","1562926","0.0-163.0","6443FA556FA54BD0803D712F7FE14BB7","019cfa76-bfb5-7d7d-bb54-bd4f6c518d79","019cfa3a-388e-72ab-ad58-bdeb258f96cd","","null","<div style=""background-color: white; width: 100vw; height: 100vh;""></div>","null","","","","","","","","","","","",""
"","","","","","html-keyboard-response","164","1563928","0.0-164.0","6443FA556FA54BD0803D712F7FE14BB7","019cfa76-bfb5-7d7d-bb54-bd4f6c518d79","019cfa3a-388e-72ab-ad58-bdeb258f96cd","","null","
                <div class=""stimulus-container"">
                    <img src=""images/causal_sequence/package_causal/package_causal_1.png"" class=""exp-image"">
                    <div class=""question-area""></div> 
                </div>","null","","","","","","","","","","","",""
"","","","","","html-button-response","165","1564322","0.0-165.0","6443FA556FA54BD0803D712F7FE14BB7","019cfa76-bfb5-7d7d-bb54-bd4f6c518d79","019cfa3a-388e-72ab-ad58-bdeb258f96cd","","391","
                <div class=""stimulus-container"">
                    <img src=""images/causal_sequence/package_causal/package_causal_1.png"" class=""exp-image"">
                    <div class=""question-area"">
                        <p style=""font-size: 20px; font-weight: bold; margin: 0;"">Is there a person in this image?</p>
                    </div>
                </div>","0","main_experiment_trial","1","package_causal","causal_sequence","chronological","","","","","","",""
"","","","","","html-keyboard-response","166","1565324","0.0-166.0","6443FA556FA54BD0803D712F7FE14BB7","019cfa76-bfb5-7d7d-bb54-bd4f6c518d79","019cfa3a-388e-72ab-ad58-bdeb258f96cd","","null","
                <div class=""stimulus-container"">
                    <img src=""images/causal_sequence/package_causal/package_causal_2.png"" class=""exp-image"">
                    <div class=""question-area""></div> 
                </div>","null","","","","","","","","","","","",""
"","","","","","html-button-response","167","1565686","0.0-167.0","6443FA556FA54BD0803D712F7FE14BB7","019cfa76-bfb5-7d7d-bb54-bd4f6c518d79","019cfa3a-388e-72ab-ad58-bdeb258f96cd","","360","
                <div class=""stimulus-container"">
                    <img src=""images/causal_sequence/package_causal/package_causal_2.png"" class=""exp-image"">
                    <div class=""question-area"">
                        <p style=""font-size: 20px; font-weight: bold; margin: 0;"">Is there a person in this image?</p>
                    </div>
                </div>","0","main_experiment_trial","2","package_causal","causal_sequence","chronological","","","","","","",""
"","","","","","html-keyboard-response","168","1566689","0.0-168.0","6443FA556FA54BD0803D712F7FE14BB7","019cfa76-bfb5-7d7d-bb54-bd4f6c518d79","019cfa3a-388e-72ab-ad58-bdeb258f96cd","","null","
                <div class=""stimulus-container"">
                    <img src=""images/causal_sequence/package_causal/package_causal_3.png"" class=""exp-image"">
                    <div class=""question-area""></div> 
                </div>","null","","","","","","","","","","","",""
"","","","","","html-button-response","169","1566908","0.0-169.0","6443FA556FA54BD0803D712F7FE14BB7","019cfa76-bfb5-7d7d-bb54-bd4f6c518d79","019cfa3a-388e-72ab-ad58-bdeb258f96cd","","217","
                <div class=""stimulus-container"">
                    <img src=""images/causal_sequence/package_causal/package_causal_3.png"" class=""exp-image"">
                    <div class=""question-area"">
                        <p style=""font-size: 20px; font-weight: bold; margin: 0;"">Is there a person in this image?</p>
                    </div>
                </div>","0","main_experiment_trial","3","package_causal","causal_sequence","chronological","","","","","","",""
"","","","","","html-keyboard-response","170","1567909","0.0-170.0","6443FA556FA54BD0803D712F7FE14BB7","019cfa76-bfb5-7d7d-bb54-bd4f6c518d79","019cfa3a-388e-72ab-ad58-bdeb258f96cd","","null","
                <div class=""stimulus-container"">
                    <img src=""images/causal_sequence/package_causal/package_causal_4.png"" class=""exp-image"">
                    <div class=""question-area""></div> 
                </div>","null","","","","","","","","","","","",""
"","","","","","html-button-response","171","1568487","0.0-171.0","6443FA556FA54BD0803D712F7FE14BB7","019cfa76-bfb5-7d7d-bb54-bd4f6c518d79","019cfa3a-388e-72ab-ad58-bdeb258f96cd","","575","
                <div class=""stimulus-container"">
                    <img src=""images/causal_sequence/package_causal/package_causal_4.png"" class=""exp-image"">
                    <div class=""question-area"">
                        <p style=""font-size: 20px; font-weight: bold; margin: 0;"">Is there a person in this image?</p>
                    </div>
                </div>","1","main_experiment_trial","4","package_causal","causal_sequence","chronological","","","","","","",""
"","","","","","html-keyboard-response","172","1569489","0.0-172.0","6443FA556FA54BD0803D712F7FE14BB7","019cfa76-bfb5-7d7d-bb54-bd4f6c518d79","019cfa3a-388e-72ab-ad58-bdeb258f96cd","","null","
                <div class=""stimulus-container"">
                    <img src=""images/causal_sequence/package_causal/package_causal_5.png"" class=""exp-image"">
                    <div class=""question-area""></div> 
                </div>","null","","","","","","","","","","","",""
"","","","","","html-button-response","173","1569842","0.0-173.0","6443FA556FA54BD0803D712F7FE14BB7","019cfa76-bfb5-7d7d-bb54-bd4f6c518d79","019cfa3a-388e-72ab-ad58-bdeb258f96cd","","351","
                <div class=""stimulus-container"">
                    <img src=""images/causal_sequence/package_causal/package_causal_5.png"" class=""exp-image"">
                    <div class=""question-area"">
                        <p style=""font-size: 20px; font-weight: bold; margin: 0;"">Is there a person in this image?</p>
                    </div>
                </div>","0","main_experiment_trial","5","package_causal","causal_sequence","chronological","","","","","","",""
"","","","","","html-keyboard-response","174","1570845","0.0-174.0","6443FA556FA54BD0803D712F7FE14BB7","019cfa76-bfb5-7d7d-bb54-bd4f6c518d79","019cfa3a-388e-72ab-ad58-bdeb258f96cd","","null","
                <div class=""stimulus-container"">
                    <img src=""images/causal_sequence/package_causal/package_causal_6.png"" class=""exp-image"">
                    <div class=""question-area""></div> 
                </div>","null","","","","","","","","","","","",""
"","","","","","html-button-response","175","1571143","0.0-175.0","6443FA556FA54BD0803D712F7FE14BB7","019cfa76-bfb5-7d7d-bb54-bd4f6c518d79","019cfa3a-388e-72ab-ad58-bdeb258f96cd","","295","
                <div class=""stimulus-container"">
                    <img src=""images/causal_sequence/package_causal/package_causal_6.png"" class=""exp-image"">
                    <div class=""question-area"">
