"success","timeout","failed_images","failed_audio","failed_video","trial_type","trial_index","time_elapsed","internal_node_id","subject_id","study_id","session_id","view_history","rt","stimulus","response","task","image_index","folder","sequence_type","valuable_image_index","reward_type","chosen_image_index","correct_choice"
"true","false","[]","[]","[]","preload","0","14123","0.0-0.0","ACA2417ED42B46A897A9A6911F3C5237","019cef8c-ad5b-7800-8e3a-af41e7f05d86","019cef87-c56d-7b55-9135-c5814367ec25","","","","","","","","","","","",""
"","","","","","instructions","1","20870","0.0-1.0","ACA2417ED42B46A897A9A6911F3C5237","019cef8c-ad5b-7800-8e3a-af41e7f05d86","019cef87-c56d-7b55-9135-c5814367ec25","[{""page_index"":0,""viewing_time"":6747}]","6748","","","","","","","","","",""
"","","","","","instructions","2","23375","0.0-2.0","ACA2417ED42B46A897A9A6911F3C5237","019cef8c-ad5b-7800-8e3a-af41e7f05d86","019cef87-c56d-7b55-9135-c5814367ec25","[{""page_index"":0,""viewing_time"":2505}]","2505","","","","","","","","","",""
"true","","","","","fullscreen","3","26201","0.0-3.0","ACA2417ED42B46A897A9A6911F3C5237","019cef8c-ad5b-7800-8e3a-af41e7f05d86","019cef87-c56d-7b55-9135-c5814367ec25","","1823","","","","","","","","","",""
"","","","","","instructions","4","34794","0.0-4.0","ACA2417ED42B46A897A9A6911F3C5237","019cef8c-ad5b-7800-8e3a-af41e7f05d86","019cef87-c56d-7b55-9135-c5814367ec25","[{""page_index"":0,""viewing_time"":8592}]","8592","","","","","","","","","",""
"","","","","","instructions","5","37718","0.0-5.0","ACA2417ED42B46A897A9A6911F3C5237","019cef8c-ad5b-7800-8e3a-af41e7f05d86","019cef87-c56d-7b55-9135-c5814367ec25","[{""page_index"":0,""viewing_time"":2925}]","2925","","","","","","","","","",""
"","","","","","html-keyboard-response","6","41734","0.0-6.0","ACA2417ED42B46A897A9A6911F3C5237","019cef8c-ad5b-7800-8e3a-af41e7f05d86","019cef87-c56d-7b55-9135-c5814367ec25","","null","
                <div class=""stimulus-container"">
                    <img src=""images/instructions/movie_1.png"" class=""exp-image"">
                    <div class=""question-area""></div> 
                </div>","null","","","","","","","",""
"","","","","","html-button-response","7","44247","0.0-7.0","ACA2417ED42B46A897A9A6911F3C5237","019cef8c-ad5b-7800-8e3a-af41e7f05d86","019cef87-c56d-7b55-9135-c5814367ec25","","2511","
                <div class=""stimulus-container"">
                    <img src=""images/instructions/movie_1.png"" class=""exp-image"">
                    <div class=""question-area"">
                        <p style=""font-size: 20px; font-weight: bold; margin: 0;"">Was there a person in this image?</p>
                    </div>
                </div>","0","example_question","1","","","","","",""
"","","","","","html-keyboard-response","8","48251","0.0-8.0","ACA2417ED42B46A897A9A6911F3C5237","019cef8c-ad5b-7800-8e3a-af41e7f05d86","019cef87-c56d-7b55-9135-c5814367ec25","","null","
                <div class=""stimulus-container"">
                    <img src=""images/instructions/movie_2.png"" class=""exp-image"">
                    <div class=""question-area""></div> 
                </div>","null","","","","","","","",""
"","","","","","html-button-response","9","49555","0.0-9.0","ACA2417ED42B46A897A9A6911F3C5237","019cef8c-ad5b-7800-8e3a-af41e7f05d86","019cef87-c56d-7b55-9135-c5814367ec25","","1303","
                <div class=""stimulus-container"">
                    <img src=""images/instructions/movie_2.png"" class=""exp-image"">
                    <div class=""question-area"">
                        <p style=""font-size: 20px; font-weight: bold; margin: 0;"">Was there a person in this image?</p>
                    </div>
                </div>","1","example_question","2","","","","","",""
"","","","","","html-keyboard-response","10","53556","0.0-10.0","ACA2417ED42B46A897A9A6911F3C5237","019cef8c-ad5b-7800-8e3a-af41e7f05d86","019cef87-c56d-7b55-9135-c5814367ec25","","null","
                <div class=""stimulus-container"">
                    <img src=""images/instructions/movie_3.png"" class=""exp-image"">
                    <div class=""question-area""></div> 
                </div>","null","","","","","","","",""
"","","","","","html-button-response","11","54332","0.0-11.0","ACA2417ED42B46A897A9A6911F3C5237","019cef8c-ad5b-7800-8e3a-af41e7f05d86","019cef87-c56d-7b55-9135-c5814367ec25","","775","
                <div class=""stimulus-container"">
                    <img src=""images/instructions/movie_3.png"" class=""exp-image"">
                    <div class=""question-area"">
                        <p style=""font-size: 20px; font-weight: bold; margin: 0;"">Was there a person in this image?</p>
                    </div>
                </div>","0","example_question","3","","","","","",""
"","","","","","html-keyboard-response","12","58343","0.0-12.0","ACA2417ED42B46A897A9A6911F3C5237","019cef8c-ad5b-7800-8e3a-af41e7f05d86","019cef87-c56d-7b55-9135-c5814367ec25","","null","
                <div class=""stimulus-container"">
                    <img src=""images/instructions/movie_4.png"" class=""exp-image"">
                    <div class=""question-area""></div> 
                </div>","null","","","","","","","",""
"","","","","","html-button-response","13","58998","0.0-13.0","ACA2417ED42B46A897A9A6911F3C5237","019cef8c-ad5b-7800-8e3a-af41e7f05d86","019cef87-c56d-7b55-9135-c5814367ec25","","655","
                <div class=""stimulus-container"">
                    <img src=""images/instructions/movie_4.png"" class=""exp-image"">
                    <div class=""question-area"">
                        <p style=""font-size: 20px; font-weight: bold; margin: 0;"">Was there a person in this image?</p>
                    </div>
                </div>","0","example_question","4","","","","","",""
"","","","","","instructions","14","64477","0.0-14.0","ACA2417ED42B46A897A9A6911F3C5237","019cef8c-ad5b-7800-8e3a-af41e7f05d86","019cef87-c56d-7b55-9135-c5814367ec25","[{""page_index"":0,""viewing_time"":5478}]","5478","","","","","","","","","",""
"","","","","","instructions","15","69226","0.0-15.0","ACA2417ED42B46A897A9A6911F3C5237","019cef8c-ad5b-7800-8e3a-af41e7f05d86","019cef87-c56d-7b55-9135-c5814367ec25","[{""page_index"":0,""viewing_time"":4748}]","4748","","","","","","","","","",""
"","","","","","html-keyboard-response","16","70230","0.0-16.0","ACA2417ED42B46A897A9A6911F3C5237","019cef8c-ad5b-7800-8e3a-af41e7f05d86","019cef87-c56d-7b55-9135-c5814367ec25","","null","<div style=""background-color: white; width: 100vw; height: 100vh;""></div>","null","","","","","","","",""
"","","","","","html-keyboard-response","17","75240","0.0-17.0","ACA2417ED42B46A897A9A6911F3C5237","019cef8c-ad5b-7800-8e3a-af41e7f05d86","019cef87-c56d-7b55-9135-c5814367ec25","","null","
                <div class=""stimulus-container"">
                    <img src=""images/causal_sequence/the_performance_causal/the_performance_causal_1.png"" class=""exp-image"">
                    <div class=""question-area""></div> 
                </div>","null","","","","","","","",""
"","","","","","html-button-response","18","76188","0.0-18.0","ACA2417ED42B46A897A9A6911F3C5237","019cef8c-ad5b-7800-8e3a-af41e7f05d86","019cef87-c56d-7b55-9135-c5814367ec25","","947","
                <div class=""stimulus-container"">
                    <img src=""images/causal_sequence/the_performance_causal/the_performance_causal_1.png"" class=""exp-image"">
                    <div class=""question-area"">
                        <p style=""font-size: 20px; font-weight: bold; margin: 0;"">Is there a person in this image?</p>
                    </div>
                </div>","0","main_experiment_trial","1","the_performance_causal","causal_sequence","","","",""
"","","","","","html-keyboard-response","19","81202","0.0-19.0","ACA2417ED42B46A897A9A6911F3C5237","019cef8c-ad5b-7800-8e3a-af41e7f05d86","019cef87-c56d-7b55-9135-c5814367ec25","","null","
                <div class=""stimulus-container"">
                    <img src=""images/causal_sequence/the_performance_causal/the_performance_causal_2.png"" class=""exp-image"">
                    <div class=""question-area""></div> 
                </div>","null","","","","","","","",""
"","","","","","html-button-response","20","81748","0.0-20.0","ACA2417ED42B46A897A9A6911F3C5237","019cef8c-ad5b-7800-8e3a-af41e7f05d86","019cef87-c56d-7b55-9135-c5814367ec25","","547","
                <div class=""stimulus-container"">
                    <img src=""images/causal_sequence/the_performance_causal/the_performance_causal_2.png"" class=""exp-image"">
                    <div class=""question-area"">
                        <p style=""font-size: 20px; font-weight: bold; margin: 0;"">Is there a person in this image?</p>
                    </div>
                </div>","0","main_experiment_trial","2","the_performance_causal","causal_sequence","","","",""
"","","","","","html-keyboard-response","21","86754","0.0-21.0","ACA2417ED42B46A897A9A6911F3C5237","019cef8c-ad5b-7800-8e3a-af41e7f05d86","019cef87-c56d-7b55-9135-c5814367ec25","","null","
                <div class=""stimulus-container"">
                    <img src=""images/causal_sequence/the_performance_causal/the_performance_causal_3.png"" class=""exp-image"">
                    <div class=""question-area""></div> 
                </div>","null","","","","","","","",""
"","","","","","html-button-response","22","87384","0.0-22.0","ACA2417ED42B46A897A9A6911F3C5237","019cef8c-ad5b-7800-8e3a-af41e7f05d86","019cef87-c56d-7b55-9135-c5814367ec25","","629","
                <div class=""stimulus-container"">
                    <img src=""images/causal_sequence/the_performance_causal/the_performance_causal_3.png"" class=""exp-image"">
                    <div class=""question-area"">
                        <p style=""font-size: 20px; font-weight: bold; margin: 0;"">Is there a person in this image?</p>
                    </div>
                </div>","0","main_experiment_trial","3","the_performance_causal","causal_sequence","","","",""
"","","","","","html-keyboard-response","23","92386","0.0-23.0","ACA2417ED42B46A897A9A6911F3C5237","019cef8c-ad5b-7800-8e3a-af41e7f05d86","019cef87-c56d-7b55-9135-c5814367ec25","","null","
                <div class=""stimulus-container"">
                    <img src=""images/causal_sequence/the_performance_causal/the_performance_causal_4.png"" class=""exp-image"">
                    <div class=""question-area""></div> 
                </div>","null","","","","","","","",""
"","","","","","html-button-response","24","92860","0.0-24.0","ACA2417ED42B46A897A9A6911F3C5237","019cef8c-ad5b-7800-8e3a-af41e7f05d86","019cef87-c56d-7b55-9135-c5814367ec25","","475","
                <div class=""stimulus-container"">
                    <img src=""images/causal_sequence/the_performance_causal/the_performance_causal_4.png"" class=""exp-image"">
                    <div class=""question-area"">
                        <p style=""font-size: 20px; font-weight: bold; margin: 0;"">Is there a person in this image?</p>
                    </div>
                </div>","0","main_experiment_trial","4","the_performance_causal","causal_sequence","","","",""
"","","","","","html-keyboard-response","25","97873","0.0-25.0","ACA2417ED42B46A897A9A6911F3C5237","019cef8c-ad5b-7800-8e3a-af41e7f05d86","019cef87-c56d-7b55-9135-c5814367ec25","","null","
                <div class=""stimulus-container"">
                    <img src=""images/causal_sequence/the_performance_causal/the_performance_causal_5.png"" class=""exp-image"">
                    <div class=""question-area""></div> 
                </div>","null","","","","","","","",""
"","","","","","html-button-response","26","98451","0.0-26.0","ACA2417ED42B46A897A9A6911F3C5237","019cef8c-ad5b-7800-8e3a-af41e7f05d86","019cef87-c56d-7b55-9135-c5814367ec25","","578","
                <div class=""stimulus-container"">
                    <img src=""images/causal_sequence/the_performance_causal/the_performance_causal_5.png"" class=""exp-image"">
                    <div class=""question-area"">
                        <p style=""font-size: 20px; font-weight: bold; margin: 0;"">Is there a person in this image?</p>
                    </div>
                </div>","0","main_experiment_trial","5","the_performance_causal","causal_sequence","","","",""
"","","","","","html-keyboard-response","27","103462","0.0-27.0","ACA2417ED42B46A897A9A6911F3C5237","019cef8c-ad5b-7800-8e3a-af41e7f05d86","019cef87-c56d-7b55-9135-c5814367ec25","","null","
                <div class=""stimulus-container"">
                    <img src=""images/causal_sequence/the_performance_causal/the_performance_causal_6.png"" class=""exp-image"">
                    <div class=""question-area""></div> 
                </div>","null","","","","","","","",""
"","","","","","html-button-response","28","104580","0.0-28.0","ACA2417ED42B46A897A9A6911F3C5237","019cef8c-ad5b-7800-8e3a-af41e7f05d86","019cef87-c56d-7b55-9135-c5814367ec25","","1118","
                <div class=""stimulus-container"">
                    <img src=""images/causal_sequence/the_performance_causal/the_performance_causal_6.png"" class=""exp-image"">
                    <div class=""question-area"">
                        <p style=""font-size: 20px; font-weight: bold; margin: 0;"">Is there a person in this image?</p>
                    </div>
                </div>","0","main_experiment_trial","6","the_performance_causal","causal_sequence","","","",""
"","","","","","html-keyboard-response","29","109582","0.0-29.0","ACA2417ED42B46A897A9A6911F3C5237","019cef8c-ad5b-7800-8e3a-af41e7f05d86","019cef87-c56d-7b55-9135-c5814367ec25","","null","
                <div class=""stimulus-container"">
                    <img src=""images/causal_sequence/the_performance_causal/the_performance_causal_7.png"" class=""exp-image"">
                    <div class=""question-area""></div> 
                </div>","null","","","","","","","",""
"","","","","","html-button-response","30","110166","0.0-30.0","ACA2417ED42B46A897A9A6911F3C5237","019cef8c-ad5b-7800-8e3a-af41e7f05d86","019cef87-c56d-7b55-9135-c5814367ec25","","584","
                <div class=""stimulus-container"">
                    <img src=""images/causal_sequence/the_performance_causal/the_performance_causal_7.png"" class=""exp-image"">
                    <div class=""question-area"">
                        <p style=""font-size: 20px; font-weight: bold; margin: 0;"">Is there a person in this image?</p>
                    </div>
                </div>","0","main_experiment_trial","7","the_performance_causal","causal_sequence","","","",""
"","","","","","html-keyboard-response","31","115178","0.0-31.0","ACA2417ED42B46A897A9A6911F3C5237","019cef8c-ad5b-7800-8e3a-af41e7f05d86","019cef87-c56d-7b55-9135-c5814367ec25","","null","
                <div class=""stimulus-container"">
                    <img src=""images/causal_sequence/the_performance_causal/the_performance_causal_8.png"" class=""exp-image"">
                    <div class=""question-area""></div> 
                </div>","null","","","","","","","",""
"","","","","","html-button-response","32","115981","0.0-32.0","ACA2417ED42B46A897A9A6911F3C5237","019cef8c-ad5b-7800-8e3a-af41e7f05d86","019cef87-c56d-7b55-9135-c5814367ec25","","802","
                <div class=""stimulus-container"">
                    <img src=""images/causal_sequence/the_performance_causal/the_performance_causal_8.png"" class=""exp-image"">
                    <div class=""question-area"">
                        <p style=""font-size: 20px; font-weight: bold; margin: 0;"">Is there a person in this image?</p>
                    </div>
                </div>","0","main_experiment_trial","8","the_performance_causal","causal_sequence","","","",""
"","","","","","html-keyboard-response","33","120987","0.0-33.0","ACA2417ED42B46A897A9A6911F3C5237","019cef8c-ad5b-7800-8e3a-af41e7f05d86","019cef87-c56d-7b55-9135-c5814367ec25","","null","
                <div class=""stimulus-container"">
                    <img src=""images/causal_sequence/the_performance_causal/the_performance_causal_9.png"" class=""exp-image"">
                    <div class=""question-area""></div> 
                </div>","null","","","","","","","",""
"","","","","","html-button-response","34","123994","0.0-34.0","ACA2417ED42B46A897A9A6911F3C5237","019cef8c-ad5b-7800-8e3a-af41e7f05d86","019cef87-c56d-7b55-9135-c5814367ec25","","null","
                <div class=""stimulus-container"">
                    <img src=""images/causal_sequence/the_performance_causal/the_performance_causal_9.png"" class=""exp-image"">
                    <div class=""question-area"">
                        <p style=""font-size: 20px; font-weight: bold; margin: 0;"">Is there a person in this image?</p>
                    </div>
                </div>","null","main_experiment_trial","9","the_performance_causal","causal_sequence","","","",""
"","","","","","html-keyboard-response","35","129006","0.0-35.0","ACA2417ED42B46A897A9A6911F3C5237","019cef8c-ad5b-7800-8e3a-af41e7f05d86","019cef87-c56d-7b55-9135-c5814367ec25","","null","
                <div class=""stimulus-container"">
                    <img src=""images/causal_sequence/the_performance_causal/the_performance_causal_ten.png"" class=""exp-image"">
                    <div class=""question-area""></div> 
                </div>","null","","","","","","","",""
"","","","","","html-button-response","36","129789","0.0-36.0","ACA2417ED42B46A897A9A6911F3C5237","019cef8c-ad5b-7800-8e3a-af41e7f05d86","019cef87-c56d-7b55-9135-c5814367ec25","","782","
                <div class=""stimulus-container"">
                    <img src=""images/causal_sequence/the_performance_causal/the_performance_causal_ten.png"" class=""exp-image"">
                    <div class=""question-area"">
                        <p style=""font-size: 20px; font-weight: bold; margin: 0;"">Is there a person in this image?</p>
                    </div>
                </div>","0","main_experiment_trial","ten","the_performance_causal","causal_sequence","","","",""
"","","","","","html-keyboard-response","37","130798","0.0-37.0","ACA2417ED42B46A897A9A6911F3C5237","019cef8c-ad5b-7800-8e3a-af41e7f05d86","019cef87-c56d-7b55-9135-c5814367ec25","","null","<div style=""background-color: white; width: 100vw; height: 100vh;""></div>","null","","","","","","","",""
"","","","","","html-keyboard-response","38","135804","0.0-38.0","ACA2417ED42B46A897A9A6911F3C5237","019cef8c-ad5b-7800-8e3a-af41e7f05d86","019cef87-c56d-7b55-9135-c5814367ec25","","null","
                <div class=""stimulus-container"">
                    <img src=""images/schematic_sequence/flight_scheme/flight_scheme_1.png"" class=""exp-image"">
                    <div class=""question-area""></div> 
                </div>","null","","","","","","","",""
"","","","","","html-button-response","39","136606","0.0-39.0","ACA2417ED42B46A897A9A6911F3C5237","019cef8c-ad5b-7800-8e3a-af41e7f05d86","019cef87-c56d-7b55-9135-c5814367ec25","","802","
                <div class=""stimulus-container"">
                    <img src=""images/schematic_sequence/flight_scheme/flight_scheme_1.png"" class=""exp-image"">
                    <div class=""question-area"">
                        <p style=""font-size: 20px; font-weight: bold; margin: 0;"">Is there a person in this image?</p>
                    </div>
                </div>","1","main_experiment_trial","1","flight_scheme","schematic_sequence","","","",""
"","","","","","html-keyboard-response","40","141621","0.0-40.0","ACA2417ED42B46A897A9A6911F3C5237","019cef8c-ad5b-7800-8e3a-af41e7f05d86","019cef87-c56d-7b55-9135-c5814367ec25","","null","
                <div class=""stimulus-container"">
                    <img src=""images/schematic_sequence/flight_scheme/flight_scheme_2.png"" class=""exp-image"">
                    <div class=""question-area""></div> 
                </div>","null","","","","","","","",""
"","","","","","html-button-response","41","142634","0.0-41.0","ACA2417ED42B46A897A9A6911F3C5237","019cef8c-ad5b-7800-8e3a-af41e7f05d86","019cef87-c56d-7b55-9135-c5814367ec25","","1012","
                <div class=""stimulus-container"">
                    <img src=""images/schematic_sequence/flight_scheme/flight_scheme_2.png"" class=""exp-image"">
                    <div class=""question-area"">
                        <p style=""font-size: 20px; font-weight: bold; margin: 0;"">Is there a person in this image?</p>
                    </div>
                </div>","1","main_experiment_trial","2","flight_scheme","schematic_sequence","","","",""
"","","","","","html-keyboard-response","42","147640","0.0-42.0","ACA2417ED42B46A897A9A6911F3C5237","019cef8c-ad5b-7800-8e3a-af41e7f05d86","019cef87-c56d-7b55-9135-c5814367ec25","","null","
                <div class=""stimulus-container"">
                    <img src=""images/schematic_sequence/flight_scheme/flight_scheme_3.png"" class=""exp-image"">
                    <div class=""question-area""></div> 
                </div>","null","","","","","","","",""
"","","","","","html-button-response","43","148432","0.0-43.0","ACA2417ED42B46A897A9A6911F3C5237","019cef8c-ad5b-7800-8e3a-af41e7f05d86","019cef87-c56d-7b55-9135-c5814367ec25","","791","
                <div class=""stimulus-container"">
                    <img src=""images/schematic_sequence/flight_scheme/flight_scheme_3.png"" class=""exp-image"">
                    <div class=""question-area"">
                        <p style=""font-size: 20px; font-weight: bold; margin: 0;"">Is there a person in this image?</p>
                    </div>
                </div>","0","main_experiment_trial","3","flight_scheme","schematic_sequence","","","",""
"","","","","","html-keyboard-response","44","153442","0.0-44.0","ACA2417ED42B46A897A9A6911F3C5237","019cef8c-ad5b-7800-8e3a-af41e7f05d86","019cef87-c56d-7b55-9135-c5814367ec25","","null","
                <div class=""stimulus-container"">
                    <img src=""images/schematic_sequence/flight_scheme/flight_scheme_4.png"" class=""exp-image"">
                    <div class=""question-area""></div> 
                </div>","null","","","","","","","",""
"","","","","","html-button-response","45","154250","0.0-45.0","ACA2417ED42B46A897A9A6911F3C5237","019cef8c-ad5b-7800-8e3a-af41e7f05d86","019cef87-c56d-7b55-9135-c5814367ec25","","809","
                <div class=""stimulus-container"">
                    <img src=""images/schematic_sequence/flight_scheme/flight_scheme_4.png"" class=""exp-image"">
                    <div class=""question-area"">
                        <p style=""font-size: 20px; font-weight: bold; margin: 0;"">Is there a person in this image?</p>
                    </div>
                </div>","0","main_experiment_trial","4","flight_scheme","schematic_sequence","","","",""
"","","","","","html-keyboard-response","46","159259","0.0-46.0","ACA2417ED42B46A897A9A6911F3C5237","019cef8c-ad5b-7800-8e3a-af41e7f05d86","019cef87-c56d-7b55-9135-c5814367ec25","","null","
                <div class=""stimulus-container"">
                    <img src=""images/schematic_sequence/flight_scheme/flight_scheme_5.png"" class=""exp-image"">
                    <div class=""question-area""></div> 
                </div>","null","","","","","","","",""
"","","","","","html-button-response","47","159732","0.0-47.0","ACA2417ED42B46A897A9A6911F3C5237","019cef8c-ad5b-7800-8e3a-af41e7f05d86","019cef87-c56d-7b55-9135-c5814367ec25","","473","
                <div class=""stimulus-container"">
                    <img src=""images/schematic_sequence/flight_scheme/flight_scheme_5.png"" class=""exp-image"">
                    <div class=""question-area"">
                        <p style=""font-size: 20px; font-weight: bold; margin: 0;"">Is there a person in this image?</p>
                    </div>
                </div>","0","main_experiment_trial","5","flight_scheme","schematic_sequence","","","",""
"","","","","","html-keyboard-response","48","164735","0.0-48.0","ACA2417ED42B46A897A9A6911F3C5237","019cef8c-ad5b-7800-8e3a-af41e7f05d86","019cef87-c56d-7b55-9135-c5814367ec25","","null","
                <div class=""stimulus-container"">
                    <img src=""images/schematic_sequence/flight_scheme/flight_scheme_6.png"" class=""exp-image"">
                    <div class=""question-area""></div> 
                </div>","null","","","","","","","",""
"","","","","","html-button-response","49","165365","0.0-49.0","ACA2417ED42B46A897A9A6911F3C5237","019cef8c-ad5b-7800-8e3a-af41e7f05d86","019cef87-c56d-7b55-9135-c5814367ec25","","630","
                <div class=""stimulus-container"">
                    <img src=""images/schematic_sequence/flight_scheme/flight_scheme_6.png"" class=""exp-image"">
                    <div class=""question-area"">
                        <p style=""font-size: 20px; font-weight: bold; margin: 0;"">Is there a person in this image?</p>
                    </div>
                </div>","1","main_experiment_trial","6","flight_scheme","schematic_sequence","","","",""
"","","","","","html-keyboard-response","50","170371","0.0-50.0","ACA2417ED42B46A897A9A6911F3C5237","019cef8c-ad5b-7800-8e3a-af41e7f05d86","019cef87-c56d-7b55-9135-c5814367ec25","","null","
                <div class=""stimulus-container"">
                    <img src=""images/schematic_sequence/flight_scheme/flight_scheme_7.png"" class=""exp-image"">
                    <div class=""question-area""></div> 
                </div>","null","","","","","","","",""
"","","","","","html-button-response","51","170911","0.0-51.0","ACA2417ED42B46A897A9A6911F3C5237","019cef8c-ad5b-7800-8e3a-af41e7f05d86","019cef87-c56d-7b55-9135-c5814367ec25","","538","
                <div class=""stimulus-container"">
                    <img src=""images/schematic_sequence/flight_scheme/flight_scheme_7.png"" class=""exp-image"">
                    <div class=""question-area"">
                        <p style=""font-size: 20px; font-weight: bold; margin: 0;"">Is there a person in this image?</p>
                    </div>
                </div>","1","main_experiment_trial","7","flight_scheme","schematic_sequence","","","",""
"","","","","","html-keyboard-response","52","175912","0.0-52.0","ACA2417ED42B46A897A9A6911F3C5237","019cef8c-ad5b-7800-8e3a-af41e7f05d86","019cef87-c56d-7b55-9135-c5814367ec25","","null","
                <div class=""stimulus-container"">
                    <img src=""images/schematic_sequence/flight_scheme/flight_scheme_8.png"" class=""exp-image"">
                    <div class=""question-area""></div> 
                </div>","null","","","","","","","",""
"","","","","","html-button-response","53","176446","0.0-53.0","ACA2417ED42B46A897A9A6911F3C5237","019cef8c-ad5b-7800-8e3a-af41e7f05d86","019cef87-c56d-7b55-9135-c5814367ec25","","533","
                <div class=""stimulus-container"">
                    <img src=""images/schematic_sequence/flight_scheme/flight_scheme_8.png"" class=""exp-image"">
                    <div class=""question-area"">
                        <p style=""font-size: 20px; font-weight: bold; margin: 0;"">Is there a person in this image?</p>
                    </div>
                </div>","1","main_experiment_trial","8","flight_scheme","schematic_sequence","","","",""
"","","","","","html-keyboard-response","54","181450","0.0-54.0","ACA2417ED42B46A897A9A6911F3C5237","019cef8c-ad5b-7800-8e3a-af41e7f05d86","019cef87-c56d-7b55-9135-c5814367ec25","","null","
                <div class=""stimulus-container"">
                    <img src=""images/schematic_sequence/flight_scheme/flight_scheme_9.png"" class=""exp-image"">
                    <div class=""question-area""></div> 
                </div>","null","","","","","","","",""
"","","","","","html-button-response","55","181934","0.0-55.0","ACA2417ED42B46A897A9A6911F3C5237","019cef8c-ad5b-7800-8e3a-af41e7f05d86","019cef87-c56d-7b55-9135-c5814367ec25","","485","
                <div class=""stimulus-container"">
                    <img src=""images/schematic_sequence/flight_scheme/flight_scheme_9.png"" class=""exp-image"">
                    <div class=""question-area"">
                        <p style=""font-size: 20px; font-weight: bold; margin: 0;"">Is there a person in this image?</p>
                    </div>
                </div>","0","main_experiment_trial","9","flight_scheme","schematic_sequence","","","",""
"","","","","","html-keyboard-response","56","186936","0.0-56.0","ACA2417ED42B46A897A9A6911F3C5237","019cef8c-ad5b-7800-8e3a-af41e7f05d86","019cef87-c56d-7b55-9135-c5814367ec25","","null","
                <div class=""stimulus-container"">
                    <img src=""images/schematic_sequence/flight_scheme/flight_scheme_ten.png"" class=""exp-image"">
                    <div class=""question-area""></div> 
                </div>","null","","","","","","","",""
"","","","","","html-button-response","57","187563","0.0-57.0","ACA2417ED42B46A897A9A6911F3C5237","019cef8c-ad5b-7800-8e3a-af41e7f05d86","019cef87-c56d-7b55-9135-c5814367ec25","","625","
                <div class=""stimulus-container"">
                    <img src=""images/schematic_sequence/flight_scheme/flight_scheme_ten.png"" class=""exp-image"">
                    <div class=""question-area"">
                        <p style=""font-size: 20px; font-weight: bold; margin: 0;"">Is there a person in this image?</p>
                    </div>
                </div>","0","main_experiment_trial","ten","flight_scheme","schematic_sequence","","","",""
"","","","","","html-keyboard-response","58","188570","0.0-58.0","ACA2417ED42B46A897A9A6911F3C5237","019cef8c-ad5b-7800-8e3a-af41e7f05d86","019cef87-c56d-7b55-9135-c5814367ec25","","null","<div style=""background-color: white; width: 100vw; height: 100vh;""></div>","null","","","","","","","",""
"","","","","","html-keyboard-response","59","193571","0.0-59.0","ACA2417ED42B46A897A9A6911F3C5237","019cef8c-ad5b-7800-8e3a-af41e7f05d86","019cef87-c56d-7b55-9135-c5814367ec25","","null","
                <div class=""stimulus-container"">
                    <img src=""images/schematic_sequence/interview_scheme/interview_scheme_1.png"" class=""exp-image"">
                    <div class=""question-area""></div> 
                </div>","null","","","","","","","",""
"","","","","","html-button-response","60","194112","0.0-60.0","ACA2417ED42B46A897A9A6911F3C5237","019cef8c-ad5b-7800-8e3a-af41e7f05d86","019cef87-c56d-7b55-9135-c5814367ec25","","541","
                <div class=""stimulus-container"">
                    <img src=""images/schematic_sequence/interview_scheme/interview_scheme_1.png"" class=""exp-image"">
                    <div class=""question-area"">
                        <p style=""font-size: 20px; font-weight: bold; margin: 0;"">Is there a person in this image?</p>
                    </div>
                </div>","1","main_experiment_trial","1","interview_scheme","schematic_sequence","","","",""
"","","","","","html-keyboard-response","61","199115","0.0-61.0","ACA2417ED42B46A897A9A6911F3C5237","019cef8c-ad5b-7800-8e3a-af41e7f05d86","019cef87-c56d-7b55-9135-c5814367ec25","","null","
                <div class=""stimulus-container"">
                    <img src=""images/schematic_sequence/interview_scheme/interview_scheme_2.png"" class=""exp-image"">
                    <div class=""question-area""></div> 
                </div>","null","","","","","","","",""
"","","","","","html-button-response","62","199535","0.0-62.0","ACA2417ED42B46A897A9A6911F3C5237","019cef8c-ad5b-7800-8e3a-af41e7f05d86","019cef87-c56d-7b55-9135-c5814367ec25","","421","
                <div class=""stimulus-container"">
                    <img src=""images/schematic_sequence/interview_scheme/interview_scheme_2.png"" class=""exp-image"">
                    <div class=""question-area"">
                        <p style=""font-size: 20px; font-weight: bold; margin: 0;"">Is there a person in this image?</p>
                    </div>
                </div>","1","main_experiment_trial","2","interview_scheme","schematic_sequence","","","",""
"","","","","","html-keyboard-response","63","204541","0.0-63.0","ACA2417ED42B46A897A9A6911F3C5237","019cef8c-ad5b-7800-8e3a-af41e7f05d86","019cef87-c56d-7b55-9135-c5814367ec25","","null","
                <div class=""stimulus-container"">
                    <img src=""images/schematic_sequence/interview_scheme/interview_scheme_3.png"" class=""exp-image"">
                    <div class=""question-area""></div> 
                </div>","null","","","","","","","",""
"","","","","","html-button-response","64","205339","0.0-64.0","ACA2417ED42B46A897A9A6911F3C5237","019cef8c-ad5b-7800-8e3a-af41e7f05d86","019cef87-c56d-7b55-9135-c5814367ec25","","796","
                <div class=""stimulus-container"">
                    <img src=""images/schematic_sequence/interview_scheme/interview_scheme_3.png"" class=""exp-image"">
                    <div class=""question-area"">
                        <p style=""font-size: 20px; font-weight: bold; margin: 0;"">Is there a person in this image?</p>
                    </div>
                </div>","1","main_experiment_trial","3","interview_scheme","schematic_sequence","","","",""
"","","","","","html-keyboard-response","65","210353","0.0-65.0","ACA2417ED42B46A897A9A6911F3C5237","019cef8c-ad5b-7800-8e3a-af41e7f05d86","019cef87-c56d-7b55-9135-c5814367ec25","","null","
                <div class=""stimulus-container"">
                    <img src=""images/schematic_sequence/interview_scheme/interview_scheme_4.png"" class=""exp-image"">
                    <div class=""question-area""></div> 
                </div>","null","","","","","","","",""
"","","","","","html-button-response","66","211015","0.0-66.0","ACA2417ED42B46A897A9A6911F3C5237","019cef8c-ad5b-7800-8e3a-af41e7f05d86","019cef87-c56d-7b55-9135-c5814367ec25","","662","
                <div class=""stimulus-container"">
                    <img src=""images/schematic_sequence/interview_scheme/interview_scheme_4.png"" class=""exp-image"">
                    <div class=""question-area"">
                        <p style=""font-size: 20px; font-weight: bold; margin: 0;"">Is there a person in this image?</p>
                    </div>
                </div>","1","main_experiment_trial","4","interview_scheme","schematic_sequence","","","",""
"","","","","","html-keyboard-response","67","216028","0.0-67.0","ACA2417ED42B46A897A9A6911F3C5237","019cef8c-ad5b-7800-8e3a-af41e7f05d86","019cef87-c56d-7b55-9135-c5814367ec25","","null","
                <div class=""stimulus-container"">
                    <img src=""images/schematic_sequence/interview_scheme/interview_scheme_5.png"" class=""exp-image"">
                    <div class=""question-area""></div> 
                </div>","null","","","","","","","",""
"","","","","","html-button-response","68","217564","0.0-68.0","ACA2417ED42B46A897A9A6911F3C5237","019cef8c-ad5b-7800-8e3a-af41e7f05d86","019cef87-c56d-7b55-9135-c5814367ec25","","1536","
                <div class=""stimulus-container"">
                    <img src=""images/schematic_sequence/interview_scheme/interview_scheme_5.png"" class=""exp-image"">
                    <div class=""question-area"">
                        <p style=""font-size: 20px; font-weight: bold; margin: 0;"">Is there a person in this image?</p>
                    </div>
                </div>","0","main_experiment_trial","5","interview_scheme","schematic_sequence","","","",""
"","","","","","html-keyboard-response","69","222568","0.0-69.0","ACA2417ED42B46A897A9A6911F3C5237","019cef8c-ad5b-7800-8e3a-af41e7f05d86","019cef87-c56d-7b55-9135-c5814367ec25","","null","
                <div class=""stimulus-container"">
                    <img src=""images/schematic_sequence/interview_scheme/interview_scheme_6.png"" class=""exp-image"">
                    <div class=""question-area""></div> 
                </div>","null","","","","","","","",""
"","","","","","html-button-response","70","223183","0.0-70.0","ACA2417ED42B46A897A9A6911F3C5237","019cef8c-ad5b-7800-8e3a-af41e7f05d86","019cef87-c56d-7b55-9135-c5814367ec25","","615","
                <div class=""stimulus-container"">
                    <img src=""images/schematic_sequence/interview_scheme/interview_scheme_6.png"" class=""exp-image"">
                    <div class=""question-area"">
                        <p style=""font-size: 20px; font-weight: bold; margin: 0;"">Is there a person in this image?</p>
                    </div>
                </div>","0","main_experiment_trial","6","interview_scheme","schematic_sequence","","","",""
"","","","","","html-keyboard-response","71","228195","0.0-71.0","ACA2417ED42B46A897A9A6911F3C5237","019cef8c-ad5b-7800-8e3a-af41e7f05d86","019cef87-c56d-7b55-9135-c5814367ec25","","null","
                <div class=""stimulus-container"">
                    <img src=""images/schematic_sequence/interview_scheme/interview_scheme_7.png"" class=""exp-image"">
                    <div class=""question-area""></div> 
                </div>","null","","","","","","","",""
"","","","","","html-button-response","72","229640","0.0-72.0","ACA2417ED42B46A897A9A6911F3C5237","019cef8c-ad5b-7800-8e3a-af41e7f05d86","019cef87-c56d-7b55-9135-c5814367ec25","","1444","
                <div class=""stimulus-container"">
                    <img src=""images/schematic_sequence/interview_scheme/interview_scheme_7.png"" class=""exp-image"">
                    <div class=""question-area"">
                        <p style=""font-size: 20px; font-weight: bold; margin: 0;"">Is there a person in this image?</p>
                    </div>
                </div>","0","main_experiment_trial","7","interview_scheme","schematic_sequence","","","",""
"","","","","","html-keyboard-response","73","234641","0.0-73.0","ACA2417ED42B46A897A9A6911F3C5237","019cef8c-ad5b-7800-8e3a-af41e7f05d86","019cef87-c56d-7b55-9135-c5814367ec25","","null","
                <div class=""stimulus-container"">
                    <img src=""images/schematic_sequence/interview_scheme/interview_scheme_8.png"" class=""exp-image"">
                    <div class=""question-area""></div> 
                </div>","null","","","","","","","",""
"","","","","","html-button-response","74","235431","0.0-74.0","ACA2417ED42B46A897A9A6911F3C5237","019cef8c-ad5b-7800-8e3a-af41e7f05d86","019cef87-c56d-7b55-9135-c5814367ec25","","790","
                <div class=""stimulus-container"">
                    <img src=""images/schematic_sequence/interview_scheme/interview_scheme_8.png"" class=""exp-image"">
                    <div class=""question-area"">
                        <p style=""font-size: 20px; font-weight: bold; margin: 0;"">Is there a person in this image?</p>
                    </div>
                </div>","0","main_experiment_trial","8","interview_scheme","schematic_sequence","","","",""
"","","","","","html-keyboard-response","75","240446","0.0-75.0","ACA2417ED42B46A897A9A6911F3C5237","019cef8c-ad5b-7800-8e3a-af41e7f05d86","019cef87-c56d-7b55-9135-c5814367ec25","","null","
                <div class=""stimulus-container"">
                    <img src=""images/schematic_sequence/interview_scheme/interview_scheme_9.png"" class=""exp-image"">
                    <div class=""question-area""></div> 
                </div>","null","","","","","","","",""
"","","","","","html-button-response","76","241205","0.0-76.0","ACA2417ED42B46A897A9A6911F3C5237","019cef8c-ad5b-7800-8e3a-af41e7f05d86","019cef87-c56d-7b55-9135-c5814367ec25","","759","
                <div class=""stimulus-container"">
                    <img src=""images/schematic_sequence/interview_scheme/interview_scheme_9.png"" class=""exp-image"">
                    <div class=""question-area"">
                        <p style=""font-size: 20px; font-weight: bold; margin: 0;"">Is there a person in this image?</p>
                    </div>
                </div>","0","main_experiment_trial","9","interview_scheme","schematic_sequence","","","",""
"","","","","","html-keyboard-response","77","246220","0.0-77.0","ACA2417ED42B46A897A9A6911F3C5237","019cef8c-ad5b-7800-8e3a-af41e7f05d86","019cef87-c56d-7b55-9135-c5814367ec25","","null","
                <div class=""stimulus-container"">
                    <img src=""images/schematic_sequence/interview_scheme/interview_scheme_ten.png"" class=""exp-image"">
                    <div class=""question-area""></div> 
                </div>","null","","","","","","","",""
"","","","","","html-button-response","78","246836","0.0-78.0","ACA2417ED42B46A897A9A6911F3C5237","019cef8c-ad5b-7800-8e3a-af41e7f05d86","019cef87-c56d-7b55-9135-c5814367ec25","","615","
                <div class=""stimulus-container"">
                    <img src=""images/schematic_sequence/interview_scheme/interview_scheme_ten.png"" class=""exp-image"">
                    <div class=""question-area"">
                        <p style=""font-size: 20px; font-weight: bold; margin: 0;"">Is there a person in this image?</p>
                    </div>
                </div>","0","main_experiment_trial","ten","interview_scheme","schematic_sequence","","","",""
"","","","","","html-keyboard-response","79","247840","0.0-79.0","ACA2417ED42B46A897A9A6911F3C5237","019cef8c-ad5b-7800-8e3a-af41e7f05d86","019cef87-c56d-7b55-9135-c5814367ec25","","null","<div style=""background-color: white; width: 100vw; height: 100vh;""></div>","null","","","","","","","",""
"","","","","","html-keyboard-response","80","252847","0.0-80.0","ACA2417ED42B46A897A9A6911F3C5237","019cef8c-ad5b-7800-8e3a-af41e7f05d86","019cef87-c56d-7b55-9135-c5814367ec25","","null","
                <div class=""stimulus-container"">
                    <img src=""images/causal_sequence/package_causal/package_causal_1.png"" class=""exp-image"">
                    <div class=""question-area""></div> 
                </div>","null","","","","","","","",""
"","","","","","html-button-response","81","253597","0.0-81.0","ACA2417ED42B46A897A9A6911F3C5237","019cef8c-ad5b-7800-8e3a-af41e7f05d86","019cef87-c56d-7b55-9135-c5814367ec25","","750","
                <div class=""stimulus-container"">
                    <img src=""images/causal_sequence/package_causal/package_causal_1.png"" class=""exp-image"">
                    <div class=""question-area"">
                        <p style=""font-size: 20px; font-weight: bold; margin: 0;"">Is there a person in this image?</p>
                    </div>
                </div>","0","main_experiment_trial","1","package_causal","causal_sequence","","","",""
"","","","","","html-keyboard-response","82","258605","0.0-82.0","ACA2417ED42B46A897A9A6911F3C5237","019cef8c-ad5b-7800-8e3a-af41e7f05d86","019cef87-c56d-7b55-9135-c5814367ec25","","null","
                <div class=""stimulus-container"">
                    <img src=""images/causal_sequence/package_causal/package_causal_2.png"" class=""exp-image"">
                    <div class=""question-area""></div> 
                </div>","null","","","","","","","",""
"","","","","","html-button-response","83","259120","0.0-83.0","ACA2417ED42B46A897A9A6911F3C5237","019cef8c-ad5b-7800-8e3a-af41e7f05d86","019cef87-c56d-7b55-9135-c5814367ec25","","512","
                <div class=""stimulus-container"">
                    <img src=""images/causal_sequence/package_causal/package_causal_2.png"" class=""exp-image"">
                    <div class=""question-area"">
                        <p style=""font-size: 20px; font-weight: bold; margin: 0;"">Is there a person in this image?</p>
                    </div>
                </div>","0","main_experiment_trial","2","package_causal","causal_sequence","","","",""
"","","","","","html-keyboard-response","84","264135","0.0-84.0","ACA2417ED42B46A897A9A6911F3C5237","019cef8c-ad5b-7800-8e3a-af41e7f05d86","019cef87-c56d-7b55-9135-c5814367ec25","","null","
                <div class=""stimulus-container"">
                    <img src=""images/causal_sequence/package_causal/package_causal_3.png"" class=""exp-image"">
                    <div class=""question-area""></div> 
                </div>","null","","","","","","","",""
"","","","","","html-button-response","85","264764","0.0-85.0","ACA2417ED42B46A897A9A6911F3C5237","019cef8c-ad5b-7800-8e3a-af41e7f05d86","019cef87-c56d-7b55-9135-c5814367ec25","","628","
                <div class=""stimulus-container"">
                    <img src=""images/causal_sequence/package_causal/package_causal_3.png"" class=""exp-image"">
                    <div class=""question-area"">
                        <p style=""font-size: 20px; font-weight: bold; margin: 0;"">Is there a person in this image?</p>
                    </div>
                </div>","0","main_experiment_trial","3","package_causal","causal_sequence","","","",""
"","","","","","html-keyboard-response","86","269776","0.0-86.0","ACA2417ED42B46A897A9A6911F3C5237","019cef8c-ad5b-7800-8e3a-af41e7f05d86","019cef87-c56d-7b55-9135-c5814367ec25","","null","
                <div class=""stimulus-container"">
                    <img src=""images/causal_sequence/package_causal/package_causal_4.png"" class=""exp-image"">
                    <div class=""question-area""></div> 
                </div>","null","","","","","","","",""
"","","","","","html-button-response","87","270543","0.0-87.0","ACA2417ED42B46A897A9A6911F3C5237","019cef8c-ad5b-7800-8e3a-af41e7f05d86","019cef87-c56d-7b55-9135-c5814367ec25","","765","
                <div class=""stimulus-container"">
                    <img src=""images/causal_sequence/package_causal/package_causal_4.png"" class=""exp-image"">
                    <div class=""question-area"">
                        <p style=""font-size: 20px; font-weight: bold; margin: 0;"">Is there a person in this image?</p>
                    </div>
                </div>","1","main_experiment_trial","4","package_causal","causal_sequence","","","",""
"","","","","","html-keyboard-response","88","275554","0.0-88.0","ACA2417ED42B46A897A9A6911F3C5237","019cef8c-ad5b-7800-8e3a-af41e7f05d86","019cef87-c56d-7b55-9135-c5814367ec25","","null","
                <div class=""stimulus-container"">
                    <img src=""images/causal_sequence/package_causal/package_causal_5.png"" class=""exp-image"">
                    <div class=""question-area""></div> 
                </div>","null","","","","","","","",""
"","","","","","html-button-response","89","275984","0.0-89.0","ACA2417ED42B46A897A9A6911F3C5237","019cef8c-ad5b-7800-8e3a-af41e7f05d86","019cef87-c56d-7b55-9135-c5814367ec25","","429","
                <div class=""stimulus-container"">
                    <img src=""images/causal_sequence/package_causal/package_causal_5.png"" class=""exp-image"">
                    <div class=""question-area"">
                        <p style=""font-size: 20px; font-weight: bold; margin: 0;"">Is there a person in this image?</p>
                    </div>
                </div>","0","main_experiment_trial","5","package_causal","causal_sequence","","","",""
"","","","","","html-keyboard-response","90","280989","0.0-90.0","ACA2417ED42B46A897A9A6911F3C5237","019cef8c-ad5b-7800-8e3a-af41e7f05d86","019cef87-c56d-7b55-9135-c5814367ec25","","null","
                <div class=""stimulus-container"">
                    <img src=""images/causal_sequence/package_causal/package_causal_6.png"" class=""exp-image"">
                    <div class=""question-area""></div> 
                </div>","null","","","","","","","",""
"","","","","","html-button-response","91","282129","0.0-91.0","ACA2417ED42B46A897A9A6911F3C5237","019cef8c-ad5b-7800-8e3a-af41e7f05d86","019cef87-c56d-7b55-9135-c5814367ec25","","1139","
                <div class=""stimulus-container"">
                    <img src=""images/causal_sequence/package_causal/package_causal_6.png"" class=""exp-image"">
                    <div class=""question-area"">
                        <p style=""font-size: 20px; font-weight: bold; margin: 0;"">Is there a person in this image?</p>
                    </div>
                </div>","0","main_experiment_trial","6","package_causal","causal_sequence","","","",""
"","","","","","html-keyboard-response","92","287138","0.0-92.0","ACA2417ED42B46A897A9A6911F3C5237","019cef8c-ad5b-7800-8e3a-af41e7f05d86","019cef87-c56d-7b55-9135-c5814367ec25","","null","
                <div class=""stimulus-container"">
                    <img src=""images/causal_sequence/package_causal/package_causal_7.png"" class=""exp-image"">
                    <div class=""question-area""></div> 
                </div>","null","","","","","","","",""
"","","","","","html-button-response","93","287786","0.0-93.0","ACA2417ED42B46A897A9A6911F3C5237","019cef8c-ad5b-7800-8e3a-af41e7f05d86","019cef87-c56d-7b55-9135-c5814367ec25","","648","
                <div class=""stimulus-container"">
                    <img src=""images/causal_sequence/package_causal/package_causal_7.png"" class=""exp-image"">
                    <div class=""question-area"">
                        <p style=""font-size: 20px; font-weight: bold; margin: 0;"">Is there a person in this image?</p>
                    </div>
                </div>","0","main_experiment_trial","7","package_causal","causal_sequence","","","",""
"","","","","","html-keyboard-response","94","292800","0.0-94.0","ACA2417ED42B46A897A9A6911F3C5237","019cef8c-ad5b-7800-8e3a-af41e7f05d86","019cef87-c56d-7b55-9135-c5814367ec25","","null","
                <div class=""stimulus-container"">
                    <img src=""images/causal_sequence/package_causal/package_causal_8.png"" class=""exp-image"">
                    <div class=""question-area""></div> 
                </div>","null","","","","","","","",""
"","","","","","html-button-response","95","293480","0.0-95.0","ACA2417ED42B46A897A9A6911F3C5237","019cef8c-ad5b-7800-8e3a-af41e7f05d86","019cef87-c56d-7b55-9135-c5814367ec25","","679","
                <div class=""stimulus-container"">
                    <img src=""images/causal_sequence/package_causal/package_causal_8.png"" class=""exp-image"">
                    <div class=""question-area"">
                        <p style=""font-size: 20px; font-weight: bold; margin: 0;"">Is there a person in this image?</p>
                    </div>
                </div>","0","main_experiment_trial","8","package_causal","causal_sequence","","","",""
"","","","","","html-keyboard-response","96","298482","0.0-96.0","ACA2417ED42B46A897A9A6911F3C5237","019cef8c-ad5b-7800-8e3a-af41e7f05d86","019cef87-c56d-7b55-9135-c5814367ec25","","null","
                <div class=""stimulus-container"">
                    <img src=""images/causal_sequence/package_causal/package_causal_9.png"" class=""exp-image"">
                    <div class=""question-area""></div> 
                </div>","null","","","","","","","",""
"","","","","","html-button-response","97","299066","0.0-97.0","ACA2417ED42B46A897A9A6911F3C5237","019cef8c-ad5b-7800-8e3a-af41e7f05d86","019cef87-c56d-7b55-9135-c5814367ec25","","584","
                <div class=""stimulus-container"">
                    <img src=""images/causal_sequence/package_causal/package_causal_9.png"" class=""exp-image"">
                    <div class=""question-area"">
                        <p style=""font-size: 20px; font-weight: bold; margin: 0;"">Is there a person in this image?</p>
                    </div>
                </div>","0","main_experiment_trial","9","package_causal","causal_sequence","","","",""
"","","","","","html-keyboard-response","98","304076","0.0-98.0","ACA2417ED42B46A897A9A6911F3C5237","019cef8c-ad5b-7800-8e3a-af41e7f05d86","019cef87-c56d-7b55-9135-c5814367ec25","","null","
                <div class=""stimulus-container"">
                    <img src=""images/causal_sequence/package_causal/package_causal_ten.png"" class=""exp-image"">
                    <div class=""question-area""></div> 
                </div>","null","","","","","","","",""
"","","","","","html-button-response","99","305144","0.0-99.0","ACA2417ED42B46A897A9A6911F3C5237","019cef8c-ad5b-7800-8e3a-af41e7f05d86","019cef87-c56d-7b55-9135-c5814367ec25","","1067","
                <div class=""stimulus-container"">
                    <img src=""images/causal_sequence/package_causal/package_causal_ten.png"" class=""exp-image"">
                    <div class=""question-area"">
                        <p style=""font-size: 20px; font-weight: bold; margin: 0;"">Is there a person in this image?</p>
                    </div>
                </div>","0","main_experiment_trial","ten","package_causal","causal_sequence","","","",""
"","","","","","html-keyboard-response","100","306151","0.0-100.0","ACA2417ED42B46A897A9A6911F3C5237","019cef8c-ad5b-7800-8e3a-af41e7f05d86","019cef87-c56d-7b55-9135-c5814367ec25","","null","<div style=""background-color: white; width: 100vw; height: 100vh;""></div>","null","","","","","","","",""
"","","","","","html-keyboard-response","101","311163","0.0-101.0","ACA2417ED42B46A897A9A6911F3C5237","019cef8c-ad5b-7800-8e3a-af41e7f05d86","019cef87-c56d-7b55-9135-c5814367ec25","","null","
                <div class=""stimulus-container"">
                    <img src=""images/causal_sequence/museum_causal/museum_causal_1.png"" class=""exp-image"">
                    <div class=""question-area""></div> 
                </div>","null","","","","","","","",""
"","","","","","html-button-response","102","311778","0.0-102.0","ACA2417ED42B46A897A9A6911F3C5237","019cef8c-ad5b-7800-8e3a-af41e7f05d86","019cef87-c56d-7b55-9135-c5814367ec25","","616","
                <div class=""stimulus-container"">
                    <img src=""images/causal_sequence/museum_causal/museum_causal_1.png"" class=""exp-image"">
                    <div class=""question-area"">
                        <p style=""font-size: 20px; font-weight: bold; margin: 0;"">Is there a person in this image?</p>
                    </div>
                </div>","0","main_experiment_trial","1","museum_causal","causal_sequence","","","",""
"","","","","","html-keyboard-response","103","316782","0.0-103.0","ACA2417ED42B46A897A9A6911F3C5237","019cef8c-ad5b-7800-8e3a-af41e7f05d86","019cef87-c56d-7b55-9135-c5814367ec25","","null","
                <div class=""stimulus-container"">
                    <img src=""images/causal_sequence/museum_causal/museum_causal_2.png"" class=""exp-image"">
                    <div class=""question-area""></div> 
                </div>","null","","","","","","","",""
"","","","","","html-button-response","104","317472","0.0-104.0","ACA2417ED42B46A897A9A6911F3C5237","019cef8c-ad5b-7800-8e3a-af41e7f05d86","019cef87-c56d-7b55-9135-c5814367ec25","","691","
                <div class=""stimulus-container"">
                    <img src=""images/causal_sequence/museum_causal/museum_causal_2.png"" class=""exp-image"">
                    <div class=""question-area"">
                        <p style=""font-size: 20px; font-weight: bold; margin: 0;"">Is there a person in this image?</p>
                    </div>
                </div>","1","main_experiment_trial","2","museum_causal","causal_sequence","","","",""
"","","","","","html-keyboard-response","105","322480","0.0-105.0","ACA2417ED42B46A897A9A6911F3C5237","019cef8c-ad5b-7800-8e3a-af41e7f05d86","019cef87-c56d-7b55-9135-c5814367ec25","","null","
                <div class=""stimulus-container"">
                    <img src=""images/causal_sequence/museum_causal/museum_causal_3.png"" class=""exp-image"">
                    <div class=""question-area""></div> 
                </div>","null","","","","","","","",""
"","","","","","html-button-response","106","322856","0.0-106.0","ACA2417ED42B46A897A9A6911F3C5237","019cef8c-ad5b-7800-8e3a-af41e7f05d86","019cef87-c56d-7b55-9135-c5814367ec25","","375","
                <div class=""stimulus-container"">
                    <img src=""images/causal_sequence/museum_causal/museum_causal_3.png"" class=""exp-image"">
                    <div class=""question-area"">
                        <p style=""font-size: 20px; font-weight: bold; margin: 0;"">Is there a person in this image?</p>
                    </div>
                </div>","0","main_experiment_trial","3","museum_causal","causal_sequence","","","",""
"","","","","","html-keyboard-response","107","327864","0.0-107.0","ACA2417ED42B46A897A9A6911F3C5237","019cef8c-ad5b-7800-8e3a-af41e7f05d86","019cef87-c56d-7b55-9135-c5814367ec25","","null","
                <div class=""stimulus-container"">
                    <img src=""images/causal_sequence/museum_causal/museum_causal_4.png"" class=""exp-image"">
                    <div class=""question-area""></div> 
                </div>","null","","","","","","","",""
"","","","","","html-button-response","108","328656","0.0-108.0","ACA2417ED42B46A897A9A6911F3C5237","019cef8c-ad5b-7800-8e3a-af41e7f05d86","019cef87-c56d-7b55-9135-c5814367ec25","","791","
                <div class=""stimulus-container"">
                    <img src=""images/causal_sequence/museum_causal/museum_causal_4.png"" class=""exp-image"">
                    <div class=""question-area"">
                        <p style=""font-size: 20px; font-weight: bold; margin: 0;"">Is there a person in this image?</p>
                    </div>
                </div>","1","main_experiment_trial","4","museum_causal","causal_sequence","","","",""
"","","","","","html-keyboard-response","109","333661","0.0-109.0","ACA2417ED42B46A897A9A6911F3C5237","019cef8c-ad5b-7800-8e3a-af41e7f05d86","019cef87-c56d-7b55-9135-c5814367ec25","","null","
                <div class=""stimulus-container"">
                    <img src=""images/causal_sequence/museum_causal/museum_causal_5.png"" class=""exp-image"">
                    <div class=""question-area""></div> 
                </div>","null","","","","","","","",""
"","","","","","html-button-response","110","334448","0.0-110.0","ACA2417ED42B46A897A9A6911F3C5237","019cef8c-ad5b-7800-8e3a-af41e7f05d86","019cef87-c56d-7b55-9135-c5814367ec25","","785","
                <div class=""stimulus-container"">
                    <img src=""images/causal_sequence/museum_causal/museum_causal_5.png"" class=""exp-image"">
                    <div class=""question-area"">
                        <p style=""font-size: 20px; font-weight: bold; margin: 0;"">Is there a person in this image?</p>
                    </div>
                </div>","0","main_experiment_trial","5","museum_causal","causal_sequence","","","",""
"","","","","","html-keyboard-response","111","339449","0.0-111.0","ACA2417ED42B46A897A9A6911F3C5237","019cef8c-ad5b-7800-8e3a-af41e7f05d86","019cef87-c56d-7b55-9135-c5814367ec25","","null","
                <div class=""stimulus-container"">
                    <img src=""images/causal_sequence/museum_causal/museum_causal_6.png"" class=""exp-image"">
                    <div class=""question-area""></div> 
                </div>","null","","","","","","","",""
"","","","","","html-button-response","112","339915","0.0-112.0","ACA2417ED42B46A897A9A6911F3C5237","019cef8c-ad5b-7800-8e3a-af41e7f05d86","019cef87-c56d-7b55-9135-c5814367ec25","","465","
                <div class=""stimulus-container"">
                    <img src=""images/causal_sequence/museum_causal/museum_causal_6.png"" class=""exp-image"">
                    <div class=""question-area"">
                        <p style=""font-size: 20px; font-weight: bold; margin: 0;"">Is there a person in this image?</p>
                    </div>
                </div>","0","main_experiment_trial","6","museum_causal","causal_sequence","","","",""
"","","","","","html-keyboard-response","113","344923","0.0-113.0","ACA2417ED42B46A897A9A6911F3C5237","019cef8c-ad5b-7800-8e3a-af41e7f05d86","019cef87-c56d-7b55-9135-c5814367ec25","","null","
                <div class=""stimulus-container"">
                    <img src=""images/causal_sequence/museum_causal/museum_causal_7.png"" class=""exp-image"">
                    <div class=""question-area""></div> 
                </div>","null","","","","","","","",""
"","","","","","html-button-response","114","345277","0.0-114.0","ACA2417ED42B46A897A9A6911F3C5237","019cef8c-ad5b-7800-8e3a-af41e7f05d86","019cef87-c56d-7b55-9135-c5814367ec25","","354","
                <div class=""stimulus-container"">
                    <img src=""images/causal_sequence/museum_causal/museum_causal_7.png"" class=""exp-image"">
                    <div class=""question-area"">
                        <p style=""font-size: 20px; font-weight: bold; margin: 0;"">Is there a person in this image?</p>
                    </div>
                </div>","1","main_experiment_trial","7","museum_causal","causal_sequence","","","",""
"","","","","","html-keyboard-response","115","350287","0.0-115.0","ACA2417ED42B46A897A9A6911F3C5237","019cef8c-ad5b-7800-8e3a-af41e7f05d86","019cef87-c56d-7b55-9135-c5814367ec25","","null","
                <div class=""stimulus-container"">
                    <img src=""images/causal_sequence/museum_causal/museum_causal_8.png"" class=""exp-image"">
                    <div class=""question-area""></div> 
                </div>","null","","","","","","","",""
"","","","","","html-button-response","116","350926","0.0-116.0","ACA2417ED42B46A897A9A6911F3C5237","019cef8c-ad5b-7800-8e3a-af41e7f05d86","019cef87-c56d-7b55-9135-c5814367ec25","","638","
                <div class=""stimulus-container"">
                    <img src=""images/causal_sequence/museum_causal/museum_causal_8.png"" class=""exp-image"">
                    <div class=""question-area"">
                        <p style=""font-size: 20px; font-weight: bold; margin: 0;"">Is there a person in this image?</p>
                    </div>
                </div>","0","main_experiment_trial","8","museum_causal","causal_sequence","","","",""
"","","","","","html-keyboard-response","117","355928","0.0-117.0","ACA2417ED42B46A897A9A6911F3C5237","019cef8c-ad5b-7800-8e3a-af41e7f05d86","019cef87-c56d-7b55-9135-c5814367ec25","","null","
                <div class=""stimulus-container"">
                    <img src=""images/causal_sequence/museum_causal/museum_causal_9.png"" class=""exp-image"">
                    <div class=""question-area""></div> 
                </div>","null","","","","","","","",""
"","","","","","html-button-response","118","356513","0.0-118.0","ACA2417ED42B46A897A9A6911F3C5237","019cef8c-ad5b-7800-8e3a-af41e7f05d86","019cef87-c56d-7b55-9135-c5814367ec25","","584","
                <div class=""stimulus-container"">
                    <img src=""images/causal_sequence/museum_causal/museum_causal_9.png"" class=""exp-image"">
                    <div class=""question-area"">
                        <p style=""font-size: 20px; font-weight: bold; margin: 0;"">Is there a person in this image?</p>
                    </div>
                </div>","1","main_experiment_trial","9","museum_causal","causal_sequence","","","",""
"","","","","","html-keyboard-response","119","361526","0.0-119.0","ACA2417ED42B46A897A9A6911F3C5237","019cef8c-ad5b-7800-8e3a-af41e7f05d86","019cef87-c56d-7b55-9135-c5814367ec25","","null","
                <div class=""stimulus-container"">
                    <img src=""images/causal_sequence/museum_causal/museum_causal_ten.png"" class=""exp-image"">
                    <div class=""question-area""></div> 
                </div>","null","","","","","","","",""
"","","","","","html-button-response","120","362190","0.0-120.0","ACA2417ED42B46A897A9A6911F3C5237","019cef8c-ad5b-7800-8e3a-af41e7f05d86","019cef87-c56d-7b55-9135-c5814367ec25","","663","
                <div class=""stimulus-container"">
                    <img src=""images/causal_sequence/museum_causal/museum_causal_ten.png"" class=""exp-image"">
                    <div class=""question-area"">
                        <p style=""font-size: 20px; font-weight: bold; margin: 0;"">Is there a person in this image?</p>
                    </div>
                </div>","0","main_experiment_trial","ten","museum_causal","causal_sequence","","","",""
"","","","","","html-keyboard-response","121","363198","0.0-121.0","ACA2417ED42B46A897A9A6911F3C5237","019cef8c-ad5b-7800-8e3a-af41e7f05d86","019cef87-c56d-7b55-9135-c5814367ec25","","null","<div style=""background-color: white; width: 100vw; height: 100vh;""></div>","null","","","","","","","",""
"","","","","","html-keyboard-response","122","368199","0.0-122.0","ACA2417ED42B46A897A9A6911F3C5237","019cef8c-ad5b-7800-8e3a-af41e7f05d86","019cef87-c56d-7b55-9135-c5814367ec25","","null","
                <div class=""stimulus-container"">
                    <img src=""images/causal_sequence/saving_a_cat_causal/saving_a_cat_causal_1.png"" class=""exp-image"">
                    <div class=""question-area""></div> 
                </div>","null","","","","","","","",""
"","","","","","html-button-response","123","368598","0.0-123.0","ACA2417ED42B46A897A9A6911F3C5237","019cef8c-ad5b-7800-8e3a-af41e7f05d86","019cef87-c56d-7b55-9135-c5814367ec25","","397","
                <div class=""stimulus-container"">
                    <img src=""images/causal_sequence/saving_a_cat_causal/saving_a_cat_causal_1.png"" class=""exp-image"">
                    <div class=""question-area"">
                        <p style=""font-size: 20px; font-weight: bold; margin: 0;"">Is there a person in this image?</p>
                    </div>
                </div>","0","main_experiment_trial","1","saving_a_cat_causal","causal_sequence","","","",""
"","","","","","html-keyboard-response","124","373611","0.0-124.0","ACA2417ED42B46A897A9A6911F3C5237","019cef8c-ad5b-7800-8e3a-af41e7f05d86","019cef87-c56d-7b55-9135-c5814367ec25","","null","
                <div class=""stimulus-container"">
                    <img src=""images/causal_sequence/saving_a_cat_causal/saving_a_cat_causal_2.png"" class=""exp-image"">
                    <div class=""question-area""></div> 
                </div>","null","","","","","","","",""
"","","","","","html-button-response","125","374462","0.0-125.0","ACA2417ED42B46A897A9A6911F3C5237","019cef8c-ad5b-7800-8e3a-af41e7f05d86","019cef87-c56d-7b55-9135-c5814367ec25","","849","
                <div class=""stimulus-container"">
                    <img src=""images/causal_sequence/saving_a_cat_causal/saving_a_cat_causal_2.png"" class=""exp-image"">
                    <div class=""question-area"">
                        <p style=""font-size: 20px; font-weight: bold; margin: 0;"">Is there a person in this image?</p>
                    </div>
                </div>","1","main_experiment_trial","2","saving_a_cat_causal","causal_sequence","","","",""
"","","","","","html-keyboard-response","126","379477","0.0-126.0","ACA2417ED42B46A897A9A6911F3C5237","019cef8c-ad5b-7800-8e3a-af41e7f05d86","019cef87-c56d-7b55-9135-c5814367ec25","","null","
                <div class=""stimulus-container"">
                    <img src=""images/causal_sequence/saving_a_cat_causal/saving_a_cat_causal_3.png"" class=""exp-image"">
                    <div class=""question-area""></div> 
                </div>","null","","","","","","","",""
"","","","","","html-button-response","127","380447","0.0-127.0","ACA2417ED42B46A897A9A6911F3C5237","019cef8c-ad5b-7800-8e3a-af41e7f05d86","019cef87-c56d-7b55-9135-c5814367ec25","","970","
                <div class=""stimulus-container"">
                    <img src=""images/causal_sequence/saving_a_cat_causal/saving_a_cat_causal_3.png"" class=""exp-image"">
                    <div class=""question-area"">
                        <p style=""font-size: 20px; font-weight: bold; margin: 0;"">Is there a person in this image?</p>
                    </div>
                </div>","1","main_experiment_trial","3","saving_a_cat_causal","causal_sequence","","","",""
"","","","","","html-keyboard-response","128","385451","0.0-128.0","ACA2417ED42B46A897A9A6911F3C5237","019cef8c-ad5b-7800-8e3a-af41e7f05d86","019cef87-c56d-7b55-9135-c5814367ec25","","null","
                <div class=""stimulus-container"">
                    <img src=""images/causal_sequence/saving_a_cat_causal/saving_a_cat_causal_4.png"" class=""exp-image"">
                    <div class=""question-area""></div> 
                </div>","null","","","","","","","",""
"","","","","","html-button-response","129","386538","0.0-129.0","ACA2417ED42B46A897A9A6911F3C5237","019cef8c-ad5b-7800-8e3a-af41e7f05d86","019cef87-c56d-7b55-9135-c5814367ec25","","1086","
                <div class=""stimulus-container"">
                    <img src=""images/causal_sequence/saving_a_cat_causal/saving_a_cat_causal_4.png"" class=""exp-image"">
                    <div class=""question-area"">
                        <p style=""font-size: 20px; font-weight: bold; margin: 0;"">Is there a person in this image?</p>
                    </div>
                </div>","0","main_experiment_trial","4","saving_a_cat_causal","causal_sequence","","","",""
"","","","","","html-keyboard-response","130","391551","0.0-130.0","ACA2417ED42B46A897A9A6911F3C5237","019cef8c-ad5b-7800-8e3a-af41e7f05d86","019cef87-c56d-7b55-9135-c5814367ec25","","null","
                <div class=""stimulus-container"">
                    <img src=""images/causal_sequence/saving_a_cat_causal/saving_a_cat_causal_5.png"" class=""exp-image"">
                    <div class=""question-area""></div> 
                </div>","null","","","","","","","",""
"","","","","","html-button-response","131","392453","0.0-131.0","ACA2417ED42B46A897A9A6911F3C5237","019cef8c-ad5b-7800-8e3a-af41e7f05d86","019cef87-c56d-7b55-9135-c5814367ec25","","902","
                <div class=""stimulus-container"">
                    <img src=""images/causal_sequence/saving_a_cat_causal/saving_a_cat_causal_5.png"" class=""exp-image"">
                    <div class=""question-area"">
                        <p style=""font-size: 20px; font-weight: bold; margin: 0;"">Is there a person in this image?</p>
                    </div>
                </div>","0","main_experiment_trial","5","saving_a_cat_causal","causal_sequence","","","",""
"","","","","","html-keyboard-response","132","397457","0.0-132.0","ACA2417ED42B46A897A9A6911F3C5237","019cef8c-ad5b-7800-8e3a-af41e7f05d86","019cef87-c56d-7b55-9135-c5814367ec25","","null","
                <div class=""stimulus-container"">
                    <img src=""images/causal_sequence/saving_a_cat_causal/saving_a_cat_causal_6.png"" class=""exp-image"">
                    <div class=""question-area""></div> 
                </div>","null","","","","","","","",""
"","","","","","html-button-response","133","400066","0.0-133.0","ACA2417ED42B46A897A9A6911F3C5237","019cef8c-ad5b-7800-8e3a-af41e7f05d86","019cef87-c56d-7b55-9135-c5814367ec25","","2608","
                <div class=""stimulus-container"">
                    <img src=""images/causal_sequence/saving_a_cat_causal/saving_a_cat_causal_6.png"" class=""exp-image"">
                    <div class=""question-area"">
                        <p style=""font-size: 20px; font-weight: bold; margin: 0;"">Is there a person in this image?</p>
                    </div>
                </div>","0","main_experiment_trial","6","saving_a_cat_causal","causal_sequence","","","",""
"","","","","","html-keyboard-response","134","405067","0.0-134.0","ACA2417ED42B46A897A9A6911F3C5237","019cef8c-ad5b-7800-8e3a-af41e7f05d86","019cef87-c56d-7b55-9135-c5814367ec25","","null","
                <div class=""stimulus-container"">
                    <img src=""images/causal_sequence/saving_a_cat_causal/saving_a_cat_causal_7.png"" class=""exp-image"">
                    <div class=""question-area""></div> 
                </div>","null","","","","","","","",""
"","","","","","html-button-response","135","407568","0.0-135.0","ACA2417ED42B46A897A9A6911F3C5237","019cef8c-ad5b-7800-8e3a-af41e7f05d86","019cef87-c56d-7b55-9135-c5814367ec25","","2498","
                <div class=""stimulus-container"">
                    <img src=""images/causal_sequence/saving_a_cat_causal/saving_a_cat_causal_7.png"" class=""exp-image"">
                    <div class=""question-area"">
                        <p style=""font-size: 20px; font-weight: bold; margin: 0;"">Is there a person in this image?</p>
                    </div>
                </div>","0","main_experiment_trial","7","saving_a_cat_causal","causal_sequence","","","",""
"","","","","","html-keyboard-response","136","412580","0.0-136.0","ACA2417ED42B46A897A9A6911F3C5237","019cef8c-ad5b-7800-8e3a-af41e7f05d86","019cef87-c56d-7b55-9135-c5814367ec25","","null","
                <div class=""stimulus-container"">
                    <img src=""images/causal_sequence/saving_a_cat_causal/saving_a_cat_causal_8.png"" class=""exp-image"">
                    <div class=""question-area""></div> 
                </div>","null","","","","","","","",""
"","","","","","html-button-response","137","413539","0.0-137.0","ACA2417ED42B46A897A9A6911F3C5237","019cef8c-ad5b-7800-8e3a-af41e7f05d86","019cef87-c56d-7b55-9135-c5814367ec25","","956","
                <div class=""stimulus-container"">
                    <img src=""images/causal_sequence/saving_a_cat_causal/saving_a_cat_causal_8.png"" class=""exp-image"">
                    <div class=""question-area"">
                        <p style=""font-size: 20px; font-weight: bold; margin: 0;"">Is there a person in this image?</p>
                    </div>
                </div>","0","main_experiment_trial","8","saving_a_cat_causal","causal_sequence","","","",""
"","","","","","html-keyboard-response","138","418548","0.0-138.0","ACA2417ED42B46A897A9A6911F3C5237","019cef8c-ad5b-7800-8e3a-af41e7f05d86","019cef87-c56d-7b55-9135-c5814367ec25","","null","
                <div class=""stimulus-container"">
                    <img src=""images/causal_sequence/saving_a_cat_causal/saving_a_cat_causal_9.png"" class=""exp-image"">
                    <div class=""question-area""></div> 
                </div>","null","","","","","","","",""
"","","","","","html-button-response","139","419395","0.0-139.0","ACA2417ED42B46A897A9A6911F3C5237","019cef8c-ad5b-7800-8e3a-af41e7f05d86","019cef87-c56d-7b55-9135-c5814367ec25","","847","
                <div class=""stimulus-container"">
                    <img src=""images/causal_sequence/saving_a_cat_causal/saving_a_cat_causal_9.png"" class=""exp-image"">
                    <div class=""question-area"">
                        <p style=""font-size: 20px; font-weight: bold; margin: 0;"">Is there a person in this image?</p>
                    </div>
                </div>","0","main_experiment_trial","9","saving_a_cat_causal","causal_sequence","","","",""
"","","","","","html-keyboard-response","140","424404","0.0-140.0","ACA2417ED42B46A897A9A6911F3C5237","019cef8c-ad5b-7800-8e3a-af41e7f05d86","019cef87-c56d-7b55-9135-c5814367ec25","","null","
                <div class=""stimulus-container"">
                    <img src=""images/causal_sequence/saving_a_cat_causal/saving_a_cat_causal_ten.png"" class=""exp-image"">
                    <div class=""question-area""></div> 
                </div>","null","","","","","","","",""
"","","","","","html-button-response","141","425132","0.0-141.0","ACA2417ED42B46A897A9A6911F3C5237","019cef8c-ad5b-7800-8e3a-af41e7f05d86","019cef87-c56d-7b55-9135-c5814367ec25","","727","
                <div class=""stimulus-container"">
                    <img src=""images/causal_sequence/saving_a_cat_causal/saving_a_cat_causal_ten.png"" class=""exp-image"">
                    <div class=""question-area"">
                        <p style=""font-size: 20px; font-weight: bold; margin: 0;"">Is there a person in this image?</p>
                    </div>
                </div>","0","main_experiment_trial","ten","saving_a_cat_causal","causal_sequence","","","",""
"","","","","","html-keyboard-response","142","426133","0.0-142.0","ACA2417ED42B46A897A9A6911F3C5237","019cef8c-ad5b-7800-8e3a-af41e7f05d86","019cef87-c56d-7b55-9135-c5814367ec25","","null","<div style=""background-color: white; width: 100vw; height: 100vh;""></div>","null","","","","","","","",""
"","","","","","html-keyboard-response","143","431136","0.0-143.0","ACA2417ED42B46A897A9A6911F3C5237","019cef8c-ad5b-7800-8e3a-af41e7f05d86","019cef87-c56d-7b55-9135-c5814367ec25","","null","
                <div class=""stimulus-container"">
                    <img src=""images/causal_sequence/dog_causal/dog_causal_1.png"" class=""exp-image"">
                    <div class=""question-area""></div> 
                </div>","null","","","","","","","",""
"","","","","","html-button-response","144","431547","0.0-144.0","ACA2417ED42B46A897A9A6911F3C5237","019cef8c-ad5b-7800-8e3a-af41e7f05d86","019cef87-c56d-7b55-9135-c5814367ec25","","410","
                <div class=""stimulus-container"">
                    <img src=""images/causal_sequence/dog_causal/dog_causal_1.png"" class=""exp-image"">
                    <div class=""question-area"">
                        <p style=""font-size: 20px; font-weight: bold; margin: 0;"">Is there a person in this image?</p>
                    </div>
                </div>","0","main_experiment_trial","1","dog_causal","causal_sequence","","","",""
"","","","","","html-keyboard-response","145","436557","0.0-145.0","ACA2417ED42B46A897A9A6911F3C5237","019cef8c-ad5b-7800-8e3a-af41e7f05d86","019cef87-c56d-7b55-9135-c5814367ec25","","null","
                <div class=""stimulus-container"">
                    <img src=""images/causal_sequence/dog_causal/dog_causal_2.png"" class=""exp-image"">
                    <div class=""question-area""></div> 
                </div>","null","","","","","","","",""
"","","","","","html-button-response","146","438822","0.0-146.0","ACA2417ED42B46A897A9A6911F3C5237","019cef8c-ad5b-7800-8e3a-af41e7f05d86","019cef87-c56d-7b55-9135-c5814367ec25","","2266","
                <div class=""stimulus-container"">
                    <img src=""images/causal_sequence/dog_causal/dog_causal_2.png"" class=""exp-image"">
                    <div class=""question-area"">
                        <p style=""font-size: 20px; font-weight: bold; margin: 0;"">Is there a person in this image?</p>
                    </div>
                </div>","0","main_experiment_trial","2","dog_causal","causal_sequence","","","",""
"","","","","","html-keyboard-response","147","443826","0.0-147.0","ACA2417ED42B46A897A9A6911F3C5237","019cef8c-ad5b-7800-8e3a-af41e7f05d86","019cef87-c56d-7b55-9135-c5814367ec25","","null","
                <div class=""stimulus-container"">
                    <img src=""images/causal_sequence/dog_causal/dog_causal_3.png"" class=""exp-image"">
                    <div class=""question-area""></div> 
                </div>","null","","","","","","","",""
"","","","","","html-button-response","148","444884","0.0-148.0","ACA2417ED42B46A897A9A6911F3C5237","019cef8c-ad5b-7800-8e3a-af41e7f05d86","019cef87-c56d-7b55-9135-c5814367ec25","","1058","
                <div class=""stimulus-container"">
                    <img src=""images/causal_sequence/dog_causal/dog_causal_3.png"" class=""exp-image"">
                    <div class=""question-area"">
                        <p style=""font-size: 20px; font-weight: bold; margin: 0;"">Is there a person in this image?</p>
                    </div>
                </div>","0","main_experiment_trial","3","dog_causal","causal_sequence","","","",""
"","","","","","html-keyboard-response","149","449899","0.0-149.0","ACA2417ED42B46A897A9A6911F3C5237","019cef8c-ad5b-7800-8e3a-af41e7f05d86","019cef87-c56d-7b55-9135-c5814367ec25","","null","
                <div class=""stimulus-container"">
                    <img src=""images/causal_sequence/dog_causal/dog_causal_4.png"" class=""exp-image"">
                    <div class=""question-area""></div> 
                </div>","null","","","","","","","",""
"","","","","","html-button-response","150","451757","0.0-150.0","ACA2417ED42B46A897A9A6911F3C5237","019cef8c-ad5b-7800-8e3a-af41e7f05d86","019cef87-c56d-7b55-9135-c5814367ec25","","1858","
                <div class=""stimulus-container"">
                    <img src=""images/causal_sequence/dog_causal/dog_causal_4.png"" class=""exp-image"">
                    <div class=""question-area"">
                        <p style=""font-size: 20px; font-weight: bold; margin: 0;"">Is there a person in this image?</p>
                    </div>
                </div>","0","main_experiment_trial","4","dog_causal","causal_sequence","","","",""
"","","","","","html-keyboard-response","151","456764","0.0-151.0","ACA2417ED42B46A897A9A6911F3C5237","019cef8c-ad5b-7800-8e3a-af41e7f05d86","019cef87-c56d-7b55-9135-c5814367ec25","","null","
                <div class=""stimulus-container"">
                    <img src=""images/causal_sequence/dog_causal/dog_causal_5.png"" class=""exp-image"">
                    <div class=""question-area""></div> 
                </div>","null","","","","","","","",""
"","","","","","html-button-response","152","457922","0.0-152.0","ACA2417ED42B46A897A9A6911F3C5237","019cef8c-ad5b-7800-8e3a-af41e7f05d86","019cef87-c56d-7b55-9135-c5814367ec25","","1158","
                <div class=""stimulus-container"">
                    <img src=""images/causal_sequence/dog_causal/dog_causal_5.png"" class=""exp-image"">
                    <div class=""question-area"">
                        <p style=""font-size: 20px; font-weight: bold; margin: 0;"">Is there a person in this image?</p>
                    </div>
                </div>","0","main_experiment_trial","5","dog_causal","causal_sequence","","","",""
"","","","","","html-keyboard-response","153","462927","0.0-153.0","ACA2417ED42B46A897A9A6911F3C5237","019cef8c-ad5b-7800-8e3a-af41e7f05d86","019cef87-c56d-7b55-9135-c5814367ec25","","null","
                <div class=""stimulus-container"">
                    <img src=""images/causal_sequence/dog_causal/dog_causal_6.png"" class=""exp-image"">
                    <div class=""question-area""></div> 
                </div>","null","","","","","","","",""
"","","","","","html-button-response","154","464596","0.0-154.0","ACA2417ED42B46A897A9A6911F3C5237","019cef8c-ad5b-7800-8e3a-af41e7f05d86","019cef87-c56d-7b55-9135-c5814367ec25","","1667","
                <div class=""stimulus-container"">
                    <img src=""images/causal_sequence/dog_causal/dog_causal_6.png"" class=""exp-image"">
                    <div class=""question-area"">
                        <p style=""font-size: 20px; font-weight: bold; margin: 0;"">Is there a person in this image?</p>
                    </div>
                </div>","0","main_experiment_trial","6","dog_causal","causal_sequence","","","",""
"","","","","","html-keyboard-response","155","469603","0.0-155.0","ACA2417ED42B46A897A9A6911F3C5237","019cef8c-ad5b-7800-8e3a-af41e7f05d86","019cef87-c56d-7b55-9135-c5814367ec25","","null","
                <div class=""stimulus-container"">
                    <img src=""images/causal_sequence/dog_causal/dog_causal_7.png"" class=""exp-image"">
                    <div class=""question-area""></div> 
                </div>","null","","","","","","","",""
"","","","","","html-button-response","156","470568","0.0-156.0","ACA2417ED42B46A897A9A6911F3C5237","019cef8c-ad5b-7800-8e3a-af41e7f05d86","019cef87-c56d-7b55-9135-c5814367ec25","","964","
                <div class=""stimulus-container"">
                    <img src=""images/causal_sequence/dog_causal/dog_causal_7.png"" class=""exp-image"">
                    <div class=""question-area"">
                        <p style=""font-size: 20px; font-weight: bold; margin: 0;"">Is there a person in this image?</p>
                    </div>
                </div>","0","main_experiment_trial","7","dog_causal","causal_sequence","","","",""
"","","","","","html-keyboard-response","157","475571","0.0-157.0","ACA2417ED42B46A897A9A6911F3C5237","019cef8c-ad5b-7800-8e3a-af41e7f05d86","019cef87-c56d-7b55-9135-c5814367ec25","","null","
                <div class=""stimulus-container"">
                    <img src=""images/causal_sequence/dog_causal/dog_causal_8.png"" class=""exp-image"">
                    <div class=""question-area""></div> 
                </div>","null","","","","","","","",""
"","","","","","html-button-response","158","476301","0.0-158.0","ACA2417ED42B46A897A9A6911F3C5237","019cef8c-ad5b-7800-8e3a-af41e7f05d86","019cef87-c56d-7b55-9135-c5814367ec25","","728","
                <div class=""stimulus-container"">
                    <img src=""images/causal_sequence/dog_causal/dog_causal_8.png"" class=""exp-image"">
                    <div class=""question-area"">
                        <p style=""font-size: 20px; font-weight: bold; margin: 0;"">Is there a person in this image?</p>
                    </div>
                </div>","0","main_experiment_trial","8","dog_causal","causal_sequence","","","",""
"","","","","","html-keyboard-response","159","481305","0.0-159.0","ACA2417ED42B46A897A9A6911F3C5237","019cef8c-ad5b-7800-8e3a-af41e7f05d86","019cef87-c56d-7b55-9135-c5814367ec25","","null","
                <div class=""stimulus-container"">
                    <img src=""images/causal_sequence/dog_causal/dog_causal_9.png"" class=""exp-image"">
                    <div class=""question-area""></div> 
                </div>","null","","","","","","","",""
"","","","","","html-button-response","160","482304","0.0-160.0","ACA2417ED42B46A897A9A6911F3C5237","019cef8c-ad5b-7800-8e3a-af41e7f05d86","019cef87-c56d-7b55-9135-c5814367ec25","","998","
                <div class=""stimulus-container"">
                    <img src=""images/causal_sequence/dog_causal/dog_causal_9.png"" class=""exp-image"">
                    <div class=""question-area"">
                        <p style=""font-size: 20px; font-weight: bold; margin: 0;"">Is there a person in this image?</p>
                    </div>
                </div>","0","main_experiment_trial","9","dog_causal","causal_sequence","","","",""
"","","","","","html-keyboard-response","161","487305","0.0-161.0","ACA2417ED42B46A897A9A6911F3C5237","019cef8c-ad5b-7800-8e3a-af41e7f05d86","019cef87-c56d-7b55-9135-c5814367ec25","","null","
                <div class=""stimulus-container"">
                    <img src=""images/causal_sequence/dog_causal/dog_causal_ten.png"" class=""exp-image"">
                    <div class=""question-area""></div> 
                </div>","null","","","","","","","",""
"","","","","","html-button-response","162","488627","0.0-162.0","ACA2417ED42B46A897A9A6911F3C5237","019cef8c-ad5b-7800-8e3a-af41e7f05d86","019cef87-c56d-7b55-9135-c5814367ec25","","1322","
                <div class=""stimulus-container"">
                    <img src=""images/causal_sequence/dog_causal/dog_causal_ten.png"" class=""exp-image"">
                    <div class=""question-area"">
                        <p style=""font-size: 20px; font-weight: bold; margin: 0;"">Is there a person in this image?</p>
                    </div>
                </div>","0","main_experiment_trial","ten","dog_causal","causal_sequence","","","",""
"","","","","","html-keyboard-response","163","489629","0.0-163.0","ACA2417ED42B46A897A9A6911F3C5237","019cef8c-ad5b-7800-8e3a-af41e7f05d86","019cef87-c56d-7b55-9135-c5814367ec25","","null","<div style=""background-color: white; width: 100vw; height: 100vh;""></div>","null","","","","","","","",""
"","","","","","html-keyboard-response","164","494642","0.0-164.0","ACA2417ED42B46A897A9A6911F3C5237","019cef8c-ad5b-7800-8e3a-af41e7f05d86","019cef87-c56d-7b55-9135-c5814367ec25","","null","
                <div class=""stimulus-container"">
                    <img src=""images/schematic_sequence/restaurant_scheme/restaurant_scheme_1.png"" class=""exp-image"">
                    <div class=""question-area""></div> 
                </div>","null","","","","","","","",""
"","","","","","html-button-response","165","496644","0.0-165.0","ACA2417ED42B46A897A9A6911F3C5237","019cef8c-ad5b-7800-8e3a-af41e7f05d86","019cef87-c56d-7b55-9135-c5814367ec25","","2000","
                <div class=""stimulus-container"">
                    <img src=""images/schematic_sequence/restaurant_scheme/restaurant_scheme_1.png"" class=""exp-image"">
                    <div class=""question-area"">
                        <p style=""font-size: 20px; font-weight: bold; margin: 0;"">Is there a person in this image?</p>
                    </div>
                </div>","0","main_experiment_trial","1","restaurant_scheme","schematic_sequence","","","",""
"","","","","","html-keyboard-response","166","501651","0.0-166.0","ACA2417ED42B46A897A9A6911F3C5237","019cef8c-ad5b-7800-8e3a-af41e7f05d86","019cef87-c56d-7b55-9135-c5814367ec25","","null","
                <div class=""stimulus-container"">
                    <img src=""images/schematic_sequence/restaurant_scheme/restaurant_scheme_2.png"" class=""exp-image"">
                    <div class=""question-area""></div> 
                </div>","null","","","","","","","",""
"","","","","","html-button-response","167","502402","0.0-167.0","ACA2417ED42B46A897A9A6911F3C5237","019cef8c-ad5b-7800-8e3a-af41e7f05d86","019cef87-c56d-7b55-9135-c5814367ec25","","750","
                <div class=""stimulus-container"">
                    <img src=""images/schematic_sequence/restaurant_scheme/restaurant_scheme_2.png"" class=""exp-image"">
                    <div class=""question-area"">
                        <p style=""font-size: 20px; font-weight: bold; margin: 0;"">Is there a person in this image?</p>
                    </div>
                </div>","1","main_experiment_trial","2","restaurant_scheme","schematic_sequence","","","",""
"","","","","","html-keyboard-response","168","507417","0.0-168.0","ACA2417ED42B46A897A9A6911F3C5237","019cef8c-ad5b-7800-8e3a-af41e7f05d86","019cef87-c56d-7b55-9135-c5814367ec25","","null","
                <div class=""stimulus-container"">
                    <img src=""images/schematic_sequence/restaurant_scheme/restaurant_scheme_3.png"" class=""exp-image"">
                    <div class=""question-area""></div> 
                </div>","null","","","","","","","",""
"","","","","","html-button-response","169","508216","0.0-169.0","ACA2417ED42B46A897A9A6911F3C5237","019cef8c-ad5b-7800-8e3a-af41e7f05d86","019cef87-c56d-7b55-9135-c5814367ec25","","797","
                <div class=""stimulus-container"">
                    <img src=""images/schematic_sequence/restaurant_scheme/restaurant_scheme_3.png"" class=""exp-image"">
                    <div class=""question-area"">
                        <p style=""font-size: 20px; font-weight: bold; margin: 0;"">Is there a person in this image?</p>
                    </div>
                </div>","1","main_experiment_trial","3","restaurant_scheme","schematic_sequence","","","",""
"","","","","","html-keyboard-response","170","513225","0.0-170.0","ACA2417ED42B46A897A9A6911F3C5237","019cef8c-ad5b-7800-8e3a-af41e7f05d86","019cef87-c56d-7b55-9135-c5814367ec25","","null","
                <div class=""stimulus-container"">
                    <img src=""images/schematic_sequence/restaurant_scheme/restaurant_scheme_4.png"" class=""exp-image"">
                    <div class=""question-area""></div> 
                </div>","null","","","","","","","",""
"","","","","","html-button-response","171","513998","0.0-171.0","ACA2417ED42B46A897A9A6911F3C5237","019cef8c-ad5b-7800-8e3a-af41e7f05d86","019cef87-c56d-7b55-9135-c5814367ec25","","773","
                <div class=""stimulus-container"">
                    <img src=""images/schematic_sequence/restaurant_scheme/restaurant_scheme_4.png"" class=""exp-image"">
                    <div class=""question-area"">
                        <p style=""font-size: 20px; font-weight: bold; margin: 0;"">Is there a person in this image?</p>
                    </div>
                </div>","0","main_experiment_trial","4","restaurant_scheme","schematic_sequence","","","",""
"","","","","","html-keyboard-response","172","519005","0.0-172.0","ACA2417ED42B46A897A9A6911F3C5237","019cef8c-ad5b-7800-8e3a-af41e7f05d86","019cef87-c56d-7b55-9135-c5814367ec25","","null","
                <div class=""stimulus-container"">
                    <img src=""images/schematic_sequence/restaurant_scheme/restaurant_scheme_5.png"" class=""exp-image"">
                    <div class=""question-area""></div> 
                </div>","null","","","","","","","",""
"","","","","","html-button-response","173","520914","0.0-173.0","ACA2417ED42B46A897A9A6911F3C5237","019cef8c-ad5b-7800-8e3a-af41e7f05d86","019cef87-c56d-7b55-9135-c5814367ec25","","1908","
                <div class=""stimulus-container"">
                    <img src=""images/schematic_sequence/restaurant_scheme/restaurant_scheme_5.png"" class=""exp-image"">
                    <div class=""question-area"">
                        <p style=""font-size: 20px; font-weight: bold; margin: 0;"">Is there a person in this image?</p>
                    </div>
                </div>","0","main_experiment_trial","5","restaurant_scheme","schematic_sequence","","","",""
"","","","","","html-keyboard-response","174","525921","0.0-174.0","ACA2417ED42B46A897A9A6911F3C5237","019cef8c-ad5b-7800-8e3a-af41e7f05d86","019cef87-c56d-7b55-9135-c5814367ec25","","null","
                <div class=""stimulus-container"">
                    <img src=""images/schematic_sequence/restaurant_scheme/restaurant_scheme_6.png"" class=""exp-image"">
                    <div class=""question-area""></div> 
                </div>","null","","","","","","","",""
"","","","","","html-button-response","175","526485","0.0-175.0","ACA2417ED42B46A897A9A6911F3C5237","019cef8c-ad5b-7800-8e3a-af41e7f05d86","019cef87-c56d-7b55-9135-c5814367ec25","","563","
                <div class=""stimulus-container"">
                    <img src=""images/schematic_sequence/restaurant_scheme/restaurant_scheme_6.png"" class=""exp-image"">
                    <div class=""question-area"">
                        <p style=""font-size: 20px; font-weight: bold; margin: 0;"">Is there a person in this image?</p>
                    </div>
                </div>","1","main_experiment_trial","6","restaurant_scheme","schematic_sequence","","","",""
"","","","","","html-keyboard-response","176","531489","0.0-176.0","ACA2417ED42B46A897A9A6911F3C5237","019cef8c-ad5b-7800-8e3a-af41e7f05d86","019cef87-c56d-7b55-9135-c5814367ec25","","null","
                <div class=""stimulus-container"">
                    <img src=""images/schematic_sequence/restaurant_scheme/restaurant_scheme_7.png"" class=""exp-image"">
                    <div class=""question-area""></div> 
                </div>","null","","","","","","","",""
"","","","","","html-button-response","177","533296","0.0-177.0","ACA2417ED42B46A897A9A6911F3C5237","019cef8c-ad5b-7800-8e3a-af41e7f05d86","019cef87-c56d-7b55-9135-c5814367ec25","","1808","
                <div class=""stimulus-container"">
                    <img src=""images/schematic_sequence/restaurant_scheme/restaurant_scheme_7.png"" class=""exp-image"">
                    <div class=""question-area"">
                        <p style=""font-size: 20px; font-weight: bold; margin: 0;"">Is there a person in this image?</p>
                    </div>
                </div>","1","main_experiment_trial","7","restaurant_scheme","schematic_sequence","","","",""
"","","","","","html-keyboard-response","178","538304","0.0-178.0","ACA2417ED42B46A897A9A6911F3C5237","019cef8c-ad5b-7800-8e3a-af41e7f05d86","019cef87-c56d-7b55-9135-c5814367ec25","","null","
                <div class=""stimulus-container"">
                    <img src=""images/schematic_sequence/restaurant_scheme/restaurant_scheme_8.png"" class=""exp-image"">
                    <div class=""question-area""></div> 
                </div>","null","","","","","","","",""
"","","","","","html-button-response","179","538841","0.0-179.0","ACA2417ED42B46A897A9A6911F3C5237","019cef8c-ad5b-7800-8e3a-af41e7f05d86","019cef87-c56d-7b55-9135-c5814367ec25","","538","
                <div class=""stimulus-container"">
                    <img src=""images/schematic_sequence/restaurant_scheme/restaurant_scheme_8.png"" class=""exp-image"">
                    <div class=""question-area"">
                        <p style=""font-size: 20px; font-weight: bold; margin: 0;"">Is there a person in this image?</p>
                    </div>
                </div>","0","main_experiment_trial","8","restaurant_scheme","schematic_sequence","","","",""
"","","","","","html-keyboard-response","180","543843","0.0-180.0","ACA2417ED42B46A897A9A6911F3C5237","019cef8c-ad5b-7800-8e3a-af41e7f05d86","019cef87-c56d-7b55-9135-c5814367ec25","","null","
                <div class=""stimulus-container"">
                    <img src=""images/schematic_sequence/restaurant_scheme/restaurant_scheme_9.png"" class=""exp-image"">
                    <div class=""question-area""></div> 
                </div>","null","","","","","","","",""
"","","","","","html-button-response","181","544802","0.0-181.0","ACA2417ED42B46A897A9A6911F3C5237","019cef8c-ad5b-7800-8e3a-af41e7f05d86","019cef87-c56d-7b55-9135-c5814367ec25","","959","
                <div class=""stimulus-container"">
                    <img src=""images/schematic_sequence/restaurant_scheme/restaurant_scheme_9.png"" class=""exp-image"">
                    <div class=""question-area"">
                        <p style=""font-size: 20px; font-weight: bold; margin: 0;"">Is there a person in this image?</p>
                    </div>
                </div>","0","main_experiment_trial","9","restaurant_scheme","schematic_sequence","","","",""
"","","","","","html-keyboard-response","182","549814","0.0-182.0","ACA2417ED42B46A897A9A6911F3C5237","019cef8c-ad5b-7800-8e3a-af41e7f05d86","019cef87-c56d-7b55-9135-c5814367ec25","","null","
                <div class=""stimulus-container"">
                    <img src=""images/schematic_sequence/restaurant_scheme/restaurant_scheme_ten.png"" class=""exp-image"">
                    <div class=""question-area""></div> 
                </div>","null","","","","","","","",""
"","","","","","html-button-response","183","550338","0.0-183.0","ACA2417ED42B46A897A9A6911F3C5237","019cef8c-ad5b-7800-8e3a-af41e7f05d86","019cef87-c56d-7b55-9135-c5814367ec25","","525","
                <div class=""stimulus-container"">
                    <img src=""images/schematic_sequence/restaurant_scheme/restaurant_scheme_ten.png"" class=""exp-image"">
                    <div class=""question-area"">
                        <p style=""font-size: 20px; font-weight: bold; margin: 0;"">Is there a person in this image?</p>
                    </div>
                </div>","0","main_experiment_trial","ten","restaurant_scheme","schematic_sequence","","","",""
"","","","","","html-keyboard-response","184","551352","0.0-184.0","ACA2417ED42B46A897A9A6911F3C5237","019cef8c-ad5b-7800-8e3a-af41e7f05d86","019cef87-c56d-7b55-9135-c5814367ec25","","null","<div style=""background-color: white; width: 100vw; height: 100vh;""></div>","null","","","","","","","",""
"","","","","","html-keyboard-response","185","556354","0.0-185.0","ACA2417ED42B46A897A9A6911F3C5237","019cef8c-ad5b-7800-8e3a-af41e7f05d86","019cef87-c56d-7b55-9135-c5814367ec25","","null","
                <div class=""stimulus-container"">
