"success","timeout","failed_images","failed_audio","failed_video","trial_type","trial_index","time_elapsed","internal_node_id","subject_id","study_id","session_id","view_history","rt","stimulus","response","task","image_index","folder","sequence_type","presentation_order","valuable_image_index","reward_type","distance_from_x","target_X","chosen_image_index","is_x_plus_dist","correct_choice"
"true","false","[]","[]","[]","preload","0","3679","0.0-0.0","40A913B2738F448281B638762074C110","019d6b0e-176f-7138-8534-8ca25ce56c94","019d6ae6-5d89-74c6-b581-3918d1816346","","","","","","","","","","","","","","","",""
"","","","","","instructions","1","9699","0.0-1.0","40A913B2738F448281B638762074C110","019d6b0e-176f-7138-8534-8ca25ce56c94","019d6ae6-5d89-74c6-b581-3918d1816346","[{""page_index"":0,""viewing_time"":6020}]","6020","","","","","","","","","","","","","",""
"","","","","","instructions","2","15703","0.0-2.0","40A913B2738F448281B638762074C110","019d6b0e-176f-7138-8534-8ca25ce56c94","019d6ae6-5d89-74c6-b581-3918d1816346","[{""page_index"":0,""viewing_time"":6003}]","6003","","","","","","","","","","","","","",""
"true","","","","","fullscreen","3","18717","0.0-3.0","40A913B2738F448281B638762074C110","019d6b0e-176f-7138-8534-8ca25ce56c94","019d6ae6-5d89-74c6-b581-3918d1816346","","2010","","","","","","","","","","","","","",""
"","","","","","instructions","4","53130","0.0-4.0","40A913B2738F448281B638762074C110","019d6b0e-176f-7138-8534-8ca25ce56c94","019d6ae6-5d89-74c6-b581-3918d1816346","[{""page_index"":0,""viewing_time"":34412}]","34412","","","","","","","","","","","","","",""
"","","","","","instructions","5","85452","0.0-5.0","40A913B2738F448281B638762074C110","019d6b0e-176f-7138-8534-8ca25ce56c94","019d6ae6-5d89-74c6-b581-3918d1816346","[{""page_index"":0,""viewing_time"":32322}]","32322","","","","","","","","","","","","","",""
"","","","","","html-keyboard-response","6","89460","0.0-6.0","40A913B2738F448281B638762074C110","019d6b0e-176f-7138-8534-8ca25ce56c94","019d6ae6-5d89-74c6-b581-3918d1816346","","null","
            <div class=""stimulus-container"">
                <img src=""images/instructions/movie_1.png"" class=""exp-image"">
                <div class=""question-area""></div> 
            </div>","null","","","","","","","","","","","",""
"","","","","","html-button-response","7","91219","0.0-7.0","40A913B2738F448281B638762074C110","019d6b0e-176f-7138-8534-8ca25ce56c94","019d6ae6-5d89-74c6-b581-3918d1816346","","1758","
            <div class=""stimulus-container"">
                <img src=""images/instructions/movie_1.png"" class=""exp-image"">
                <div class=""question-area"">
                    <p style=""font-size: 20px; font-weight: bold; margin: 0;"">Was there a person in this image?</p>
                </div>
            </div>","0","example_question","1","","","","","","","","","",""
"","","","","","html-keyboard-response","8","95227","0.0-8.0","40A913B2738F448281B638762074C110","019d6b0e-176f-7138-8534-8ca25ce56c94","019d6ae6-5d89-74c6-b581-3918d1816346","","null","
            <div class=""stimulus-container"">
                <img src=""images/instructions/movie_2.png"" class=""exp-image"">
                <div class=""question-area""></div> 
            </div>","null","","","","","","","","","","","",""
"","","","","","html-button-response","9","96843","0.0-9.0","40A913B2738F448281B638762074C110","019d6b0e-176f-7138-8534-8ca25ce56c94","019d6ae6-5d89-74c6-b581-3918d1816346","","1615","
            <div class=""stimulus-container"">
                <img src=""images/instructions/movie_2.png"" class=""exp-image"">
                <div class=""question-area"">
                    <p style=""font-size: 20px; font-weight: bold; margin: 0;"">Was there a person in this image?</p>
                </div>
            </div>","0","example_question","2","","","","","","","","","",""
"","","","","","html-keyboard-response","10","100855","0.0-10.0","40A913B2738F448281B638762074C110","019d6b0e-176f-7138-8534-8ca25ce56c94","019d6ae6-5d89-74c6-b581-3918d1816346","","null","
            <div class=""stimulus-container"">
                <img src=""images/instructions/movie_3.png"" class=""exp-image"">
                <div class=""question-area""></div> 
            </div>","null","","","","","","","","","","","",""
"","","","","","html-button-response","11","101799","0.0-11.0","40A913B2738F448281B638762074C110","019d6b0e-176f-7138-8534-8ca25ce56c94","019d6ae6-5d89-74c6-b581-3918d1816346","","943","
            <div class=""stimulus-container"">
                <img src=""images/instructions/movie_3.png"" class=""exp-image"">
                <div class=""question-area"">
                    <p style=""font-size: 20px; font-weight: bold; margin: 0;"">Was there a person in this image?</p>
                </div>
            </div>","0","example_question","3","","","","","","","","","",""
"","","","","","html-keyboard-response","12","105808","0.0-12.0","40A913B2738F448281B638762074C110","019d6b0e-176f-7138-8534-8ca25ce56c94","019d6ae6-5d89-74c6-b581-3918d1816346","","null","
            <div class=""stimulus-container"">
                <img src=""images/instructions/movie_4.png"" class=""exp-image"">
                <div class=""question-area""></div> 
            </div>","null","","","","","","","","","","","",""
"","","","","","html-button-response","13","107271","0.0-13.0","40A913B2738F448281B638762074C110","019d6b0e-176f-7138-8534-8ca25ce56c94","019d6ae6-5d89-74c6-b581-3918d1816346","","1462","
            <div class=""stimulus-container"">
                <img src=""images/instructions/movie_4.png"" class=""exp-image"">
                <div class=""question-area"">
                    <p style=""font-size: 20px; font-weight: bold; margin: 0;"">Was there a person in this image?</p>
                </div>
            </div>","0","example_question","4","","","","","","","","","",""
"","","","","","instructions","14","109790","0.0-14.0","40A913B2738F448281B638762074C110","019d6b0e-176f-7138-8534-8ca25ce56c94","019d6ae6-5d89-74c6-b581-3918d1816346","[{""page_index"":0,""viewing_time"":2518}]","2518","","","","","","","","","","","","","",""
"","","","","","instructions","15","121688","0.0-15.0","40A913B2738F448281B638762074C110","019d6b0e-176f-7138-8534-8ca25ce56c94","019d6ae6-5d89-74c6-b581-3918d1816346","[{""page_index"":0,""viewing_time"":11898}]","11898","","","","","","","","","","","","","",""
"","","","","","html-keyboard-response","16","126700","0.0-16.0","40A913B2738F448281B638762074C110","019d6b0e-176f-7138-8534-8ca25ce56c94","019d6ae6-5d89-74c6-b581-3918d1816346","","null","<div style=""background-color: white; width: 100vw; height: 100vh;""></div>","null","","","","","","","","","","","",""
"","","","","","html-keyboard-response","17","131716","0.0-17.0","40A913B2738F448281B638762074C110","019d6b0e-176f-7138-8534-8ca25ce56c94","019d6ae6-5d89-74c6-b581-3918d1816346","","null","
                <div class=""stimulus-container"">
                    <img src=""images/causal_sequence/dog_causal/dog_causal_1.png"" class=""exp-image"">
                    <div class=""question-area""></div> 
                </div>","null","","","","","","","","","","","",""
"","","","","","html-button-response","18","133067","0.0-18.0","40A913B2738F448281B638762074C110","019d6b0e-176f-7138-8534-8ca25ce56c94","019d6ae6-5d89-74c6-b581-3918d1816346","","1349","
                <div class=""stimulus-container"">
                    <img src=""images/causal_sequence/dog_causal/dog_causal_1.png"" class=""exp-image"">
                    <div class=""question-area"">
                        <p style=""font-size: 20px; font-weight: bold; margin: 0;"">Is there a person in this image?</p>
                    </div>
                </div>","0","main_experiment_trial","1","dog_causal","causal_sequence","chronological","","","","","","",""
"","","","","","html-keyboard-response","19","138081","0.0-19.0","40A913B2738F448281B638762074C110","019d6b0e-176f-7138-8534-8ca25ce56c94","019d6ae6-5d89-74c6-b581-3918d1816346","","null","
                <div class=""stimulus-container"">
                    <img src=""images/causal_sequence/dog_causal/dog_causal_2.png"" class=""exp-image"">
                    <div class=""question-area""></div> 
                </div>","null","","","","","","","","","","","",""
"","","","","","html-button-response","20","139229","0.0-20.0","40A913B2738F448281B638762074C110","019d6b0e-176f-7138-8534-8ca25ce56c94","019d6ae6-5d89-74c6-b581-3918d1816346","","1147","
                <div class=""stimulus-container"">
                    <img src=""images/causal_sequence/dog_causal/dog_causal_2.png"" class=""exp-image"">
                    <div class=""question-area"">
                        <p style=""font-size: 20px; font-weight: bold; margin: 0;"">Is there a person in this image?</p>
                    </div>
                </div>","0","main_experiment_trial","2","dog_causal","causal_sequence","chronological","","","","","","",""
"","","","","","html-keyboard-response","21","144236","0.0-21.0","40A913B2738F448281B638762074C110","019d6b0e-176f-7138-8534-8ca25ce56c94","019d6ae6-5d89-74c6-b581-3918d1816346","","null","
                <div class=""stimulus-container"">
                    <img src=""images/causal_sequence/dog_causal/dog_causal_3.png"" class=""exp-image"">
                    <div class=""question-area""></div> 
                </div>","null","","","","","","","","","","","",""
"","","","","","html-button-response","22","144952","0.0-22.0","40A913B2738F448281B638762074C110","019d6b0e-176f-7138-8534-8ca25ce56c94","019d6ae6-5d89-74c6-b581-3918d1816346","","715","
                <div class=""stimulus-container"">
                    <img src=""images/causal_sequence/dog_causal/dog_causal_3.png"" class=""exp-image"">
                    <div class=""question-area"">
                        <p style=""font-size: 20px; font-weight: bold; margin: 0;"">Is there a person in this image?</p>
                    </div>
                </div>","0","main_experiment_trial","3","dog_causal","causal_sequence","chronological","","","","","","",""
"","","","","","html-keyboard-response","23","149960","0.0-23.0","40A913B2738F448281B638762074C110","019d6b0e-176f-7138-8534-8ca25ce56c94","019d6ae6-5d89-74c6-b581-3918d1816346","","null","
                <div class=""stimulus-container"">
                    <img src=""images/causal_sequence/dog_causal/dog_causal_4.png"" class=""exp-image"">
                    <div class=""question-area""></div> 
                </div>","null","","","","","","","","","","","",""
"","","","","","html-button-response","24","151091","0.0-24.0","40A913B2738F448281B638762074C110","019d6b0e-176f-7138-8534-8ca25ce56c94","019d6ae6-5d89-74c6-b581-3918d1816346","","1129","
                <div class=""stimulus-container"">
                    <img src=""images/causal_sequence/dog_causal/dog_causal_4.png"" class=""exp-image"">
                    <div class=""question-area"">
                        <p style=""font-size: 20px; font-weight: bold; margin: 0;"">Is there a person in this image?</p>
                    </div>
                </div>","0","main_experiment_trial","4","dog_causal","causal_sequence","chronological","","","","","","",""
"","","","","","html-keyboard-response","25","156102","0.0-25.0","40A913B2738F448281B638762074C110","019d6b0e-176f-7138-8534-8ca25ce56c94","019d6ae6-5d89-74c6-b581-3918d1816346","","null","
                <div class=""stimulus-container"">
                    <img src=""images/causal_sequence/dog_causal/dog_causal_5.png"" class=""exp-image"">
                    <div class=""question-area""></div> 
                </div>","null","","","","","","","","","","","",""
"","","","","","html-button-response","26","157572","0.0-26.0","40A913B2738F448281B638762074C110","019d6b0e-176f-7138-8534-8ca25ce56c94","019d6ae6-5d89-74c6-b581-3918d1816346","","1468","
                <div class=""stimulus-container"">
                    <img src=""images/causal_sequence/dog_causal/dog_causal_5.png"" class=""exp-image"">
                    <div class=""question-area"">
                        <p style=""font-size: 20px; font-weight: bold; margin: 0;"">Is there a person in this image?</p>
                    </div>
                </div>","0","main_experiment_trial","5","dog_causal","causal_sequence","chronological","","","","","","",""
"","","","","","html-keyboard-response","27","162588","0.0-27.0","40A913B2738F448281B638762074C110","019d6b0e-176f-7138-8534-8ca25ce56c94","019d6ae6-5d89-74c6-b581-3918d1816346","","null","
                <div class=""stimulus-container"">
                    <img src=""images/causal_sequence/dog_causal/dog_causal_6.png"" class=""exp-image"">
                    <div class=""question-area""></div> 
                </div>","null","","","","","","","","","","","",""
"","","","","","html-button-response","28","164609","0.0-28.0","40A913B2738F448281B638762074C110","019d6b0e-176f-7138-8534-8ca25ce56c94","019d6ae6-5d89-74c6-b581-3918d1816346","","2020","
                <div class=""stimulus-container"">
                    <img src=""images/causal_sequence/dog_causal/dog_causal_6.png"" class=""exp-image"">
                    <div class=""question-area"">
                        <p style=""font-size: 20px; font-weight: bold; margin: 0;"">Is there a person in this image?</p>
                    </div>
                </div>","0","main_experiment_trial","6","dog_causal","causal_sequence","chronological","","","","","","",""
"","","","","","html-keyboard-response","29","169624","0.0-29.0","40A913B2738F448281B638762074C110","019d6b0e-176f-7138-8534-8ca25ce56c94","019d6ae6-5d89-74c6-b581-3918d1816346","","null","
                <div class=""stimulus-container"">
                    <img src=""images/causal_sequence/dog_causal/dog_causal_7.png"" class=""exp-image"">
                    <div class=""question-area""></div> 
                </div>","null","","","","","","","","","","","",""
"","","","","","html-button-response","30","171154","0.0-30.0","40A913B2738F448281B638762074C110","019d6b0e-176f-7138-8534-8ca25ce56c94","019d6ae6-5d89-74c6-b581-3918d1816346","","1529","
                <div class=""stimulus-container"">
                    <img src=""images/causal_sequence/dog_causal/dog_causal_7.png"" class=""exp-image"">
                    <div class=""question-area"">
                        <p style=""font-size: 20px; font-weight: bold; margin: 0;"">Is there a person in this image?</p>
                    </div>
                </div>","0","main_experiment_trial","7","dog_causal","causal_sequence","chronological","","","","","","",""
"","","","","","html-keyboard-response","31","176169","0.0-31.0","40A913B2738F448281B638762074C110","019d6b0e-176f-7138-8534-8ca25ce56c94","019d6ae6-5d89-74c6-b581-3918d1816346","","null","
                <div class=""stimulus-container"">
                    <img src=""images/causal_sequence/dog_causal/dog_causal_8.png"" class=""exp-image"">
                    <div class=""question-area""></div> 
                </div>","null","","","","","","","","","","","",""
"","","","","","html-button-response","32","178188","0.0-32.0","40A913B2738F448281B638762074C110","019d6b0e-176f-7138-8534-8ca25ce56c94","019d6ae6-5d89-74c6-b581-3918d1816346","","2018","
                <div class=""stimulus-container"">
                    <img src=""images/causal_sequence/dog_causal/dog_causal_8.png"" class=""exp-image"">
                    <div class=""question-area"">
                        <p style=""font-size: 20px; font-weight: bold; margin: 0;"">Is there a person in this image?</p>
                    </div>
                </div>","0","main_experiment_trial","8","dog_causal","causal_sequence","chronological","","","","","","",""
"","","","","","html-keyboard-response","33","183193","0.0-33.0","40A913B2738F448281B638762074C110","019d6b0e-176f-7138-8534-8ca25ce56c94","019d6ae6-5d89-74c6-b581-3918d1816346","","null","
                <div class=""stimulus-container"">
                    <img src=""images/causal_sequence/dog_causal/dog_causal_9.png"" class=""exp-image"">
                    <div class=""question-area""></div> 
                </div>","null","","","","","","","","","","","",""
"","","","","","html-button-response","34","185246","0.0-34.0","40A913B2738F448281B638762074C110","019d6b0e-176f-7138-8534-8ca25ce56c94","019d6ae6-5d89-74c6-b581-3918d1816346","","2052","
                <div class=""stimulus-container"">
                    <img src=""images/causal_sequence/dog_causal/dog_causal_9.png"" class=""exp-image"">
                    <div class=""question-area"">
                        <p style=""font-size: 20px; font-weight: bold; margin: 0;"">Is there a person in this image?</p>
                    </div>
                </div>","0","main_experiment_trial","9","dog_causal","causal_sequence","chronological","","","","","","",""
"","","","","","html-keyboard-response","35","190261","0.0-35.0","40A913B2738F448281B638762074C110","019d6b0e-176f-7138-8534-8ca25ce56c94","019d6ae6-5d89-74c6-b581-3918d1816346","","null","
                <div class=""stimulus-container"">
                    <img src=""images/causal_sequence/dog_causal/dog_causal_ten.png"" class=""exp-image"">
                    <div class=""question-area""></div> 
                </div>","null","","","","","","","","","","","",""
"","","","","","html-button-response","36","191911","0.0-36.0","40A913B2738F448281B638762074C110","019d6b0e-176f-7138-8534-8ca25ce56c94","019d6ae6-5d89-74c6-b581-3918d1816346","","1650","
                <div class=""stimulus-container"">
                    <img src=""images/causal_sequence/dog_causal/dog_causal_ten.png"" class=""exp-image"">
                    <div class=""question-area"">
                        <p style=""font-size: 20px; font-weight: bold; margin: 0;"">Is there a person in this image?</p>
                    </div>
                </div>","0","main_experiment_trial","ten","dog_causal","causal_sequence","chronological","","","","","","",""
"","","","","","html-keyboard-response","37","196921","0.0-37.0","40A913B2738F448281B638762074C110","019d6b0e-176f-7138-8534-8ca25ce56c94","019d6ae6-5d89-74c6-b581-3918d1816346","","null","<div style=""background-color: white; width: 100vw; height: 100vh;""></div>","null","","","","","","","","","","","",""
"","","","","","html-keyboard-response","38","201931","0.0-38.0","40A913B2738F448281B638762074C110","019d6b0e-176f-7138-8534-8ca25ce56c94","019d6ae6-5d89-74c6-b581-3918d1816346","","null","
                <div class=""stimulus-container"">
                    <img src=""semantic_sequence_notimeline/fruits_semantic/fruits_semantic_1.png"" class=""exp-image"">
                    <div class=""question-area""></div> 
                </div>","null","","","","","","","","","","","",""
"","","","","","html-button-response","39","203761","0.0-39.0","40A913B2738F448281B638762074C110","019d6b0e-176f-7138-8534-8ca25ce56c94","019d6ae6-5d89-74c6-b581-3918d1816346","","1829","
                <div class=""stimulus-container"">
                    <img src=""semantic_sequence_notimeline/fruits_semantic/fruits_semantic_1.png"" class=""exp-image"">
                    <div class=""question-area"">
                        <p style=""font-size: 20px; font-weight: bold; margin: 0;"">Is there a person in this image?</p>
                    </div>
                </div>","1","main_experiment_trial","1","fruits_semantic","semantic_sequence_notimeline","chronological","","","","","","",""
"","","","","","html-keyboard-response","40","208778","0.0-40.0","40A913B2738F448281B638762074C110","019d6b0e-176f-7138-8534-8ca25ce56c94","019d6ae6-5d89-74c6-b581-3918d1816346","","null","
                <div class=""stimulus-container"">
                    <img src=""semantic_sequence_notimeline/fruits_semantic/fruits_semantic_2.png"" class=""exp-image"">
                    <div class=""question-area""></div> 
                </div>","null","","","","","","","","","","","",""
"","","","","","html-button-response","41","210303","0.0-41.0","40A913B2738F448281B638762074C110","019d6b0e-176f-7138-8534-8ca25ce56c94","019d6ae6-5d89-74c6-b581-3918d1816346","","1524","
                <div class=""stimulus-container"">
                    <img src=""semantic_sequence_notimeline/fruits_semantic/fruits_semantic_2.png"" class=""exp-image"">
                    <div class=""question-area"">
                        <p style=""font-size: 20px; font-weight: bold; margin: 0;"">Is there a person in this image?</p>
                    </div>
                </div>","1","main_experiment_trial","2","fruits_semantic","semantic_sequence_notimeline","chronological","","","","","","",""
"","","","","","html-keyboard-response","42","215305","0.0-42.0","40A913B2738F448281B638762074C110","019d6b0e-176f-7138-8534-8ca25ce56c94","019d6ae6-5d89-74c6-b581-3918d1816346","","null","
                <div class=""stimulus-container"">
                    <img src=""semantic_sequence_notimeline/fruits_semantic/fruits_semantic_3.png"" class=""exp-image"">
                    <div class=""question-area""></div> 
                </div>","null","","","","","","","","","","","",""
"","","","","","html-button-response","43","216637","0.0-43.0","40A913B2738F448281B638762074C110","019d6b0e-176f-7138-8534-8ca25ce56c94","019d6ae6-5d89-74c6-b581-3918d1816346","","1331","
                <div class=""stimulus-container"">
                    <img src=""semantic_sequence_notimeline/fruits_semantic/fruits_semantic_3.png"" class=""exp-image"">
                    <div class=""question-area"">
                        <p style=""font-size: 20px; font-weight: bold; margin: 0;"">Is there a person in this image?</p>
                    </div>
                </div>","1","main_experiment_trial","3","fruits_semantic","semantic_sequence_notimeline","chronological","","","","","","",""
"","","","","","html-keyboard-response","44","221645","0.0-44.0","40A913B2738F448281B638762074C110","019d6b0e-176f-7138-8534-8ca25ce56c94","019d6ae6-5d89-74c6-b581-3918d1816346","","null","
                <div class=""stimulus-container"">
                    <img src=""semantic_sequence_notimeline/fruits_semantic/fruits_semantic_4.png"" class=""exp-image"">
                    <div class=""question-area""></div> 
                </div>","null","","","","","","","","","","","",""
"","","","","","html-button-response","45","222992","0.0-45.0","40A913B2738F448281B638762074C110","019d6b0e-176f-7138-8534-8ca25ce56c94","019d6ae6-5d89-74c6-b581-3918d1816346","","1346","
                <div class=""stimulus-container"">
                    <img src=""semantic_sequence_notimeline/fruits_semantic/fruits_semantic_4.png"" class=""exp-image"">
                    <div class=""question-area"">
                        <p style=""font-size: 20px; font-weight: bold; margin: 0;"">Is there a person in this image?</p>
                    </div>
                </div>","1","main_experiment_trial","4","fruits_semantic","semantic_sequence_notimeline","chronological","","","","","","",""
"","","","","","html-keyboard-response","46","227994","0.0-46.0","40A913B2738F448281B638762074C110","019d6b0e-176f-7138-8534-8ca25ce56c94","019d6ae6-5d89-74c6-b581-3918d1816346","","null","
                <div class=""stimulus-container"">
                    <img src=""semantic_sequence_notimeline/fruits_semantic/fruits_semantic_5.png"" class=""exp-image"">
                    <div class=""question-area""></div> 
                </div>","null","","","","","","","","","","","",""
"","","","","","html-button-response","47","229312","0.0-47.0","40A913B2738F448281B638762074C110","019d6b0e-176f-7138-8534-8ca25ce56c94","019d6ae6-5d89-74c6-b581-3918d1816346","","1317","
                <div class=""stimulus-container"">
                    <img src=""semantic_sequence_notimeline/fruits_semantic/fruits_semantic_5.png"" class=""exp-image"">
                    <div class=""question-area"">
                        <p style=""font-size: 20px; font-weight: bold; margin: 0;"">Is there a person in this image?</p>
                    </div>
                </div>","1","main_experiment_trial","5","fruits_semantic","semantic_sequence_notimeline","chronological","","","","","","",""
"","","","","","html-keyboard-response","48","234318","0.0-48.0","40A913B2738F448281B638762074C110","019d6b0e-176f-7138-8534-8ca25ce56c94","019d6ae6-5d89-74c6-b581-3918d1816346","","null","
                <div class=""stimulus-container"">
                    <img src=""semantic_sequence_notimeline/fruits_semantic/fruits_semantic_6.png"" class=""exp-image"">
                    <div class=""question-area""></div> 
                </div>","null","","","","","","","","","","","",""
"","","","","","html-button-response","49","235539","0.0-49.0","40A913B2738F448281B638762074C110","019d6b0e-176f-7138-8534-8ca25ce56c94","019d6ae6-5d89-74c6-b581-3918d1816346","","1220","
                <div class=""stimulus-container"">
                    <img src=""semantic_sequence_notimeline/fruits_semantic/fruits_semantic_6.png"" class=""exp-image"">
                    <div class=""question-area"">
                        <p style=""font-size: 20px; font-weight: bold; margin: 0;"">Is there a person in this image?</p>
                    </div>
                </div>","1","main_experiment_trial","6","fruits_semantic","semantic_sequence_notimeline","chronological","","","","","","",""
"","","","","","html-keyboard-response","50","240551","0.0-50.0","40A913B2738F448281B638762074C110","019d6b0e-176f-7138-8534-8ca25ce56c94","019d6ae6-5d89-74c6-b581-3918d1816346","","null","
                <div class=""stimulus-container"">
                    <img src=""semantic_sequence_notimeline/fruits_semantic/fruits_semantic_7.png"" class=""exp-image"">
                    <div class=""question-area""></div> 
                </div>","null","","","","","","","","","","","",""
"","","","","","html-button-response","51","241808","0.0-51.0","40A913B2738F448281B638762074C110","019d6b0e-176f-7138-8534-8ca25ce56c94","019d6ae6-5d89-74c6-b581-3918d1816346","","1256","
                <div class=""stimulus-container"">
                    <img src=""semantic_sequence_notimeline/fruits_semantic/fruits_semantic_7.png"" class=""exp-image"">
                    <div class=""question-area"">
                        <p style=""font-size: 20px; font-weight: bold; margin: 0;"">Is there a person in this image?</p>
                    </div>
                </div>","1","main_experiment_trial","7","fruits_semantic","semantic_sequence_notimeline","chronological","","","","","","",""
"","","","","","html-keyboard-response","52","246818","0.0-52.0","40A913B2738F448281B638762074C110","019d6b0e-176f-7138-8534-8ca25ce56c94","019d6ae6-5d89-74c6-b581-3918d1816346","","null","
                <div class=""stimulus-container"">
                    <img src=""semantic_sequence_notimeline/fruits_semantic/fruits_semantic_8.png"" class=""exp-image"">
                    <div class=""question-area""></div> 
                </div>","null","","","","","","","","","","","",""
"","","","","","html-button-response","53","248004","0.0-53.0","40A913B2738F448281B638762074C110","019d6b0e-176f-7138-8534-8ca25ce56c94","019d6ae6-5d89-74c6-b581-3918d1816346","","1185","
                <div class=""stimulus-container"">
                    <img src=""semantic_sequence_notimeline/fruits_semantic/fruits_semantic_8.png"" class=""exp-image"">
                    <div class=""question-area"">
                        <p style=""font-size: 20px; font-weight: bold; margin: 0;"">Is there a person in this image?</p>
                    </div>
                </div>","1","main_experiment_trial","8","fruits_semantic","semantic_sequence_notimeline","chronological","","","","","","",""
"","","","","","html-keyboard-response","54","253020","0.0-54.0","40A913B2738F448281B638762074C110","019d6b0e-176f-7138-8534-8ca25ce56c94","019d6ae6-5d89-74c6-b581-3918d1816346","","null","
                <div class=""stimulus-container"">
                    <img src=""semantic_sequence_notimeline/fruits_semantic/fruits_semantic_9.png"" class=""exp-image"">
                    <div class=""question-area""></div> 
                </div>","null","","","","","","","","","","","",""
"","","","","","html-button-response","55","254048","0.0-55.0","40A913B2738F448281B638762074C110","019d6b0e-176f-7138-8534-8ca25ce56c94","019d6ae6-5d89-74c6-b581-3918d1816346","","1027","
                <div class=""stimulus-container"">
                    <img src=""semantic_sequence_notimeline/fruits_semantic/fruits_semantic_9.png"" class=""exp-image"">
                    <div class=""question-area"">
                        <p style=""font-size: 20px; font-weight: bold; margin: 0;"">Is there a person in this image?</p>
                    </div>
                </div>","1","main_experiment_trial","9","fruits_semantic","semantic_sequence_notimeline","chronological","","","","","","",""
"","","","","","html-keyboard-response","56","259050","0.0-56.0","40A913B2738F448281B638762074C110","019d6b0e-176f-7138-8534-8ca25ce56c94","019d6ae6-5d89-74c6-b581-3918d1816346","","null","
                <div class=""stimulus-container"">
                    <img src=""semantic_sequence_notimeline/fruits_semantic/fruits_semantic_ten.png"" class=""exp-image"">
                    <div class=""question-area""></div> 
                </div>","null","","","","","","","","","","","",""
"","","","","","html-button-response","57","260166","0.0-57.0","40A913B2738F448281B638762074C110","019d6b0e-176f-7138-8534-8ca25ce56c94","019d6ae6-5d89-74c6-b581-3918d1816346","","1115","
                <div class=""stimulus-container"">
                    <img src=""semantic_sequence_notimeline/fruits_semantic/fruits_semantic_ten.png"" class=""exp-image"">
                    <div class=""question-area"">
                        <p style=""font-size: 20px; font-weight: bold; margin: 0;"">Is there a person in this image?</p>
                    </div>
                </div>","1","main_experiment_trial","ten","fruits_semantic","semantic_sequence_notimeline","chronological","","","","","","",""
"","","","","","html-keyboard-response","58","265177","0.0-58.0","40A913B2738F448281B638762074C110","019d6b0e-176f-7138-8534-8ca25ce56c94","019d6ae6-5d89-74c6-b581-3918d1816346","","null","<div style=""background-color: white; width: 100vw; height: 100vh;""></div>","null","","","","","","","","","","","",""
"","","","","","html-keyboard-response","59","270185","0.0-59.0","40A913B2738F448281B638762074C110","019d6b0e-176f-7138-8534-8ca25ce56c94","019d6ae6-5d89-74c6-b581-3918d1816346","","null","
                <div class=""stimulus-container"">
                    <img src=""images/causal_sequence/the_performance_causal/the_performance_causal_1.png"" class=""exp-image"">
                    <div class=""question-area""></div> 
                </div>","null","","","","","","","","","","","",""
"","","","","","html-button-response","60","271623","0.0-60.0","40A913B2738F448281B638762074C110","019d6b0e-176f-7138-8534-8ca25ce56c94","019d6ae6-5d89-74c6-b581-3918d1816346","","1437","
                <div class=""stimulus-container"">
                    <img src=""images/causal_sequence/the_performance_causal/the_performance_causal_1.png"" class=""exp-image"">
                    <div class=""question-area"">
                        <p style=""font-size: 20px; font-weight: bold; margin: 0;"">Is there a person in this image?</p>
                    </div>
                </div>","0","main_experiment_trial","1","the_performance_causal","causal_sequence","chronological","","","","","","",""
"","","","","","html-keyboard-response","61","276633","0.0-61.0","40A913B2738F448281B638762074C110","019d6b0e-176f-7138-8534-8ca25ce56c94","019d6ae6-5d89-74c6-b581-3918d1816346","","null","
                <div class=""stimulus-container"">
                    <img src=""images/causal_sequence/the_performance_causal/the_performance_causal_2.png"" class=""exp-image"">
                    <div class=""question-area""></div> 
                </div>","null","","","","","","","","","","","",""
"","","","","","html-button-response","62","277744","0.0-62.0","40A913B2738F448281B638762074C110","019d6b0e-176f-7138-8534-8ca25ce56c94","019d6ae6-5d89-74c6-b581-3918d1816346","","1110","
                <div class=""stimulus-container"">
                    <img src=""images/causal_sequence/the_performance_causal/the_performance_causal_2.png"" class=""exp-image"">
                    <div class=""question-area"">
                        <p style=""font-size: 20px; font-weight: bold; margin: 0;"">Is there a person in this image?</p>
                    </div>
                </div>","0","main_experiment_trial","2","the_performance_causal","causal_sequence","chronological","","","","","","",""
"","","","","","html-keyboard-response","63","282758","0.0-63.0","40A913B2738F448281B638762074C110","019d6b0e-176f-7138-8534-8ca25ce56c94","019d6ae6-5d89-74c6-b581-3918d1816346","","null","
                <div class=""stimulus-container"">
                    <img src=""images/causal_sequence/the_performance_causal/the_performance_causal_3.png"" class=""exp-image"">
                    <div class=""question-area""></div> 
                </div>","null","","","","","","","","","","","",""
"","","","","","html-button-response","64","284303","0.0-64.0","40A913B2738F448281B638762074C110","019d6b0e-176f-7138-8534-8ca25ce56c94","019d6ae6-5d89-74c6-b581-3918d1816346","","1544","
                <div class=""stimulus-container"">
                    <img src=""images/causal_sequence/the_performance_causal/the_performance_causal_3.png"" class=""exp-image"">
                    <div class=""question-area"">
                        <p style=""font-size: 20px; font-weight: bold; margin: 0;"">Is there a person in this image?</p>
                    </div>
                </div>","0","main_experiment_trial","3","the_performance_causal","causal_sequence","chronological","","","","","","",""
"","","","","","html-keyboard-response","65","289308","0.0-65.0","40A913B2738F448281B638762074C110","019d6b0e-176f-7138-8534-8ca25ce56c94","019d6ae6-5d89-74c6-b581-3918d1816346","","null","
                <div class=""stimulus-container"">
                    <img src=""images/causal_sequence/the_performance_causal/the_performance_causal_4.png"" class=""exp-image"">
                    <div class=""question-area""></div> 
                </div>","null","","","","","","","","","","","",""
"","","","","","html-button-response","66","290245","0.0-66.0","40A913B2738F448281B638762074C110","019d6b0e-176f-7138-8534-8ca25ce56c94","019d6ae6-5d89-74c6-b581-3918d1816346","","936","
                <div class=""stimulus-container"">
                    <img src=""images/causal_sequence/the_performance_causal/the_performance_causal_4.png"" class=""exp-image"">
                    <div class=""question-area"">
                        <p style=""font-size: 20px; font-weight: bold; margin: 0;"">Is there a person in this image?</p>
                    </div>
                </div>","0","main_experiment_trial","4","the_performance_causal","causal_sequence","chronological","","","","","","",""
"","","","","","html-keyboard-response","67","295247","0.0-67.0","40A913B2738F448281B638762074C110","019d6b0e-176f-7138-8534-8ca25ce56c94","019d6ae6-5d89-74c6-b581-3918d1816346","","null","
                <div class=""stimulus-container"">
                    <img src=""images/causal_sequence/the_performance_causal/the_performance_causal_5.png"" class=""exp-image"">
                    <div class=""question-area""></div> 
                </div>","null","","","","","","","","","","","",""
"","","","","","html-button-response","68","296033","0.0-68.0","40A913B2738F448281B638762074C110","019d6b0e-176f-7138-8534-8ca25ce56c94","019d6ae6-5d89-74c6-b581-3918d1816346","","786","
                <div class=""stimulus-container"">
                    <img src=""images/causal_sequence/the_performance_causal/the_performance_causal_5.png"" class=""exp-image"">
                    <div class=""question-area"">
                        <p style=""font-size: 20px; font-weight: bold; margin: 0;"">Is there a person in this image?</p>
                    </div>
                </div>","0","main_experiment_trial","5","the_performance_causal","causal_sequence","chronological","","","","","","",""
"","","","","","html-keyboard-response","69","301038","0.0-69.0","40A913B2738F448281B638762074C110","019d6b0e-176f-7138-8534-8ca25ce56c94","019d6ae6-5d89-74c6-b581-3918d1816346","","null","
                <div class=""stimulus-container"">
                    <img src=""images/causal_sequence/the_performance_causal/the_performance_causal_6.png"" class=""exp-image"">
                    <div class=""question-area""></div> 
                </div>","null","","","","","","","","","","","",""
"","","","","","html-button-response","70","302558","0.0-70.0","40A913B2738F448281B638762074C110","019d6b0e-176f-7138-8534-8ca25ce56c94","019d6ae6-5d89-74c6-b581-3918d1816346","","1519","
                <div class=""stimulus-container"">
                    <img src=""images/causal_sequence/the_performance_causal/the_performance_causal_6.png"" class=""exp-image"">
                    <div class=""question-area"">
                        <p style=""font-size: 20px; font-weight: bold; margin: 0;"">Is there a person in this image?</p>
                    </div>
                </div>","0","main_experiment_trial","6","the_performance_causal","causal_sequence","chronological","","","","","","",""
"","","","","","html-keyboard-response","71","307559","0.0-71.0","40A913B2738F448281B638762074C110","019d6b0e-176f-7138-8534-8ca25ce56c94","019d6ae6-5d89-74c6-b581-3918d1816346","","null","
                <div class=""stimulus-container"">
                    <img src=""images/causal_sequence/the_performance_causal/the_performance_causal_7.png"" class=""exp-image"">
                    <div class=""question-area""></div> 
                </div>","null","","","","","","","","","","","",""
"","","","","","html-button-response","72","308644","0.0-72.0","40A913B2738F448281B638762074C110","019d6b0e-176f-7138-8534-8ca25ce56c94","019d6ae6-5d89-74c6-b581-3918d1816346","","1084","
                <div class=""stimulus-container"">
                    <img src=""images/causal_sequence/the_performance_causal/the_performance_causal_7.png"" class=""exp-image"">
                    <div class=""question-area"">
                        <p style=""font-size: 20px; font-weight: bold; margin: 0;"">Is there a person in this image?</p>
                    </div>
                </div>","0","main_experiment_trial","7","the_performance_causal","causal_sequence","chronological","","","","","","",""
"","","","","","html-keyboard-response","73","313646","0.0-73.0","40A913B2738F448281B638762074C110","019d6b0e-176f-7138-8534-8ca25ce56c94","019d6ae6-5d89-74c6-b581-3918d1816346","","null","
                <div class=""stimulus-container"">
                    <img src=""images/causal_sequence/the_performance_causal/the_performance_causal_8.png"" class=""exp-image"">
                    <div class=""question-area""></div> 
                </div>","null","","","","","","","","","","","",""
"","","","","","html-button-response","74","314923","0.0-74.0","40A913B2738F448281B638762074C110","019d6b0e-176f-7138-8534-8ca25ce56c94","019d6ae6-5d89-74c6-b581-3918d1816346","","1276","
                <div class=""stimulus-container"">
                    <img src=""images/causal_sequence/the_performance_causal/the_performance_causal_8.png"" class=""exp-image"">
                    <div class=""question-area"">
                        <p style=""font-size: 20px; font-weight: bold; margin: 0;"">Is there a person in this image?</p>
                    </div>
                </div>","0","main_experiment_trial","8","the_performance_causal","causal_sequence","chronological","","","","","","",""
"","","","","","html-keyboard-response","75","319924","0.0-75.0","40A913B2738F448281B638762074C110","019d6b0e-176f-7138-8534-8ca25ce56c94","019d6ae6-5d89-74c6-b581-3918d1816346","","null","
                <div class=""stimulus-container"">
                    <img src=""images/causal_sequence/the_performance_causal/the_performance_causal_9.png"" class=""exp-image"">
                    <div class=""question-area""></div> 
                </div>","null","","","","","","","","","","","",""
"","","","","","html-button-response","76","321602","0.0-76.0","40A913B2738F448281B638762074C110","019d6b0e-176f-7138-8534-8ca25ce56c94","019d6ae6-5d89-74c6-b581-3918d1816346","","1677","
                <div class=""stimulus-container"">
                    <img src=""images/causal_sequence/the_performance_causal/the_performance_causal_9.png"" class=""exp-image"">
                    <div class=""question-area"">
                        <p style=""font-size: 20px; font-weight: bold; margin: 0;"">Is there a person in this image?</p>
                    </div>
                </div>","0","main_experiment_trial","9","the_performance_causal","causal_sequence","chronological","","","","","","",""
"","","","","","html-keyboard-response","77","326614","0.0-77.0","40A913B2738F448281B638762074C110","019d6b0e-176f-7138-8534-8ca25ce56c94","019d6ae6-5d89-74c6-b581-3918d1816346","","null","
                <div class=""stimulus-container"">
                    <img src=""images/causal_sequence/the_performance_causal/the_performance_causal_ten.png"" class=""exp-image"">
                    <div class=""question-area""></div> 
                </div>","null","","","","","","","","","","","",""
"","","","","","html-button-response","78","328101","0.0-78.0","40A913B2738F448281B638762074C110","019d6b0e-176f-7138-8534-8ca25ce56c94","019d6ae6-5d89-74c6-b581-3918d1816346","","1487","
                <div class=""stimulus-container"">
                    <img src=""images/causal_sequence/the_performance_causal/the_performance_causal_ten.png"" class=""exp-image"">
                    <div class=""question-area"">
                        <p style=""font-size: 20px; font-weight: bold; margin: 0;"">Is there a person in this image?</p>
                    </div>
                </div>","0","main_experiment_trial","ten","the_performance_causal","causal_sequence","chronological","","","","","","",""
"","","","","","html-keyboard-response","79","333118","0.0-79.0","40A913B2738F448281B638762074C110","019d6b0e-176f-7138-8534-8ca25ce56c94","019d6ae6-5d89-74c6-b581-3918d1816346","","null","<div style=""background-color: white; width: 100vw; height: 100vh;""></div>","null","","","","","","","","","","","",""
"","","","","","html-keyboard-response","80","338129","0.0-80.0","40A913B2738F448281B638762074C110","019d6b0e-176f-7138-8534-8ca25ce56c94","019d6ae6-5d89-74c6-b581-3918d1816346","","null","
                <div class=""stimulus-container"">
                    <img src=""semantic_sequence_notimeline/transportation_semantic/transportation_semantic_1.png"" class=""exp-image"">
                    <div class=""question-area""></div> 
                </div>","null","","","","","","","","","","","",""
"","","","","","html-button-response","81","339773","0.0-81.0","40A913B2738F448281B638762074C110","019d6b0e-176f-7138-8534-8ca25ce56c94","019d6ae6-5d89-74c6-b581-3918d1816346","","1644","
                <div class=""stimulus-container"">
                    <img src=""semantic_sequence_notimeline/transportation_semantic/transportation_semantic_1.png"" class=""exp-image"">
                    <div class=""question-area"">
                        <p style=""font-size: 20px; font-weight: bold; margin: 0;"">Is there a person in this image?</p>
                    </div>
                </div>","1","main_experiment_trial","1","transportation_semantic","semantic_sequence_notimeline","chronological","","","","","","",""
"","","","","","html-keyboard-response","82","344789","0.0-82.0","40A913B2738F448281B638762074C110","019d6b0e-176f-7138-8534-8ca25ce56c94","019d6ae6-5d89-74c6-b581-3918d1816346","","null","
                <div class=""stimulus-container"">
                    <img src=""semantic_sequence_notimeline/transportation_semantic/transportation_semantic_2.png"" class=""exp-image"">
                    <div class=""question-area""></div> 
                </div>","null","","","","","","","","","","","",""
"","","","","","html-button-response","83","345738","0.0-83.0","40A913B2738F448281B638762074C110","019d6b0e-176f-7138-8534-8ca25ce56c94","019d6ae6-5d89-74c6-b581-3918d1816346","","948","
                <div class=""stimulus-container"">
                    <img src=""semantic_sequence_notimeline/transportation_semantic/transportation_semantic_2.png"" class=""exp-image"">
                    <div class=""question-area"">
                        <p style=""font-size: 20px; font-weight: bold; margin: 0;"">Is there a person in this image?</p>
                    </div>
                </div>","1","main_experiment_trial","2","transportation_semantic","semantic_sequence_notimeline","chronological","","","","","","",""
"","","","","","html-keyboard-response","84","350745","0.0-84.0","40A913B2738F448281B638762074C110","019d6b0e-176f-7138-8534-8ca25ce56c94","019d6ae6-5d89-74c6-b581-3918d1816346","","null","
                <div class=""stimulus-container"">
                    <img src=""semantic_sequence_notimeline/transportation_semantic/transportation_semantic_3.png"" class=""exp-image"">
                    <div class=""question-area""></div> 
                </div>","null","","","","","","","","","","","",""
"","","","","","html-button-response","85","351731","0.0-85.0","40A913B2738F448281B638762074C110","019d6b0e-176f-7138-8534-8ca25ce56c94","019d6ae6-5d89-74c6-b581-3918d1816346","","985","
                <div class=""stimulus-container"">
                    <img src=""semantic_sequence_notimeline/transportation_semantic/transportation_semantic_3.png"" class=""exp-image"">
                    <div class=""question-area"">
                        <p style=""font-size: 20px; font-weight: bold; margin: 0;"">Is there a person in this image?</p>
                    </div>
                </div>","1","main_experiment_trial","3","transportation_semantic","semantic_sequence_notimeline","chronological","","","","","","",""
"","","","","","html-keyboard-response","86","356747","0.0-86.0","40A913B2738F448281B638762074C110","019d6b0e-176f-7138-8534-8ca25ce56c94","019d6ae6-5d89-74c6-b581-3918d1816346","","null","
                <div class=""stimulus-container"">
                    <img src=""semantic_sequence_notimeline/transportation_semantic/transportation_semantic_4.png"" class=""exp-image"">
                    <div class=""question-area""></div> 
                </div>","null","","","","","","","","","","","",""
"","","","","","html-button-response","87","357867","0.0-87.0","40A913B2738F448281B638762074C110","019d6b0e-176f-7138-8534-8ca25ce56c94","019d6ae6-5d89-74c6-b581-3918d1816346","","1119","
                <div class=""stimulus-container"">
                    <img src=""semantic_sequence_notimeline/transportation_semantic/transportation_semantic_4.png"" class=""exp-image"">
                    <div class=""question-area"">
                        <p style=""font-size: 20px; font-weight: bold; margin: 0;"">Is there a person in this image?</p>
                    </div>
                </div>","1","main_experiment_trial","4","transportation_semantic","semantic_sequence_notimeline","chronological","","","","","","",""
"","","","","","html-keyboard-response","88","362877","0.0-88.0","40A913B2738F448281B638762074C110","019d6b0e-176f-7138-8534-8ca25ce56c94","019d6ae6-5d89-74c6-b581-3918d1816346","","null","
                <div class=""stimulus-container"">
                    <img src=""semantic_sequence_notimeline/transportation_semantic/transportation_semantic_5.png"" class=""exp-image"">
                    <div class=""question-area""></div> 
                </div>","null","","","","","","","","","","","",""
"","","","","","html-button-response","89","363531","0.0-89.0","40A913B2738F448281B638762074C110","019d6b0e-176f-7138-8534-8ca25ce56c94","019d6ae6-5d89-74c6-b581-3918d1816346","","652","
                <div class=""stimulus-container"">
                    <img src=""semantic_sequence_notimeline/transportation_semantic/transportation_semantic_5.png"" class=""exp-image"">
                    <div class=""question-area"">
                        <p style=""font-size: 20px; font-weight: bold; margin: 0;"">Is there a person in this image?</p>
                    </div>
                </div>","1","main_experiment_trial","5","transportation_semantic","semantic_sequence_notimeline","chronological","","","","","","",""
"","","","","","html-keyboard-response","90","368543","0.0-90.0","40A913B2738F448281B638762074C110","019d6b0e-176f-7138-8534-8ca25ce56c94","019d6ae6-5d89-74c6-b581-3918d1816346","","null","
                <div class=""stimulus-container"">
                    <img src=""semantic_sequence_notimeline/transportation_semantic/transportation_semantic_6.png"" class=""exp-image"">
                    <div class=""question-area""></div> 
                </div>","null","","","","","","","","","","","",""
"","","","","","html-button-response","91","369429","0.0-91.0","40A913B2738F448281B638762074C110","019d6b0e-176f-7138-8534-8ca25ce56c94","019d6ae6-5d89-74c6-b581-3918d1816346","","885","
                <div class=""stimulus-container"">
                    <img src=""semantic_sequence_notimeline/transportation_semantic/transportation_semantic_6.png"" class=""exp-image"">
                    <div class=""question-area"">
                        <p style=""font-size: 20px; font-weight: bold; margin: 0;"">Is there a person in this image?</p>
                    </div>
                </div>","1","main_experiment_trial","6","transportation_semantic","semantic_sequence_notimeline","chronological","","","","","","",""
"","","","","","html-keyboard-response","92","374446","0.0-92.0","40A913B2738F448281B638762074C110","019d6b0e-176f-7138-8534-8ca25ce56c94","019d6ae6-5d89-74c6-b581-3918d1816346","","null","
                <div class=""stimulus-container"">
                    <img src=""semantic_sequence_notimeline/transportation_semantic/transportation_semantic_7.png"" class=""exp-image"">
                    <div class=""question-area""></div> 
                </div>","null","","","","","","","","","","","",""
"","","","","","html-button-response","93","375200","0.0-93.0","40A913B2738F448281B638762074C110","019d6b0e-176f-7138-8534-8ca25ce56c94","019d6ae6-5d89-74c6-b581-3918d1816346","","753","
                <div class=""stimulus-container"">
                    <img src=""semantic_sequence_notimeline/transportation_semantic/transportation_semantic_7.png"" class=""exp-image"">
                    <div class=""question-area"">
                        <p style=""font-size: 20px; font-weight: bold; margin: 0;"">Is there a person in this image?</p>
                    </div>
                </div>","1","main_experiment_trial","7","transportation_semantic","semantic_sequence_notimeline","chronological","","","","","","",""
"","","","","","html-keyboard-response","94","380217","0.0-94.0","40A913B2738F448281B638762074C110","019d6b0e-176f-7138-8534-8ca25ce56c94","019d6ae6-5d89-74c6-b581-3918d1816346","","null","
                <div class=""stimulus-container"">
                    <img src=""semantic_sequence_notimeline/transportation_semantic/transportation_semantic_8.png"" class=""exp-image"">
                    <div class=""question-area""></div> 
                </div>","null","","","","","","","","","","","",""
"","","","","","html-button-response","95","381200","0.0-95.0","40A913B2738F448281B638762074C110","019d6b0e-176f-7138-8534-8ca25ce56c94","019d6ae6-5d89-74c6-b581-3918d1816346","","982","
                <div class=""stimulus-container"">
                    <img src=""semantic_sequence_notimeline/transportation_semantic/transportation_semantic_8.png"" class=""exp-image"">
                    <div class=""question-area"">
                        <p style=""font-size: 20px; font-weight: bold; margin: 0;"">Is there a person in this image?</p>
                    </div>
                </div>","1","main_experiment_trial","8","transportation_semantic","semantic_sequence_notimeline","chronological","","","","","","",""
"","","","","","html-keyboard-response","96","386211","0.0-96.0","40A913B2738F448281B638762074C110","019d6b0e-176f-7138-8534-8ca25ce56c94","019d6ae6-5d89-74c6-b581-3918d1816346","","null","
                <div class=""stimulus-container"">
                    <img src=""semantic_sequence_notimeline/transportation_semantic/transportation_semantic_9.png"" class=""exp-image"">
                    <div class=""question-area""></div> 
                </div>","null","","","","","","","","","","","",""
"","","","","","html-button-response","97","386900","0.0-97.0","40A913B2738F448281B638762074C110","019d6b0e-176f-7138-8534-8ca25ce56c94","019d6ae6-5d89-74c6-b581-3918d1816346","","688","
                <div class=""stimulus-container"">
                    <img src=""semantic_sequence_notimeline/transportation_semantic/transportation_semantic_9.png"" class=""exp-image"">
                    <div class=""question-area"">
                        <p style=""font-size: 20px; font-weight: bold; margin: 0;"">Is there a person in this image?</p>
                    </div>
                </div>","1","main_experiment_trial","9","transportation_semantic","semantic_sequence_notimeline","chronological","","","","","","",""
"","","","","","html-keyboard-response","98","391906","0.0-98.0","40A913B2738F448281B638762074C110","019d6b0e-176f-7138-8534-8ca25ce56c94","019d6ae6-5d89-74c6-b581-3918d1816346","","null","
                <div class=""stimulus-container"">
                    <img src=""semantic_sequence_notimeline/transportation_semantic/transportation_semantic_ten.png"" class=""exp-image"">
                    <div class=""question-area""></div> 
                </div>","null","","","","","","","","","","","",""
"","","","","","html-button-response","99","392823","0.0-99.0","40A913B2738F448281B638762074C110","019d6b0e-176f-7138-8534-8ca25ce56c94","019d6ae6-5d89-74c6-b581-3918d1816346","","916","
                <div class=""stimulus-container"">
                    <img src=""semantic_sequence_notimeline/transportation_semantic/transportation_semantic_ten.png"" class=""exp-image"">
                    <div class=""question-area"">
                        <p style=""font-size: 20px; font-weight: bold; margin: 0;"">Is there a person in this image?</p>
                    </div>
                </div>","1","main_experiment_trial","ten","transportation_semantic","semantic_sequence_notimeline","chronological","","","","","","",""
"","","","","","html-keyboard-response","100","397828","0.0-100.0","40A913B2738F448281B638762074C110","019d6b0e-176f-7138-8534-8ca25ce56c94","019d6ae6-5d89-74c6-b581-3918d1816346","","null","<div style=""background-color: white; width: 100vw; height: 100vh;""></div>","null","","","","","","","","","","","",""
"","","","","","html-keyboard-response","101","402840","0.0-101.0","40A913B2738F448281B638762074C110","019d6b0e-176f-7138-8534-8ca25ce56c94","019d6ae6-5d89-74c6-b581-3918d1816346","","null","
                <div class=""stimulus-container"">
                    <img src=""images/causal_sequence/coin_causal/coin_causal_1.png"" class=""exp-image"">
                    <div class=""question-area""></div> 
                </div>","null","","","","","","","","","","","",""
"","","","","","html-button-response","102","404082","0.0-102.0","40A913B2738F448281B638762074C110","019d6b0e-176f-7138-8534-8ca25ce56c94","019d6ae6-5d89-74c6-b581-3918d1816346","","1241","
                <div class=""stimulus-container"">
                    <img src=""images/causal_sequence/coin_causal/coin_causal_1.png"" class=""exp-image"">
                    <div class=""question-area"">
                        <p style=""font-size: 20px; font-weight: bold; margin: 0;"">Is there a person in this image?</p>
                    </div>
                </div>","0","main_experiment_trial","1","coin_causal","causal_sequence","chronological","","","","","","",""
"","","","","","html-keyboard-response","103","409095","0.0-103.0","40A913B2738F448281B638762074C110","019d6b0e-176f-7138-8534-8ca25ce56c94","019d6ae6-5d89-74c6-b581-3918d1816346","","null","
                <div class=""stimulus-container"">
                    <img src=""images/causal_sequence/coin_causal/coin_causal_2.png"" class=""exp-image"">
                    <div class=""question-area""></div> 
                </div>","null","","","","","","","","","","","",""
"","","","","","html-button-response","104","410212","0.0-104.0","40A913B2738F448281B638762074C110","019d6b0e-176f-7138-8534-8ca25ce56c94","019d6ae6-5d89-74c6-b581-3918d1816346","","1116","
                <div class=""stimulus-container"">
                    <img src=""images/causal_sequence/coin_causal/coin_causal_2.png"" class=""exp-image"">
                    <div class=""question-area"">
                        <p style=""font-size: 20px; font-weight: bold; margin: 0;"">Is there a person in this image?</p>
                    </div>
                </div>","0","main_experiment_trial","2","coin_causal","causal_sequence","chronological","","","","","","",""
"","","","","","html-keyboard-response","105","415227","0.0-105.0","40A913B2738F448281B638762074C110","019d6b0e-176f-7138-8534-8ca25ce56c94","019d6ae6-5d89-74c6-b581-3918d1816346","","null","
                <div class=""stimulus-container"">
                    <img src=""images/causal_sequence/coin_causal/coin_causal_3.png"" class=""exp-image"">
                    <div class=""question-area""></div> 
                </div>","null","","","","","","","","","","","",""
"","","","","","html-button-response","106","416134","0.0-106.0","40A913B2738F448281B638762074C110","019d6b0e-176f-7138-8534-8ca25ce56c94","019d6ae6-5d89-74c6-b581-3918d1816346","","907","
                <div class=""stimulus-container"">
                    <img src=""images/causal_sequence/coin_causal/coin_causal_3.png"" class=""exp-image"">
                    <div class=""question-area"">
                        <p style=""font-size: 20px; font-weight: bold; margin: 0;"">Is there a person in this image?</p>
                    </div>
                </div>","0","main_experiment_trial","3","coin_causal","causal_sequence","chronological","","","","","","",""
"","","","","","html-keyboard-response","107","421143","0.0-107.0","40A913B2738F448281B638762074C110","019d6b0e-176f-7138-8534-8ca25ce56c94","019d6ae6-5d89-74c6-b581-3918d1816346","","null","
                <div class=""stimulus-container"">
                    <img src=""images/causal_sequence/coin_causal/coin_causal_4.png"" class=""exp-image"">
                    <div class=""question-area""></div> 
                </div>","null","","","","","","","","","","","",""
"","","","","","html-button-response","108","422458","0.0-108.0","40A913B2738F448281B638762074C110","019d6b0e-176f-7138-8534-8ca25ce56c94","019d6ae6-5d89-74c6-b581-3918d1816346","","1314","
                <div class=""stimulus-container"">
                    <img src=""images/causal_sequence/coin_causal/coin_causal_4.png"" class=""exp-image"">
                    <div class=""question-area"">
                        <p style=""font-size: 20px; font-weight: bold; margin: 0;"">Is there a person in this image?</p>
                    </div>
                </div>","0","main_experiment_trial","4","coin_causal","causal_sequence","chronological","","","","","","",""
"","","","","","html-keyboard-response","109","427460","0.0-109.0","40A913B2738F448281B638762074C110","019d6b0e-176f-7138-8534-8ca25ce56c94","019d6ae6-5d89-74c6-b581-3918d1816346","","null","
                <div class=""stimulus-container"">
                    <img src=""images/causal_sequence/coin_causal/coin_causal_5.png"" class=""exp-image"">
                    <div class=""question-area""></div> 
                </div>","null","","","","","","","","","","","",""
"","","","","","html-button-response","110","428257","0.0-110.0","40A913B2738F448281B638762074C110","019d6b0e-176f-7138-8534-8ca25ce56c94","019d6ae6-5d89-74c6-b581-3918d1816346","","796","
                <div class=""stimulus-container"">
                    <img src=""images/causal_sequence/coin_causal/coin_causal_5.png"" class=""exp-image"">
                    <div class=""question-area"">
                        <p style=""font-size: 20px; font-weight: bold; margin: 0;"">Is there a person in this image?</p>
                    </div>
                </div>","0","main_experiment_trial","5","coin_causal","causal_sequence","chronological","","","","","","",""
"","","","","","html-keyboard-response","111","433272","0.0-111.0","40A913B2738F448281B638762074C110","019d6b0e-176f-7138-8534-8ca25ce56c94","019d6ae6-5d89-74c6-b581-3918d1816346","","null","
                <div class=""stimulus-container"">
                    <img src=""images/causal_sequence/coin_causal/coin_causal_6.png"" class=""exp-image"">
                    <div class=""question-area""></div> 
                </div>","null","","","","","","","","","","","",""
"","","","","","html-button-response","112","434007","0.0-112.0","40A913B2738F448281B638762074C110","019d6b0e-176f-7138-8534-8ca25ce56c94","019d6ae6-5d89-74c6-b581-3918d1816346","","735","
                <div class=""stimulus-container"">
                    <img src=""images/causal_sequence/coin_causal/coin_causal_6.png"" class=""exp-image"">
                    <div class=""question-area"">
                        <p style=""font-size: 20px; font-weight: bold; margin: 0;"">Is there a person in this image?</p>
                    </div>
                </div>","0","main_experiment_trial","6","coin_causal","causal_sequence","chronological","","","","","","",""
"","","","","","html-keyboard-response","113","439024","0.0-113.0","40A913B2738F448281B638762074C110","019d6b0e-176f-7138-8534-8ca25ce56c94","019d6ae6-5d89-74c6-b581-3918d1816346","","null","
                <div class=""stimulus-container"">
                    <img src=""images/causal_sequence/coin_causal/coin_causal_7.png"" class=""exp-image"">
                    <div class=""question-area""></div> 
                </div>","null","","","","","","","","","","","",""
"","","","","","html-button-response","114","440364","0.0-114.0","40A913B2738F448281B638762074C110","019d6b0e-176f-7138-8534-8ca25ce56c94","019d6ae6-5d89-74c6-b581-3918d1816346","","1340","
                <div class=""stimulus-container"">
                    <img src=""images/causal_sequence/coin_causal/coin_causal_7.png"" class=""exp-image"">
                    <div class=""question-area"">
                        <p style=""font-size: 20px; font-weight: bold; margin: 0;"">Is there a person in this image?</p>
                    </div>
                </div>","1","main_experiment_trial","7","coin_causal","causal_sequence","chronological","","","","","","",""
"","","","","","html-keyboard-response","115","445366","0.0-115.0","40A913B2738F448281B638762074C110","019d6b0e-176f-7138-8534-8ca25ce56c94","019d6ae6-5d89-74c6-b581-3918d1816346","","null","
                <div class=""stimulus-container"">
                    <img src=""images/causal_sequence/coin_causal/coin_causal_8.png"" class=""exp-image"">
                    <div class=""question-area""></div> 
                </div>","null","","","","","","","","","","","",""
"","","","","","html-button-response","116","446500","0.0-116.0","40A913B2738F448281B638762074C110","019d6b0e-176f-7138-8534-8ca25ce56c94","019d6ae6-5d89-74c6-b581-3918d1816346","","1133","
                <div class=""stimulus-container"">
                    <img src=""images/causal_sequence/coin_causal/coin_causal_8.png"" class=""exp-image"">
                    <div class=""question-area"">
                        <p style=""font-size: 20px; font-weight: bold; margin: 0;"">Is there a person in this image?</p>
                    </div>
                </div>","0","main_experiment_trial","8","coin_causal","causal_sequence","chronological","","","","","","",""
"","","","","","html-keyboard-response","117","451508","0.0-117.0","40A913B2738F448281B638762074C110","019d6b0e-176f-7138-8534-8ca25ce56c94","019d6ae6-5d89-74c6-b581-3918d1816346","","null","
                <div class=""stimulus-container"">
                    <img src=""images/causal_sequence/coin_causal/coin_causal_9.png"" class=""exp-image"">
                    <div class=""question-area""></div> 
                </div>","null","","","","","","","","","","","",""
"","","","","","html-button-response","118","453894","0.0-118.0","40A913B2738F448281B638762074C110","019d6b0e-176f-7138-8534-8ca25ce56c94","019d6ae6-5d89-74c6-b581-3918d1816346","","2385","
                <div class=""stimulus-container"">
                    <img src=""images/causal_sequence/coin_causal/coin_causal_9.png"" class=""exp-image"">
                    <div class=""question-area"">
                        <p style=""font-size: 20px; font-weight: bold; margin: 0;"">Is there a person in this image?</p>
                    </div>
                </div>","0","main_experiment_trial","9","coin_causal","causal_sequence","chronological","","","","","","",""
"","","","","","html-keyboard-response","119","458910","0.0-119.0","40A913B2738F448281B638762074C110","019d6b0e-176f-7138-8534-8ca25ce56c94","019d6ae6-5d89-74c6-b581-3918d1816346","","null","
                <div class=""stimulus-container"">
                    <img src=""images/causal_sequence/coin_causal/coin_causal_ten.png"" class=""exp-image"">
                    <div class=""question-area""></div> 
                </div>","null","","","","","","","","","","","",""
"","","","","","html-button-response","120","460203","0.0-120.0","40A913B2738F448281B638762074C110","019d6b0e-176f-7138-8534-8ca25ce56c94","019d6ae6-5d89-74c6-b581-3918d1816346","","1291","
                <div class=""stimulus-container"">
                    <img src=""images/causal_sequence/coin_causal/coin_causal_ten.png"" class=""exp-image"">
                    <div class=""question-area"">
                        <p style=""font-size: 20px; font-weight: bold; margin: 0;"">Is there a person in this image?</p>
                    </div>
                </div>","0","main_experiment_trial","ten","coin_causal","causal_sequence","chronological","","","","","","",""
"","","","","","html-keyboard-response","121","465207","0.0-121.0","40A913B2738F448281B638762074C110","019d6b0e-176f-7138-8534-8ca25ce56c94","019d6ae6-5d89-74c6-b581-3918d1816346","","null","<div style=""background-color: white; width: 100vw; height: 100vh;""></div>","null","","","","","","","","","","","",""
"","","","","","html-keyboard-response","122","470214","0.0-122.0","40A913B2738F448281B638762074C110","019d6b0e-176f-7138-8534-8ca25ce56c94","019d6ae6-5d89-74c6-b581-3918d1816346","","null","
                <div class=""stimulus-container"">
                    <img src=""semantic_sequence_notimeline/clothing_semantic/clothing_semantic_1.png"" class=""exp-image"">
                    <div class=""question-area""></div> 
                </div>","null","","","","","","","","","","","",""
"","","","","","html-button-response","123","471309","0.0-123.0","40A913B2738F448281B638762074C110","019d6b0e-176f-7138-8534-8ca25ce56c94","019d6ae6-5d89-74c6-b581-3918d1816346","","1094","
                <div class=""stimulus-container"">
                    <img src=""semantic_sequence_notimeline/clothing_semantic/clothing_semantic_1.png"" class=""exp-image"">
                    <div class=""question-area"">
                        <p style=""font-size: 20px; font-weight: bold; margin: 0;"">Is there a person in this image?</p>
                    </div>
                </div>","1","main_experiment_trial","1","clothing_semantic","semantic_sequence_notimeline","chronological","","","","","","",""
"","","","","","html-keyboard-response","124","476321","0.0-124.0","40A913B2738F448281B638762074C110","019d6b0e-176f-7138-8534-8ca25ce56c94","019d6ae6-5d89-74c6-b581-3918d1816346","","null","
                <div class=""stimulus-container"">
                    <img src=""semantic_sequence_notimeline/clothing_semantic/clothing_semantic_2.png"" class=""exp-image"">
                    <div class=""question-area""></div> 
                </div>","null","","","","","","","","","","","",""
"","","","","","html-button-response","125","477001","0.0-125.0","40A913B2738F448281B638762074C110","019d6b0e-176f-7138-8534-8ca25ce56c94","019d6ae6-5d89-74c6-b581-3918d1816346","","678","
                <div class=""stimulus-container"">
                    <img src=""semantic_sequence_notimeline/clothing_semantic/clothing_semantic_2.png"" class=""exp-image"">
                    <div class=""question-area"">
                        <p style=""font-size: 20px; font-weight: bold; margin: 0;"">Is there a person in this image?</p>
                    </div>
                </div>","1","main_experiment_trial","2","clothing_semantic","semantic_sequence_notimeline","chronological","","","","","","",""
"","","","","","html-keyboard-response","126","482018","0.0-126.0","40A913B2738F448281B638762074C110","019d6b0e-176f-7138-8534-8ca25ce56c94","019d6ae6-5d89-74c6-b581-3918d1816346","","null","
                <div class=""stimulus-container"">
                    <img src=""semantic_sequence_notimeline/clothing_semantic/clothing_semantic_3.png"" class=""exp-image"">
                    <div class=""question-area""></div> 
                </div>","null","","","","","","","","","","","",""
"","","","","","html-button-response","127","482934","0.0-127.0","40A913B2738F448281B638762074C110","019d6b0e-176f-7138-8534-8ca25ce56c94","019d6ae6-5d89-74c6-b581-3918d1816346","","915","
                <div class=""stimulus-container"">
                    <img src=""semantic_sequence_notimeline/clothing_semantic/clothing_semantic_3.png"" class=""exp-image"">
                    <div class=""question-area"">
                        <p style=""font-size: 20px; font-weight: bold; margin: 0;"">Is there a person in this image?</p>
                    </div>
                </div>","1","main_experiment_trial","3","clothing_semantic","semantic_sequence_notimeline","chronological","","","","","","",""
"","","","","","html-keyboard-response","128","487939","0.0-128.0","40A913B2738F448281B638762074C110","019d6b0e-176f-7138-8534-8ca25ce56c94","019d6ae6-5d89-74c6-b581-3918d1816346","","null","
                <div class=""stimulus-container"">
                    <img src=""semantic_sequence_notimeline/clothing_semantic/clothing_semantic_4.png"" class=""exp-image"">
                    <div class=""question-area""></div> 
                </div>","null","","","","","","","","","","","",""
"","","","","","html-button-response","129","489947","0.0-129.0","40A913B2738F448281B638762074C110","019d6b0e-176f-7138-8534-8ca25ce56c94","019d6ae6-5d89-74c6-b581-3918d1816346","","2006","
                <div class=""stimulus-container"">
                    <img src=""semantic_sequence_notimeline/clothing_semantic/clothing_semantic_4.png"" class=""exp-image"">
                    <div class=""question-area"">
                        <p style=""font-size: 20px; font-weight: bold; margin: 0;"">Is there a person in this image?</p>
                    </div>
                </div>","1","main_experiment_trial","4","clothing_semantic","semantic_sequence_notimeline","chronological","","","","","","",""
"","","","","","html-keyboard-response","130","494949","0.0-130.0","40A913B2738F448281B638762074C110","019d6b0e-176f-7138-8534-8ca25ce56c94","019d6ae6-5d89-74c6-b581-3918d1816346","","null","
                <div class=""stimulus-container"">
                    <img src=""semantic_sequence_notimeline/clothing_semantic/clothing_semantic_5.png"" class=""exp-image"">
                    <div class=""question-area""></div> 
                </div>","null","","","","","","","","","","","",""
"","","","","","html-button-response","131","495858","0.0-131.0","40A913B2738F448281B638762074C110","019d6b0e-176f-7138-8534-8ca25ce56c94","019d6ae6-5d89-74c6-b581-3918d1816346","","908","
                <div class=""stimulus-container"">
                    <img src=""semantic_sequence_notimeline/clothing_semantic/clothing_semantic_5.png"" class=""exp-image"">
                    <div class=""question-area"">
                        <p style=""font-size: 20px; font-weight: bold; margin: 0;"">Is there a person in this image?</p>
                    </div>
                </div>","1","main_experiment_trial","5","clothing_semantic","semantic_sequence_notimeline","chronological","","","","","","",""
"","","","","","html-keyboard-response","132","500860","0.0-132.0","40A913B2738F448281B638762074C110","019d6b0e-176f-7138-8534-8ca25ce56c94","019d6ae6-5d89-74c6-b581-3918d1816346","","null","
                <div class=""stimulus-container"">
                    <img src=""semantic_sequence_notimeline/clothing_semantic/clothing_semantic_6.png"" class=""exp-image"">
                    <div class=""question-area""></div> 
                </div>","null","","","","","","","","","","","",""
"","","","","","html-button-response","133","502049","0.0-133.0","40A913B2738F448281B638762074C110","019d6b0e-176f-7138-8534-8ca25ce56c94","019d6ae6-5d89-74c6-b581-3918d1816346","","1188","
                <div class=""stimulus-container"">
                    <img src=""semantic_sequence_notimeline/clothing_semantic/clothing_semantic_6.png"" class=""exp-image"">
                    <div class=""question-area"">
                        <p style=""font-size: 20px; font-weight: bold; margin: 0;"">Is there a person in this image?</p>
                    </div>
                </div>","1","main_experiment_trial","6","clothing_semantic","semantic_sequence_notimeline","chronological","","","","","","",""
"","","","","","html-keyboard-response","134","507059","0.0-134.0","40A913B2738F448281B638762074C110","019d6b0e-176f-7138-8534-8ca25ce56c94","019d6ae6-5d89-74c6-b581-3918d1816346","","null","
                <div class=""stimulus-container"">
                    <img src=""semantic_sequence_notimeline/clothing_semantic/clothing_semantic_7.png"" class=""exp-image"">
                    <div class=""question-area""></div> 
                </div>","null","","","","","","","","","","","",""
"","","","","","html-button-response","135","508919","0.0-135.0","40A913B2738F448281B638762074C110","019d6b0e-176f-7138-8534-8ca25ce56c94","019d6ae6-5d89-74c6-b581-3918d1816346","","1859","
                <div class=""stimulus-container"">
                    <img src=""semantic_sequence_notimeline/clothing_semantic/clothing_semantic_7.png"" class=""exp-image"">
                    <div class=""question-area"">
                        <p style=""font-size: 20px; font-weight: bold; margin: 0;"">Is there a person in this image?</p>
                    </div>
                </div>","1","main_experiment_trial","7","clothing_semantic","semantic_sequence_notimeline","chronological","","","","","","",""
"","","","","","html-keyboard-response","136","513925","0.0-136.0","40A913B2738F448281B638762074C110","019d6b0e-176f-7138-8534-8ca25ce56c94","019d6ae6-5d89-74c6-b581-3918d1816346","","null","
                <div class=""stimulus-container"">
                    <img src=""semantic_sequence_notimeline/clothing_semantic/clothing_semantic_8.png"" class=""exp-image"">
                    <div class=""question-area""></div> 
                </div>","null","","","","","","","","","","","",""
"","","","","","html-button-response","137","515074","0.0-137.0","40A913B2738F448281B638762074C110","019d6b0e-176f-7138-8534-8ca25ce56c94","019d6ae6-5d89-74c6-b581-3918d1816346","","1149","
                <div class=""stimulus-container"">
                    <img src=""semantic_sequence_notimeline/clothing_semantic/clothing_semantic_8.png"" class=""exp-image"">
                    <div class=""question-area"">
                        <p style=""font-size: 20px; font-weight: bold; margin: 0;"">Is there a person in this image?</p>
                    </div>
                </div>","1","main_experiment_trial","8","clothing_semantic","semantic_sequence_notimeline","chronological","","","","","","",""
"","","","","","html-keyboard-response","138","520077","0.0-138.0","40A913B2738F448281B638762074C110","019d6b0e-176f-7138-8534-8ca25ce56c94","019d6ae6-5d89-74c6-b581-3918d1816346","","null","
                <div class=""stimulus-container"">
                    <img src=""semantic_sequence_notimeline/clothing_semantic/clothing_semantic_9.png"" class=""exp-image"">
                    <div class=""question-area""></div> 
                </div>","null","","","","","","","","","","","",""
"","","","","","html-button-response","139","520910","0.0-139.0","40A913B2738F448281B638762074C110","019d6b0e-176f-7138-8534-8ca25ce56c94","019d6ae6-5d89-74c6-b581-3918d1816346","","832","
                <div class=""stimulus-container"">
                    <img src=""semantic_sequence_notimeline/clothing_semantic/clothing_semantic_9.png"" class=""exp-image"">
                    <div class=""question-area"">
                        <p style=""font-size: 20px; font-weight: bold; margin: 0;"">Is there a person in this image?</p>
                    </div>
                </div>","1","main_experiment_trial","9","clothing_semantic","semantic_sequence_notimeline","chronological","","","","","","",""
"","","","","","html-keyboard-response","140","525920","0.0-140.0","40A913B2738F448281B638762074C110","019d6b0e-176f-7138-8534-8ca25ce56c94","019d6ae6-5d89-74c6-b581-3918d1816346","","null","
                <div class=""stimulus-container"">
                    <img src=""semantic_sequence_notimeline/clothing_semantic/clothing_semantic_ten.png"" class=""exp-image"">
                    <div class=""question-area""></div> 
                </div>","null","","","","","","","","","","","",""
"","","","","","html-button-response","141","527195","0.0-141.0","40A913B2738F448281B638762074C110","019d6b0e-176f-7138-8534-8ca25ce56c94","019d6ae6-5d89-74c6-b581-3918d1816346","","1274","
                <div class=""stimulus-container"">
                    <img src=""semantic_sequence_notimeline/clothing_semantic/clothing_semantic_ten.png"" class=""exp-image"">
                    <div class=""question-area"">
                        <p style=""font-size: 20px; font-weight: bold; margin: 0;"">Is there a person in this image?</p>
                    </div>
                </div>","1","main_experiment_trial","ten","clothing_semantic","semantic_sequence_notimeline","chronological","","","","","","",""
"","","","","","html-keyboard-response","142","532207","0.0-142.0","40A913B2738F448281B638762074C110","019d6b0e-176f-7138-8534-8ca25ce56c94","019d6ae6-5d89-74c6-b581-3918d1816346","","null","<div style=""background-color: white; width: 100vw; height: 100vh;""></div>","null","","","","","","","","","","","",""
"","","","","","html-keyboard-response","143","537217","0.0-143.0","40A913B2738F448281B638762074C110","019d6b0e-176f-7138-8534-8ca25ce56c94","019d6ae6-5d89-74c6-b581-3918d1816346","","null","
                <div class=""stimulus-container"">
                    <img src=""images/causal_sequence/saving_a_cat_causal/saving_a_cat_causal_1.png"" class=""exp-image"">
                    <div class=""question-area""></div> 
                </div>","null","","","","","","","","","","","",""
"","","","","","html-button-response","144","538900","0.0-144.0","40A913B2738F448281B638762074C110","019d6b0e-176f-7138-8534-8ca25ce56c94","019d6ae6-5d89-74c6-b581-3918d1816346","","1682","
                <div class=""stimulus-container"">
                    <img src=""images/causal_sequence/saving_a_cat_causal/saving_a_cat_causal_1.png"" class=""exp-image"">
                    <div class=""question-area"">
                        <p style=""font-size: 20px; font-weight: bold; margin: 0;"">Is there a person in this image?</p>
                    </div>
                </div>","0","main_experiment_trial","1","saving_a_cat_causal","causal_sequence","chronological","","","","","","",""
"","","","","","html-keyboard-response","145","543913","0.0-145.0","40A913B2738F448281B638762074C110","019d6b0e-176f-7138-8534-8ca25ce56c94","019d6ae6-5d89-74c6-b581-3918d1816346","","null","
                <div class=""stimulus-container"">
                    <img src=""images/causal_sequence/saving_a_cat_causal/saving_a_cat_causal_2.png"" class=""exp-image"">
                    <div class=""question-area""></div> 
                </div>","null","","","","","","","","","","","",""
"","","","","","html-button-response","146","545285","0.0-146.0","40A913B2738F448281B638762074C110","019d6b0e-176f-7138-8534-8ca25ce56c94","019d6ae6-5d89-74c6-b581-3918d1816346","","1371","
                <div class=""stimulus-container"">
                    <img src=""images/causal_sequence/saving_a_cat_causal/saving_a_cat_causal_2.png"" class=""exp-image"">
                    <div class=""question-area"">
                        <p style=""font-size: 20px; font-weight: bold; margin: 0;"">Is there a person in this image?</p>
                    </div>
                </div>","1","main_experiment_trial","2","saving_a_cat_causal","causal_sequence","chronological","","","","","","",""
"","","","","","html-keyboard-response","147","550290","0.0-147.0","40A913B2738F448281B638762074C110","019d6b0e-176f-7138-8534-8ca25ce56c94","019d6ae6-5d89-74c6-b581-3918d1816346","","null","
                <div class=""stimulus-container"">
                    <img src=""images/causal_sequence/saving_a_cat_causal/saving_a_cat_causal_3.png"" class=""exp-image"">
                    <div class=""question-area""></div> 
                </div>","null","","","","","","","","","","","",""
"","","","","","html-button-response","148","551584","0.0-148.0","40A913B2738F448281B638762074C110","019d6b0e-176f-7138-8534-8ca25ce56c94","019d6ae6-5d89-74c6-b581-3918d1816346","","1293","
                <div class=""stimulus-container"">
                    <img src=""images/causal_sequence/saving_a_cat_causal/saving_a_cat_causal_3.png"" class=""exp-image"">
                    <div class=""question-area"">
                        <p style=""font-size: 20px; font-weight: bold; margin: 0;"">Is there a person in this image?</p>
                    </div>
                </div>","1","main_experiment_trial","3","saving_a_cat_causal","causal_sequence","chronological","","","","","","",""
"","","","","","html-keyboard-response","149","556590","0.0-149.0","40A913B2738F448281B638762074C110","019d6b0e-176f-7138-8534-8ca25ce56c94","019d6ae6-5d89-74c6-b581-3918d1816346","","null","
                <div class=""stimulus-container"">
                    <img src=""images/causal_sequence/saving_a_cat_causal/saving_a_cat_causal_4.png"" class=""exp-image"">
                    <div class=""question-area""></div> 
                </div>","null","","","","","","","","","","","",""
"","","","","","html-button-response","150","558148","0.0-150.0","40A913B2738F448281B638762074C110","019d6b0e-176f-7138-8534-8ca25ce56c94","019d6ae6-5d89-74c6-b581-3918d1816346","","1557","
                <div class=""stimulus-container"">
                    <img src=""images/causal_sequence/saving_a_cat_causal/saving_a_cat_causal_4.png"" class=""exp-image"">
                    <div class=""question-area"">
                        <p style=""font-size: 20px; font-weight: bold; margin: 0;"">Is there a person in this image?</p>
                    </div>
                </div>","0","main_experiment_trial","4","saving_a_cat_causal","causal_sequence","chronological","","","","","","",""
"","","","","","html-keyboard-response","151","563152","0.0-151.0","40A913B2738F448281B638762074C110","019d6b0e-176f-7138-8534-8ca25ce56c94","019d6ae6-5d89-74c6-b581-3918d1816346","","null","
                <div class=""stimulus-container"">
                    <img src=""images/causal_sequence/saving_a_cat_causal/saving_a_cat_causal_5.png"" class=""exp-image"">
                    <div class=""question-area""></div> 
                </div>","null","","","","","","","","","","","",""
"","","","","","html-button-response","152","564310","0.0-152.0","40A913B2738F448281B638762074C110","019d6b0e-176f-7138-8534-8ca25ce56c94","019d6ae6-5d89-74c6-b581-3918d1816346","","1157","
                <div class=""stimulus-container"">
                    <img src=""images/causal_sequence/saving_a_cat_causal/saving_a_cat_causal_5.png"" class=""exp-image"">
                    <div class=""question-area"">
                        <p style=""font-size: 20px; font-weight: bold; margin: 0;"">Is there a person in this image?</p>
                    </div>
                </div>","0","main_experiment_trial","5","saving_a_cat_causal","causal_sequence","chronological","","","","","","",""
"","","","","","html-keyboard-response","153","569318","0.0-153.0","40A913B2738F448281B638762074C110","019d6b0e-176f-7138-8534-8ca25ce56c94","019d6ae6-5d89-74c6-b581-3918d1816346","","null","
                <div class=""stimulus-container"">
                    <img src=""images/causal_sequence/saving_a_cat_causal/saving_a_cat_causal_6.png"" class=""exp-image"">
                    <div class=""question-area""></div> 
                </div>","null","","","","","","","","","","","",""
"","","","","","html-button-response","154","570516","0.0-154.0","40A913B2738F448281B638762074C110","019d6b0e-176f-7138-8534-8ca25ce56c94","019d6ae6-5d89-74c6-b581-3918d1816346","","1197","
                <div class=""stimulus-container"">
                    <img src=""images/causal_sequence/saving_a_cat_causal/saving_a_cat_causal_6.png"" class=""exp-image"">
                    <div class=""question-area"">
                        <p style=""font-size: 20px; font-weight: bold; margin: 0;"">Is there a person in this image?</p>
                    </div>
                </div>","0","main_experiment_trial","6","saving_a_cat_causal","causal_sequence","chronological","","","","","","",""
"","","","","","html-keyboard-response","155","575517","0.0-155.0","40A913B2738F448281B638762074C110","019d6b0e-176f-7138-8534-8ca25ce56c94","019d6ae6-5d89-74c6-b581-3918d1816346","","null","
                <div class=""stimulus-container"">
                    <img src=""images/causal_sequence/saving_a_cat_causal/saving_a_cat_causal_7.png"" class=""exp-image"">
                    <div class=""question-area""></div> 
                </div>","null","","","","","","","","","","","",""
"","","","","","html-button-response","156","576441","0.0-156.0","40A913B2738F448281B638762074C110","019d6b0e-176f-7138-8534-8ca25ce56c94","019d6ae6-5d89-74c6-b581-3918d1816346","","923","
                <div class=""stimulus-container"">
                    <img src=""images/causal_sequence/saving_a_cat_causal/saving_a_cat_causal_7.png"" class=""exp-image"">
                    <div class=""question-area"">
                        <p style=""font-size: 20px; font-weight: bold; margin: 0;"">Is there a person in this image?</p>
                    </div>
                </div>","0","main_experiment_trial","7","saving_a_cat_causal","causal_sequence","chronological","","","","","","",""
"","","","","","html-keyboard-response","157","581452","0.0-157.0","40A913B2738F448281B638762074C110","019d6b0e-176f-7138-8534-8ca25ce56c94","019d6ae6-5d89-74c6-b581-3918d1816346","","null","
                <div class=""stimulus-container"">
                    <img src=""images/causal_sequence/saving_a_cat_causal/saving_a_cat_causal_8.png"" class=""exp-image"">
                    <div class=""question-area""></div> 
                </div>","null","","","","","","","","","","","",""
"","","","","","html-button-response","158","582974","0.0-158.0","40A913B2738F448281B638762074C110","019d6b0e-176f-7138-8534-8ca25ce56c94","019d6ae6-5d89-74c6-b581-3918d1816346","","1522","
                <div class=""stimulus-container"">
                    <img src=""images/causal_sequence/saving_a_cat_causal/saving_a_cat_causal_8.png"" class=""exp-image"">
                    <div class=""question-area"">
                        <p style=""font-size: 20px; font-weight: bold; margin: 0;"">Is there a person in this image?</p>
                    </div>
                </div>","0","main_experiment_trial","8","saving_a_cat_causal","causal_sequence","chronological","","","","","","",""
"","","","","","html-keyboard-response","159","587980","0.0-159.0","40A913B2738F448281B638762074C110","019d6b0e-176f-7138-8534-8ca25ce56c94","019d6ae6-5d89-74c6-b581-3918d1816346","","null","
                <div class=""stimulus-container"">
                    <img src=""images/causal_sequence/saving_a_cat_causal/saving_a_cat_causal_9.png"" class=""exp-image"">
                    <div class=""question-area""></div> 
                </div>","null","","","","","","","","","","","",""
"","","","","","html-button-response","160","589642","0.0-160.0","40A913B2738F448281B638762074C110","019d6b0e-176f-7138-8534-8ca25ce56c94","019d6ae6-5d89-74c6-b581-3918d1816346","","1661","
                <div class=""stimulus-container"">
                    <img src=""images/causal_sequence/saving_a_cat_causal/saving_a_cat_causal_9.png"" class=""exp-image"">
                    <div class=""question-area"">
                        <p style=""font-size: 20px; font-weight: bold; margin: 0;"">Is there a person in this image?</p>
                    </div>
                </div>","0","main_experiment_trial","9","saving_a_cat_causal","causal_sequence","chronological","","","","","","",""
"","","","","","html-keyboard-response","161","594654","0.0-161.0","40A913B2738F448281B638762074C110","019d6b0e-176f-7138-8534-8ca25ce56c94","019d6ae6-5d89-74c6-b581-3918d1816346","","null","
                <div class=""stimulus-container"">
                    <img src=""images/causal_sequence/saving_a_cat_causal/saving_a_cat_causal_ten.png"" class=""exp-image"">
                    <div class=""question-area""></div> 
                </div>","null","","","","","","","","","","","",""
"","","","","","html-button-response","162","596230","0.0-162.0","40A913B2738F448281B638762074C110","019d6b0e-176f-7138-8534-8ca25ce56c94","019d6ae6-5d89-74c6-b581-3918d1816346","","1576","
                <div class=""stimulus-container"">
                    <img src=""images/causal_sequence/saving_a_cat_causal/saving_a_cat_causal_ten.png"" class=""exp-image"">
                    <div class=""question-area"">
                        <p style=""font-size: 20px; font-weight: bold; margin: 0;"">Is there a person in this image?</p>
                    </div>
                </div>","0","main_experiment_trial","ten","saving_a_cat_causal","causal_sequence","chronological","","","","","","",""
"","","","","","html-keyboard-response","163","601231","0.0-163.0","40A913B2738F448281B638762074C110","019d6b0e-176f-7138-8534-8ca25ce56c94","019d6ae6-5d89-74c6-b581-3918d1816346","","null","<div style=""background-color: white; width: 100vw; height: 100vh;""></div>","null","","","","","","","","","","","",""
"","","","","","html-keyboard-response","164","606237","0.0-164.0","40A913B2738F448281B638762074C110","019d6b0e-176f-7138-8534-8ca25ce56c94","019d6ae6-5d89-74c6-b581-3918d1816346","","null","
                <div class=""stimulus-container"">
                    <img src=""semantic_sequence_notimeline/household_objects_semantic/household_objects_semantic_1.png"" class=""exp-image"">
                    <div class=""question-area""></div> 
                </div>","null","","","","","","","","","","","",""
"","","","","","html-button-response","165","608885","0.0-165.0","40A913B2738F448281B638762074C110","019d6b0e-176f-7138-8534-8ca25ce56c94","019d6ae6-5d89-74c6-b581-3918d1816346","","2647","
                <div class=""stimulus-container"">
                    <img src=""semantic_sequence_notimeline/household_objects_semantic/household_objects_semantic_1.png"" class=""exp-image"">
                    <div class=""question-area"">
                        <p style=""font-size: 20px; font-weight: bold; margin: 0;"">Is there a person in this image?</p>
                    </div>
                </div>","1","main_experiment_trial","1","household_objects_semantic","semantic_sequence_notimeline","chronological","","","","","","",""
"","","","","","html-keyboard-response","166","613886","0.0-166.0","40A913B2738F448281B638762074C110","019d6b0e-176f-7138-8534-8ca25ce56c94","019d6ae6-5d89-74c6-b581-3918d1816346","","null","
                <div class=""stimulus-container"">
                    <img src=""semantic_sequence_notimeline/household_objects_semantic/household_objects_semantic_2.png"" class=""exp-image"">
                    <div class=""question-area""></div> 
                </div>","null","","","","","","","","","","","",""
"","","","","","html-button-response","167","614871","0.0-167.0","40A913B2738F448281B638762074C110","019d6b0e-176f-7138-8534-8ca25ce56c94","019d6ae6-5d89-74c6-b581-3918d1816346","","984","
                <div class=""stimulus-container"">
                    <img src=""semantic_sequence_notimeline/household_objects_semantic/household_objects_semantic_2.png"" class=""exp-image"">
                    <div class=""question-area"">
                        <p style=""font-size: 20px; font-weight: bold; margin: 0;"">Is there a person in this image?</p>
                    </div>
                </div>","1","main_experiment_trial","2","household_objects_semantic","semantic_sequence_notimeline","chronological","","","","","","",""
"","","","","","html-keyboard-response","168","619889","0.0-168.0","40A913B2738F448281B638762074C110","019d6b0e-176f-7138-8534-8ca25ce56c94","019d6ae6-5d89-74c6-b581-3918d1816346","","null","
                <div class=""stimulus-container"">
                    <img src=""semantic_sequence_notimeline/household_objects_semantic/household_objects_semantic_3.png"" class=""exp-image"">
                    <div class=""question-area""></div> 
                </div>","null","","","","","","","","","","","",""
"","","","","","html-button-response","169","620575","0.0-169.0","40A913B2738F448281B638762074C110","019d6b0e-176f-7138-8534-8ca25ce56c94","019d6ae6-5d89-74c6-b581-3918d1816346","","685","
                <div class=""stimulus-container"">
                    <img src=""semantic_sequence_notimeline/household_objects_semantic/household_objects_semantic_3.png"" class=""exp-image"">
                    <div class=""question-area"">
                        <p style=""font-size: 20px; font-weight: bold; margin: 0;"">Is there a person in this image?</p>
                    </div>
                </div>","1","main_experiment_trial","3","household_objects_semantic","semantic_sequence_notimeline","chronological","","","","","","",""
"","","","","","html-keyboard-response","170","625587","0.0-170.0","40A913B2738F448281B638762074C110","019d6b0e-176f-7138-8534-8ca25ce56c94","019d6ae6-5d89-74c6-b581-3918d1816346","","null","
                <div class=""stimulus-container"">
                    <img src=""semantic_sequence_notimeline/household_objects_semantic/household_objects_semantic_4.png"" class=""exp-image"">
                    <div class=""question-area""></div> 
                </div>","null","","","","","","","","","","","",""
"","","","","","html-button-response","171","626380","0.0-171.0","40A913B2738F448281B638762074C110","019d6b0e-176f-7138-8534-8ca25ce56c94","019d6ae6-5d89-74c6-b581-3918d1816346","","792","
                <div class=""stimulus-container"">
                    <img src=""semantic_sequence_notimeline/household_objects_semantic/household_objects_semantic_4.png"" class=""exp-image"">
                    <div class=""question-area"">
                        <p style=""font-size: 20px; font-weight: bold; margin: 0;"">Is there a person in this image?</p>
                    </div>
                </div>","1","main_experiment_trial","4","household_objects_semantic","semantic_sequence_notimeline","chronological","","","","","","",""
"","","","","","html-keyboard-response","172","631385","0.0-172.0","40A913B2738F448281B638762074C110","019d6b0e-176f-7138-8534-8ca25ce56c94","019d6ae6-5d89-74c6-b581-3918d1816346","","null","
                <div class=""stimulus-container"">
                    <img src=""semantic_sequence_notimeline/household_objects_semantic/household_objects_semantic_5.png"" class=""exp-image"">
                    <div class=""question-area""></div> 
                </div>","null","","","","","","","","","","","",""
"","","","","","html-button-response","173","632137","0.0-173.0","40A913B2738F448281B638762074C110","019d6b0e-176f-7138-8534-8ca25ce56c94","019d6ae6-5d89-74c6-b581-3918d1816346","","752","
                <div class=""stimulus-container"">
                    <img src=""semantic_sequence_notimeline/household_objects_semantic/household_objects_semantic_5.png"" class=""exp-image"">
                    <div class=""question-area"">
                        <p style=""font-size: 20px; font-weight: bold; margin: 0;"">Is there a person in this image?</p>
                    </div>
                </div>","1","main_experiment_trial","5","household_objects_semantic","semantic_sequence_notimeline","chronological","","","","","","",""
"","","","","","html-keyboard-response","174","637144","0.0-174.0","40A913B2738F448281B638762074C110","019d6b0e-176f-7138-8534-8ca25ce56c94","019d6ae6-5d89-74c6-b581-3918d1816346","","null","
                <div class=""stimulus-container"">
                    <img src=""semantic_sequence_notimeline/household_objects_semantic/household_objects_semantic_6.png"" class=""exp-image"">
                    <div class=""question-area""></div> 
                </div>","null","","","","","","","","","","","",""
"","","","","","html-button-response","175","638140","0.0-175.0","40A913B2738F448281B638762074C110","019d6b0e-176f-7138-8534-8ca25ce56c94","019d6ae6-5d89-74c6-b581-3918d1816346","","995","
                <div class=""stimulus-container"">
                    <img src=""semantic_sequence_notimeline/household_objects_semantic/household_objects_semantic_6.png"" class=""exp-image"">
                    <div class=""question-area"">
                        <p style=""font-size: 20px; font-weight: bold; margin: 0;"">Is there a person in this image?</p>
                    </div>
                </div>","1","main_experiment_trial","6","household_objects_semantic","semantic_sequence_notimeline","chronological","","","","","","",""
"","","","","","html-keyboard-response","176","643144","0.0-176.0","40A913B2738F448281B638762074C110","019d6b0e-176f-7138-8534-8ca25ce56c94","019d6ae6-5d89-74c6-b581-3918d1816346","","null","
                <div class=""stimulus-container"">
                    <img src=""semantic_sequence_notimeline/household_objects_semantic/household_objects_semantic_7.png"" class=""exp-image"">
                    <div class=""question-area""></div> 
                </div>","null","","","","","","","","","","","",""
