"success","timeout","failed_images","failed_audio","failed_video","trial_type","trial_index","time_elapsed","internal_node_id","subject_id","study_id","session_id","view_history","rt","stimulus","response","task","image_index","folder","sequence_type","valuable_image_index","reward_type","correct_choice","chosen_image_index","target_X"
"true","false","[]","[]","[]","preload","0","13103","0.0-0.0","C152898DAD204657BC941834FCB72560","019cf530-3d17-780a-a954-6e425253e37f","019cf509-e3f1-72d9-bf6b-e2f1118fdaab","","","","","","","","","","","","",""
"","","","","","instructions","1","36456","0.0-1.0","C152898DAD204657BC941834FCB72560","019cf530-3d17-780a-a954-6e425253e37f","019cf509-e3f1-72d9-bf6b-e2f1118fdaab","[{""page_index"":0,""viewing_time"":23353}]","23353","","","","","","","","","","",""
"","","","","","instructions","2","61880","0.0-2.0","C152898DAD204657BC941834FCB72560","019cf530-3d17-780a-a954-6e425253e37f","019cf509-e3f1-72d9-bf6b-e2f1118fdaab","[{""page_index"":0,""viewing_time"":25418}]","25423","","","","","","","","","","",""
"true","","","","","fullscreen","3","65801","0.0-3.0","C152898DAD204657BC941834FCB72560","019cf530-3d17-780a-a954-6e425253e37f","019cf509-e3f1-72d9-bf6b-e2f1118fdaab","","2918","","","","","","","","","","",""
"","","","","","instructions","4","90396","0.0-4.0","C152898DAD204657BC941834FCB72560","019cf530-3d17-780a-a954-6e425253e37f","019cf509-e3f1-72d9-bf6b-e2f1118fdaab","[{""page_index"":0,""viewing_time"":24594}]","24594","","","","","","","","","","",""
"","","","","","instructions","5","111247","0.0-5.0","C152898DAD204657BC941834FCB72560","019cf530-3d17-780a-a954-6e425253e37f","019cf509-e3f1-72d9-bf6b-e2f1118fdaab","[{""page_index"":0,""viewing_time"":20851}]","20851","","","","","","","","","","",""
"","","","","","html-keyboard-response","6","115249","0.0-6.0","C152898DAD204657BC941834FCB72560","019cf530-3d17-780a-a954-6e425253e37f","019cf509-e3f1-72d9-bf6b-e2f1118fdaab","","null","
                <div class=""stimulus-container"">
                    <img src=""images/instructions/movie_1.png"" class=""exp-image"">
                    <div class=""question-area""></div> 
                </div>","null","","","","","","","","",""
"","","","","","html-button-response","7","118251","0.0-7.0","C152898DAD204657BC941834FCB72560","019cf530-3d17-780a-a954-6e425253e37f","019cf509-e3f1-72d9-bf6b-e2f1118fdaab","","null","
                <div class=""stimulus-container"">
                    <img src=""images/instructions/movie_1.png"" class=""exp-image"">
                    <div class=""question-area"">
                        <p style=""font-size: 20px; font-weight: bold; margin: 0;"">Was there a person in this image?</p>
                    </div>
                </div>","null","example_question","1","","","","","","",""
"","","","","","html-keyboard-response","8","122253","0.0-8.0","C152898DAD204657BC941834FCB72560","019cf530-3d17-780a-a954-6e425253e37f","019cf509-e3f1-72d9-bf6b-e2f1118fdaab","","null","
                <div class=""stimulus-container"">
                    <img src=""images/instructions/movie_2.png"" class=""exp-image"">
                    <div class=""question-area""></div> 
                </div>","null","","","","","","","","",""
"","","","","","html-button-response","9","123071","0.0-9.0","C152898DAD204657BC941834FCB72560","019cf530-3d17-780a-a954-6e425253e37f","019cf509-e3f1-72d9-bf6b-e2f1118fdaab","","818","
                <div class=""stimulus-container"">
                    <img src=""images/instructions/movie_2.png"" class=""exp-image"">
                    <div class=""question-area"">
                        <p style=""font-size: 20px; font-weight: bold; margin: 0;"">Was there a person in this image?</p>
                    </div>
                </div>","1","example_question","2","","","","","","",""
"","","","","","html-keyboard-response","10","127072","0.0-10.0","C152898DAD204657BC941834FCB72560","019cf530-3d17-780a-a954-6e425253e37f","019cf509-e3f1-72d9-bf6b-e2f1118fdaab","","null","
                <div class=""stimulus-container"">
                    <img src=""images/instructions/movie_3.png"" class=""exp-image"">
                    <div class=""question-area""></div> 
                </div>","null","","","","","","","","",""
"","","","","","html-button-response","11","127831","0.0-11.0","C152898DAD204657BC941834FCB72560","019cf530-3d17-780a-a954-6e425253e37f","019cf509-e3f1-72d9-bf6b-e2f1118fdaab","","758","
                <div class=""stimulus-container"">
                    <img src=""images/instructions/movie_3.png"" class=""exp-image"">
                    <div class=""question-area"">
                        <p style=""font-size: 20px; font-weight: bold; margin: 0;"">Was there a person in this image?</p>
                    </div>
                </div>","0","example_question","3","","","","","","",""
"","","","","","html-keyboard-response","12","131833","0.0-12.0","C152898DAD204657BC941834FCB72560","019cf530-3d17-780a-a954-6e425253e37f","019cf509-e3f1-72d9-bf6b-e2f1118fdaab","","null","
                <div class=""stimulus-container"">
                    <img src=""images/instructions/movie_4.png"" class=""exp-image"">
                    <div class=""question-area""></div> 
                </div>","null","","","","","","","","",""
"","","","","","html-button-response","13","132600","0.0-13.0","C152898DAD204657BC941834FCB72560","019cf530-3d17-780a-a954-6e425253e37f","019cf509-e3f1-72d9-bf6b-e2f1118fdaab","","767","
                <div class=""stimulus-container"">
                    <img src=""images/instructions/movie_4.png"" class=""exp-image"">
                    <div class=""question-area"">
                        <p style=""font-size: 20px; font-weight: bold; margin: 0;"">Was there a person in this image?</p>
                    </div>
                </div>","0","example_question","4","","","","","","",""
"","","","","","instructions","14","135062","0.0-14.0","C152898DAD204657BC941834FCB72560","019cf530-3d17-780a-a954-6e425253e37f","019cf509-e3f1-72d9-bf6b-e2f1118fdaab","[{""page_index"":0,""viewing_time"":2462}]","2462","","","","","","","","","","",""
"","","","","","instructions","15","148647","0.0-15.0","C152898DAD204657BC941834FCB72560","019cf530-3d17-780a-a954-6e425253e37f","019cf509-e3f1-72d9-bf6b-e2f1118fdaab","[{""page_index"":0,""viewing_time"":13585}]","13585","","","","","","","","","","",""
"","","","","","html-keyboard-response","16","149648","0.0-16.0","C152898DAD204657BC941834FCB72560","019cf530-3d17-780a-a954-6e425253e37f","019cf509-e3f1-72d9-bf6b-e2f1118fdaab","","null","<div style=""background-color: white; width: 100vw; height: 100vh;""></div>","null","","","","","","","","",""
"","","","","","html-keyboard-response","17","154650","0.0-17.0","C152898DAD204657BC941834FCB72560","019cf530-3d17-780a-a954-6e425253e37f","019cf509-e3f1-72d9-bf6b-e2f1118fdaab","","null","
                <div class=""stimulus-container"">
                    <img src=""images/causal_sequence/package_causal/package_causal_1.png"" class=""exp-image"">
                    <div class=""question-area""></div> 
                </div>","null","","","","","","","","",""
"","","","","","html-button-response","18","155414","0.0-18.0","C152898DAD204657BC941834FCB72560","019cf530-3d17-780a-a954-6e425253e37f","019cf509-e3f1-72d9-bf6b-e2f1118fdaab","","764","
                <div class=""stimulus-container"">
                    <img src=""images/causal_sequence/package_causal/package_causal_1.png"" class=""exp-image"">
                    <div class=""question-area"">
                        <p style=""font-size: 20px; font-weight: bold; margin: 0;"">Is there a person in this image?</p>
                    </div>
                </div>","0","main_experiment_trial","1","package_causal","causal_sequence","","","","",""
"","","","","","html-keyboard-response","19","160415","0.0-19.0","C152898DAD204657BC941834FCB72560","019cf530-3d17-780a-a954-6e425253e37f","019cf509-e3f1-72d9-bf6b-e2f1118fdaab","","null","
                <div class=""stimulus-container"">
                    <img src=""images/causal_sequence/package_causal/package_causal_2.png"" class=""exp-image"">
                    <div class=""question-area""></div> 
                </div>","null","","","","","","","","",""
"","","","","","html-button-response","20","161292","0.0-20.0","C152898DAD204657BC941834FCB72560","019cf530-3d17-780a-a954-6e425253e37f","019cf509-e3f1-72d9-bf6b-e2f1118fdaab","","876","
                <div class=""stimulus-container"">
                    <img src=""images/causal_sequence/package_causal/package_causal_2.png"" class=""exp-image"">
                    <div class=""question-area"">
                        <p style=""font-size: 20px; font-weight: bold; margin: 0;"">Is there a person in this image?</p>
                    </div>
                </div>","0","main_experiment_trial","2","package_causal","causal_sequence","","","","",""
"","","","","","html-keyboard-response","21","166294","0.0-21.0","C152898DAD204657BC941834FCB72560","019cf530-3d17-780a-a954-6e425253e37f","019cf509-e3f1-72d9-bf6b-e2f1118fdaab","","null","
                <div class=""stimulus-container"">
                    <img src=""images/causal_sequence/package_causal/package_causal_3.png"" class=""exp-image"">
                    <div class=""question-area""></div> 
                </div>","null","","","","","","","","",""
"","","","","","html-button-response","22","167171","0.0-22.0","C152898DAD204657BC941834FCB72560","019cf530-3d17-780a-a954-6e425253e37f","019cf509-e3f1-72d9-bf6b-e2f1118fdaab","","876","
                <div class=""stimulus-container"">
                    <img src=""images/causal_sequence/package_causal/package_causal_3.png"" class=""exp-image"">
                    <div class=""question-area"">
                        <p style=""font-size: 20px; font-weight: bold; margin: 0;"">Is there a person in this image?</p>
                    </div>
                </div>","0","main_experiment_trial","3","package_causal","causal_sequence","","","","",""
"","","","","","html-keyboard-response","23","172172","0.0-23.0","C152898DAD204657BC941834FCB72560","019cf530-3d17-780a-a954-6e425253e37f","019cf509-e3f1-72d9-bf6b-e2f1118fdaab","","null","
                <div class=""stimulus-container"">
                    <img src=""images/causal_sequence/package_causal/package_causal_4.png"" class=""exp-image"">
                    <div class=""question-area""></div> 
                </div>","null","","","","","","","","",""
"","","","","","html-button-response","24","172799","0.0-24.0","C152898DAD204657BC941834FCB72560","019cf530-3d17-780a-a954-6e425253e37f","019cf509-e3f1-72d9-bf6b-e2f1118fdaab","","626","
                <div class=""stimulus-container"">
                    <img src=""images/causal_sequence/package_causal/package_causal_4.png"" class=""exp-image"">
                    <div class=""question-area"">
                        <p style=""font-size: 20px; font-weight: bold; margin: 0;"">Is there a person in this image?</p>
                    </div>
                </div>","1","main_experiment_trial","4","package_causal","causal_sequence","","","","",""
"","","","","","html-keyboard-response","25","177800","0.0-25.0","C152898DAD204657BC941834FCB72560","019cf530-3d17-780a-a954-6e425253e37f","019cf509-e3f1-72d9-bf6b-e2f1118fdaab","","null","
                <div class=""stimulus-container"">
                    <img src=""images/causal_sequence/package_causal/package_causal_5.png"" class=""exp-image"">
                    <div class=""question-area""></div> 
                </div>","null","","","","","","","","",""
"","","","","","html-button-response","26","178578","0.0-26.0","C152898DAD204657BC941834FCB72560","019cf530-3d17-780a-a954-6e425253e37f","019cf509-e3f1-72d9-bf6b-e2f1118fdaab","","777","
                <div class=""stimulus-container"">
                    <img src=""images/causal_sequence/package_causal/package_causal_5.png"" class=""exp-image"">
                    <div class=""question-area"">
                        <p style=""font-size: 20px; font-weight: bold; margin: 0;"">Is there a person in this image?</p>
                    </div>
                </div>","0","main_experiment_trial","5","package_causal","causal_sequence","","","","",""
"","","","","","html-keyboard-response","27","183579","0.0-27.0","C152898DAD204657BC941834FCB72560","019cf530-3d17-780a-a954-6e425253e37f","019cf509-e3f1-72d9-bf6b-e2f1118fdaab","","null","
                <div class=""stimulus-container"">
                    <img src=""images/causal_sequence/package_causal/package_causal_6.png"" class=""exp-image"">
                    <div class=""question-area""></div> 
                </div>","null","","","","","","","","",""
"","","","","","html-button-response","28","184090","0.0-28.0","C152898DAD204657BC941834FCB72560","019cf530-3d17-780a-a954-6e425253e37f","019cf509-e3f1-72d9-bf6b-e2f1118fdaab","","510","
                <div class=""stimulus-container"">
                    <img src=""images/causal_sequence/package_causal/package_causal_6.png"" class=""exp-image"">
                    <div class=""question-area"">
                        <p style=""font-size: 20px; font-weight: bold; margin: 0;"">Is there a person in this image?</p>
                    </div>
                </div>","0","main_experiment_trial","6","package_causal","causal_sequence","","","","",""
"","","","","","html-keyboard-response","29","189092","0.0-29.0","C152898DAD204657BC941834FCB72560","019cf530-3d17-780a-a954-6e425253e37f","019cf509-e3f1-72d9-bf6b-e2f1118fdaab","","null","
                <div class=""stimulus-container"">
                    <img src=""images/causal_sequence/package_causal/package_causal_7.png"" class=""exp-image"">
                    <div class=""question-area""></div> 
                </div>","null","","","","","","","","",""
"","","","","","html-button-response","30","189619","0.0-30.0","C152898DAD204657BC941834FCB72560","019cf530-3d17-780a-a954-6e425253e37f","019cf509-e3f1-72d9-bf6b-e2f1118fdaab","","527","
                <div class=""stimulus-container"">
                    <img src=""images/causal_sequence/package_causal/package_causal_7.png"" class=""exp-image"">
                    <div class=""question-area"">
                        <p style=""font-size: 20px; font-weight: bold; margin: 0;"">Is there a person in this image?</p>
                    </div>
                </div>","0","main_experiment_trial","7","package_causal","causal_sequence","","","","",""
"","","","","","html-keyboard-response","31","194620","0.0-31.0","C152898DAD204657BC941834FCB72560","019cf530-3d17-780a-a954-6e425253e37f","019cf509-e3f1-72d9-bf6b-e2f1118fdaab","","null","
                <div class=""stimulus-container"">
                    <img src=""images/causal_sequence/package_causal/package_causal_8.png"" class=""exp-image"">
                    <div class=""question-area""></div> 
                </div>","null","","","","","","","","",""
"","","","","","html-button-response","32","195227","0.0-32.0","C152898DAD204657BC941834FCB72560","019cf530-3d17-780a-a954-6e425253e37f","019cf509-e3f1-72d9-bf6b-e2f1118fdaab","","605","
                <div class=""stimulus-container"">
                    <img src=""images/causal_sequence/package_causal/package_causal_8.png"" class=""exp-image"">
                    <div class=""question-area"">
                        <p style=""font-size: 20px; font-weight: bold; margin: 0;"">Is there a person in this image?</p>
                    </div>
                </div>","0","main_experiment_trial","8","package_causal","causal_sequence","","","","",""
"","","","","","html-keyboard-response","33","200228","0.0-33.0","C152898DAD204657BC941834FCB72560","019cf530-3d17-780a-a954-6e425253e37f","019cf509-e3f1-72d9-bf6b-e2f1118fdaab","","null","
                <div class=""stimulus-container"">
                    <img src=""images/causal_sequence/package_causal/package_causal_9.png"" class=""exp-image"">
                    <div class=""question-area""></div> 
                </div>","null","","","","","","","","",""
"","","","","","html-button-response","34","200800","0.0-34.0","C152898DAD204657BC941834FCB72560","019cf530-3d17-780a-a954-6e425253e37f","019cf509-e3f1-72d9-bf6b-e2f1118fdaab","","570","
                <div class=""stimulus-container"">
                    <img src=""images/causal_sequence/package_causal/package_causal_9.png"" class=""exp-image"">
                    <div class=""question-area"">
                        <p style=""font-size: 20px; font-weight: bold; margin: 0;"">Is there a person in this image?</p>
                    </div>
                </div>","0","main_experiment_trial","9","package_causal","causal_sequence","","","","",""
"","","","","","html-keyboard-response","35","205801","0.0-35.0","C152898DAD204657BC941834FCB72560","019cf530-3d17-780a-a954-6e425253e37f","019cf509-e3f1-72d9-bf6b-e2f1118fdaab","","null","
                <div class=""stimulus-container"">
                    <img src=""images/causal_sequence/package_causal/package_causal_ten.png"" class=""exp-image"">
                    <div class=""question-area""></div> 
                </div>","null","","","","","","","","",""
"","","","","","html-button-response","36","206612","0.0-36.0","C152898DAD204657BC941834FCB72560","019cf530-3d17-780a-a954-6e425253e37f","019cf509-e3f1-72d9-bf6b-e2f1118fdaab","","810","
                <div class=""stimulus-container"">
                    <img src=""images/causal_sequence/package_causal/package_causal_ten.png"" class=""exp-image"">
                    <div class=""question-area"">
                        <p style=""font-size: 20px; font-weight: bold; margin: 0;"">Is there a person in this image?</p>
                    </div>
                </div>","0","main_experiment_trial","ten","package_causal","causal_sequence","","","","",""
"","","","","","html-keyboard-response","37","207613","0.0-37.0","C152898DAD204657BC941834FCB72560","019cf530-3d17-780a-a954-6e425253e37f","019cf509-e3f1-72d9-bf6b-e2f1118fdaab","","null","<div style=""background-color: white; width: 100vw; height: 100vh;""></div>","null","","","","","","","","",""
"","","","","","html-keyboard-response","38","212614","0.0-38.0","C152898DAD204657BC941834FCB72560","019cf530-3d17-780a-a954-6e425253e37f","019cf509-e3f1-72d9-bf6b-e2f1118fdaab","","null","
                <div class=""stimulus-container"">
                    <img src=""images/causal_sequence/coin_causal/coin_causal_1.png"" class=""exp-image"">
                    <div class=""question-area""></div> 
                </div>","null","","","","","","","","",""
"","","","","","html-button-response","39","213160","0.0-39.0","C152898DAD204657BC941834FCB72560","019cf530-3d17-780a-a954-6e425253e37f","019cf509-e3f1-72d9-bf6b-e2f1118fdaab","","545","
                <div class=""stimulus-container"">
                    <img src=""images/causal_sequence/coin_causal/coin_causal_1.png"" class=""exp-image"">
                    <div class=""question-area"">
                        <p style=""font-size: 20px; font-weight: bold; margin: 0;"">Is there a person in this image?</p>
                    </div>
                </div>","0","main_experiment_trial","1","coin_causal","causal_sequence","","","","",""
"","","","","","html-keyboard-response","40","218162","0.0-40.0","C152898DAD204657BC941834FCB72560","019cf530-3d17-780a-a954-6e425253e37f","019cf509-e3f1-72d9-bf6b-e2f1118fdaab","","null","
                <div class=""stimulus-container"">
                    <img src=""images/causal_sequence/coin_causal/coin_causal_2.png"" class=""exp-image"">
                    <div class=""question-area""></div> 
                </div>","null","","","","","","","","",""
"","","","","","html-button-response","41","218905","0.0-41.0","C152898DAD204657BC941834FCB72560","019cf530-3d17-780a-a954-6e425253e37f","019cf509-e3f1-72d9-bf6b-e2f1118fdaab","","743","
                <div class=""stimulus-container"">
                    <img src=""images/causal_sequence/coin_causal/coin_causal_2.png"" class=""exp-image"">
                    <div class=""question-area"">
                        <p style=""font-size: 20px; font-weight: bold; margin: 0;"">Is there a person in this image?</p>
                    </div>
                </div>","0","main_experiment_trial","2","coin_causal","causal_sequence","","","","",""
"","","","","","html-keyboard-response","42","223907","0.0-42.0","C152898DAD204657BC941834FCB72560","019cf530-3d17-780a-a954-6e425253e37f","019cf509-e3f1-72d9-bf6b-e2f1118fdaab","","null","
                <div class=""stimulus-container"">
                    <img src=""images/causal_sequence/coin_causal/coin_causal_3.png"" class=""exp-image"">
                    <div class=""question-area""></div> 
                </div>","null","","","","","","","","",""
"","","","","","html-button-response","43","224684","0.0-43.0","C152898DAD204657BC941834FCB72560","019cf530-3d17-780a-a954-6e425253e37f","019cf509-e3f1-72d9-bf6b-e2f1118fdaab","","777","
                <div class=""stimulus-container"">
                    <img src=""images/causal_sequence/coin_causal/coin_causal_3.png"" class=""exp-image"">
                    <div class=""question-area"">
                        <p style=""font-size: 20px; font-weight: bold; margin: 0;"">Is there a person in this image?</p>
                    </div>
                </div>","0","main_experiment_trial","3","coin_causal","causal_sequence","","","","",""
"","","","","","html-keyboard-response","44","229685","0.0-44.0","C152898DAD204657BC941834FCB72560","019cf530-3d17-780a-a954-6e425253e37f","019cf509-e3f1-72d9-bf6b-e2f1118fdaab","","null","
                <div class=""stimulus-container"">
                    <img src=""images/causal_sequence/coin_causal/coin_causal_4.png"" class=""exp-image"">
                    <div class=""question-area""></div> 
                </div>","null","","","","","","","","",""
"","","","","","html-button-response","45","230333","0.0-45.0","C152898DAD204657BC941834FCB72560","019cf530-3d17-780a-a954-6e425253e37f","019cf509-e3f1-72d9-bf6b-e2f1118fdaab","","648","
                <div class=""stimulus-container"">
                    <img src=""images/causal_sequence/coin_causal/coin_causal_4.png"" class=""exp-image"">
                    <div class=""question-area"">
                        <p style=""font-size: 20px; font-weight: bold; margin: 0;"">Is there a person in this image?</p>
                    </div>
                </div>","0","main_experiment_trial","4","coin_causal","causal_sequence","","","","",""
"","","","","","html-keyboard-response","46","235335","0.0-46.0","C152898DAD204657BC941834FCB72560","019cf530-3d17-780a-a954-6e425253e37f","019cf509-e3f1-72d9-bf6b-e2f1118fdaab","","null","
                <div class=""stimulus-container"">
                    <img src=""images/causal_sequence/coin_causal/coin_causal_5.png"" class=""exp-image"">
                    <div class=""question-area""></div> 
                </div>","null","","","","","","","","",""
"","","","","","html-button-response","47","235895","0.0-47.0","C152898DAD204657BC941834FCB72560","019cf530-3d17-780a-a954-6e425253e37f","019cf509-e3f1-72d9-bf6b-e2f1118fdaab","","559","
                <div class=""stimulus-container"">
                    <img src=""images/causal_sequence/coin_causal/coin_causal_5.png"" class=""exp-image"">
                    <div class=""question-area"">
                        <p style=""font-size: 20px; font-weight: bold; margin: 0;"">Is there a person in this image?</p>
                    </div>
                </div>","0","main_experiment_trial","5","coin_causal","causal_sequence","","","","",""
"","","","","","html-keyboard-response","48","240897","0.0-48.0","C152898DAD204657BC941834FCB72560","019cf530-3d17-780a-a954-6e425253e37f","019cf509-e3f1-72d9-bf6b-e2f1118fdaab","","null","
                <div class=""stimulus-container"">
                    <img src=""images/causal_sequence/coin_causal/coin_causal_6.png"" class=""exp-image"">
                    <div class=""question-area""></div> 
                </div>","null","","","","","","","","",""
"","","","","","html-button-response","49","241374","0.0-49.0","C152898DAD204657BC941834FCB72560","019cf530-3d17-780a-a954-6e425253e37f","019cf509-e3f1-72d9-bf6b-e2f1118fdaab","","476","
                <div class=""stimulus-container"">
                    <img src=""images/causal_sequence/coin_causal/coin_causal_6.png"" class=""exp-image"">
                    <div class=""question-area"">
                        <p style=""font-size: 20px; font-weight: bold; margin: 0;"">Is there a person in this image?</p>
                    </div>
                </div>","0","main_experiment_trial","6","coin_causal","causal_sequence","","","","",""
"","","","","","html-keyboard-response","50","246375","0.0-50.0","C152898DAD204657BC941834FCB72560","019cf530-3d17-780a-a954-6e425253e37f","019cf509-e3f1-72d9-bf6b-e2f1118fdaab","","null","
                <div class=""stimulus-container"">
                    <img src=""images/causal_sequence/coin_causal/coin_causal_7.png"" class=""exp-image"">
                    <div class=""question-area""></div> 
                </div>","null","","","","","","","","",""
"","","","","","html-button-response","51","247050","0.0-51.0","C152898DAD204657BC941834FCB72560","019cf530-3d17-780a-a954-6e425253e37f","019cf509-e3f1-72d9-bf6b-e2f1118fdaab","","674","
                <div class=""stimulus-container"">
                    <img src=""images/causal_sequence/coin_causal/coin_causal_7.png"" class=""exp-image"">
                    <div class=""question-area"">
                        <p style=""font-size: 20px; font-weight: bold; margin: 0;"">Is there a person in this image?</p>
                    </div>
                </div>","1","main_experiment_trial","7","coin_causal","causal_sequence","","","","",""
"","","","","","html-keyboard-response","52","252052","0.0-52.0","C152898DAD204657BC941834FCB72560","019cf530-3d17-780a-a954-6e425253e37f","019cf509-e3f1-72d9-bf6b-e2f1118fdaab","","null","
                <div class=""stimulus-container"">
                    <img src=""images/causal_sequence/coin_causal/coin_causal_8.png"" class=""exp-image"">
                    <div class=""question-area""></div> 
                </div>","null","","","","","","","","",""
"","","","","","html-button-response","53","252578","0.0-53.0","C152898DAD204657BC941834FCB72560","019cf530-3d17-780a-a954-6e425253e37f","019cf509-e3f1-72d9-bf6b-e2f1118fdaab","","525","
                <div class=""stimulus-container"">
                    <img src=""images/causal_sequence/coin_causal/coin_causal_8.png"" class=""exp-image"">
                    <div class=""question-area"">
                        <p style=""font-size: 20px; font-weight: bold; margin: 0;"">Is there a person in this image?</p>
                    </div>
                </div>","0","main_experiment_trial","8","coin_causal","causal_sequence","","","","",""
"","","","","","html-keyboard-response","54","257579","0.0-54.0","C152898DAD204657BC941834FCB72560","019cf530-3d17-780a-a954-6e425253e37f","019cf509-e3f1-72d9-bf6b-e2f1118fdaab","","null","
                <div class=""stimulus-container"">
                    <img src=""images/causal_sequence/coin_causal/coin_causal_9.png"" class=""exp-image"">
                    <div class=""question-area""></div> 
                </div>","null","","","","","","","","",""
"","","","","","html-button-response","55","258224","0.0-55.0","C152898DAD204657BC941834FCB72560","019cf530-3d17-780a-a954-6e425253e37f","019cf509-e3f1-72d9-bf6b-e2f1118fdaab","","644","
                <div class=""stimulus-container"">
                    <img src=""images/causal_sequence/coin_causal/coin_causal_9.png"" class=""exp-image"">
                    <div class=""question-area"">
                        <p style=""font-size: 20px; font-weight: bold; margin: 0;"">Is there a person in this image?</p>
                    </div>
                </div>","0","main_experiment_trial","9","coin_causal","causal_sequence","","","","",""
"","","","","","html-keyboard-response","56","263225","0.0-56.0","C152898DAD204657BC941834FCB72560","019cf530-3d17-780a-a954-6e425253e37f","019cf509-e3f1-72d9-bf6b-e2f1118fdaab","","null","
                <div class=""stimulus-container"">
                    <img src=""images/causal_sequence/coin_causal/coin_causal_ten.png"" class=""exp-image"">
                    <div class=""question-area""></div> 
                </div>","null","","","","","","","","",""
"","","","","","html-button-response","57","263969","0.0-57.0","C152898DAD204657BC941834FCB72560","019cf530-3d17-780a-a954-6e425253e37f","019cf509-e3f1-72d9-bf6b-e2f1118fdaab","","744","
                <div class=""stimulus-container"">
                    <img src=""images/causal_sequence/coin_causal/coin_causal_ten.png"" class=""exp-image"">
                    <div class=""question-area"">
                        <p style=""font-size: 20px; font-weight: bold; margin: 0;"">Is there a person in this image?</p>
                    </div>
                </div>","0","main_experiment_trial","ten","coin_causal","causal_sequence","","","","",""
"","","","","","html-keyboard-response","58","264971","0.0-58.0","C152898DAD204657BC941834FCB72560","019cf530-3d17-780a-a954-6e425253e37f","019cf509-e3f1-72d9-bf6b-e2f1118fdaab","","null","<div style=""background-color: white; width: 100vw; height: 100vh;""></div>","null","","","","","","","","",""
"","","","","","html-keyboard-response","59","269972","0.0-59.0","C152898DAD204657BC941834FCB72560","019cf530-3d17-780a-a954-6e425253e37f","019cf509-e3f1-72d9-bf6b-e2f1118fdaab","","null","
                <div class=""stimulus-container"">
                    <img src=""images/schematic_sequence/hotel_scheme/hotel_scheme_1.png"" class=""exp-image"">
                    <div class=""question-area""></div> 
                </div>","null","","","","","","","","",""
"","","","","","html-button-response","60","270677","0.0-60.0","C152898DAD204657BC941834FCB72560","019cf530-3d17-780a-a954-6e425253e37f","019cf509-e3f1-72d9-bf6b-e2f1118fdaab","","705","
                <div class=""stimulus-container"">
                    <img src=""images/schematic_sequence/hotel_scheme/hotel_scheme_1.png"" class=""exp-image"">
                    <div class=""question-area"">
                        <p style=""font-size: 20px; font-weight: bold; margin: 0;"">Is there a person in this image?</p>
                    </div>
                </div>","1","main_experiment_trial","1","hotel_scheme","schematic_sequence","","","","",""
"","","","","","html-keyboard-response","61","275679","0.0-61.0","C152898DAD204657BC941834FCB72560","019cf530-3d17-780a-a954-6e425253e37f","019cf509-e3f1-72d9-bf6b-e2f1118fdaab","","null","
                <div class=""stimulus-container"">
                    <img src=""images/schematic_sequence/hotel_scheme/hotel_scheme_2.png"" class=""exp-image"">
                    <div class=""question-area""></div> 
                </div>","null","","","","","","","","",""
"","","","","","html-button-response","62","276223","0.0-62.0","C152898DAD204657BC941834FCB72560","019cf530-3d17-780a-a954-6e425253e37f","019cf509-e3f1-72d9-bf6b-e2f1118fdaab","","544","
                <div class=""stimulus-container"">
                    <img src=""images/schematic_sequence/hotel_scheme/hotel_scheme_2.png"" class=""exp-image"">
                    <div class=""question-area"">
                        <p style=""font-size: 20px; font-weight: bold; margin: 0;"">Is there a person in this image?</p>
                    </div>
                </div>","0","main_experiment_trial","2","hotel_scheme","schematic_sequence","","","","",""
"","","","","","html-keyboard-response","63","281224","0.0-63.0","C152898DAD204657BC941834FCB72560","019cf530-3d17-780a-a954-6e425253e37f","019cf509-e3f1-72d9-bf6b-e2f1118fdaab","","null","
                <div class=""stimulus-container"">
                    <img src=""images/schematic_sequence/hotel_scheme/hotel_scheme_3.png"" class=""exp-image"">
                    <div class=""question-area""></div> 
                </div>","null","","","","","","","","",""
"","","","","","html-button-response","64","281752","0.0-64.0","C152898DAD204657BC941834FCB72560","019cf530-3d17-780a-a954-6e425253e37f","019cf509-e3f1-72d9-bf6b-e2f1118fdaab","","527","
                <div class=""stimulus-container"">
                    <img src=""images/schematic_sequence/hotel_scheme/hotel_scheme_3.png"" class=""exp-image"">
                    <div class=""question-area"">
                        <p style=""font-size: 20px; font-weight: bold; margin: 0;"">Is there a person in this image?</p>
                    </div>
                </div>","0","main_experiment_trial","3","hotel_scheme","schematic_sequence","","","","",""
"","","","","","html-keyboard-response","65","286753","0.0-65.0","C152898DAD204657BC941834FCB72560","019cf530-3d17-780a-a954-6e425253e37f","019cf509-e3f1-72d9-bf6b-e2f1118fdaab","","null","
                <div class=""stimulus-container"">
                    <img src=""images/schematic_sequence/hotel_scheme/hotel_scheme_4.png"" class=""exp-image"">
                    <div class=""question-area""></div> 
                </div>","null","","","","","","","","",""
"","","","","","html-button-response","66","287344","0.0-66.0","C152898DAD204657BC941834FCB72560","019cf530-3d17-780a-a954-6e425253e37f","019cf509-e3f1-72d9-bf6b-e2f1118fdaab","","591","
                <div class=""stimulus-container"">
                    <img src=""images/schematic_sequence/hotel_scheme/hotel_scheme_4.png"" class=""exp-image"">
                    <div class=""question-area"">
                        <p style=""font-size: 20px; font-weight: bold; margin: 0;"">Is there a person in this image?</p>
                    </div>
                </div>","1","main_experiment_trial","4","hotel_scheme","schematic_sequence","","","","",""
"","","","","","html-keyboard-response","67","292346","0.0-67.0","C152898DAD204657BC941834FCB72560","019cf530-3d17-780a-a954-6e425253e37f","019cf509-e3f1-72d9-bf6b-e2f1118fdaab","","null","
                <div class=""stimulus-container"">
                    <img src=""images/schematic_sequence/hotel_scheme/hotel_scheme_5.png"" class=""exp-image"">
                    <div class=""question-area""></div> 
                </div>","null","","","","","","","","",""
"","","","","","html-button-response","68","292940","0.0-68.0","C152898DAD204657BC941834FCB72560","019cf530-3d17-780a-a954-6e425253e37f","019cf509-e3f1-72d9-bf6b-e2f1118fdaab","","594","
                <div class=""stimulus-container"">
                    <img src=""images/schematic_sequence/hotel_scheme/hotel_scheme_5.png"" class=""exp-image"">
                    <div class=""question-area"">
                        <p style=""font-size: 20px; font-weight: bold; margin: 0;"">Is there a person in this image?</p>
                    </div>
                </div>","0","main_experiment_trial","5","hotel_scheme","schematic_sequence","","","","",""
"","","","","","html-keyboard-response","69","297942","0.0-69.0","C152898DAD204657BC941834FCB72560","019cf530-3d17-780a-a954-6e425253e37f","019cf509-e3f1-72d9-bf6b-e2f1118fdaab","","null","
                <div class=""stimulus-container"">
                    <img src=""images/schematic_sequence/hotel_scheme/hotel_scheme_6.png"" class=""exp-image"">
                    <div class=""question-area""></div> 
                </div>","null","","","","","","","","",""
"","","","","","html-button-response","70","298503","0.0-70.0","C152898DAD204657BC941834FCB72560","019cf530-3d17-780a-a954-6e425253e37f","019cf509-e3f1-72d9-bf6b-e2f1118fdaab","","560","
                <div class=""stimulus-container"">
                    <img src=""images/schematic_sequence/hotel_scheme/hotel_scheme_6.png"" class=""exp-image"">
                    <div class=""question-area"">
                        <p style=""font-size: 20px; font-weight: bold; margin: 0;"">Is there a person in this image?</p>
                    </div>
                </div>","0","main_experiment_trial","6","hotel_scheme","schematic_sequence","","","","",""
"","","","","","html-keyboard-response","71","303505","0.0-71.0","C152898DAD204657BC941834FCB72560","019cf530-3d17-780a-a954-6e425253e37f","019cf509-e3f1-72d9-bf6b-e2f1118fdaab","","null","
                <div class=""stimulus-container"">
                    <img src=""images/schematic_sequence/hotel_scheme/hotel_scheme_7.png"" class=""exp-image"">
                    <div class=""question-area""></div> 
                </div>","null","","","","","","","","",""
"","","","","","html-button-response","72","304066","0.0-72.0","C152898DAD204657BC941834FCB72560","019cf530-3d17-780a-a954-6e425253e37f","019cf509-e3f1-72d9-bf6b-e2f1118fdaab","","560","
                <div class=""stimulus-container"">
                    <img src=""images/schematic_sequence/hotel_scheme/hotel_scheme_7.png"" class=""exp-image"">
                    <div class=""question-area"">
                        <p style=""font-size: 20px; font-weight: bold; margin: 0;"">Is there a person in this image?</p>
                    </div>
                </div>","0","main_experiment_trial","7","hotel_scheme","schematic_sequence","","","","",""
"","","","","","html-keyboard-response","73","309066","0.0-73.0","C152898DAD204657BC941834FCB72560","019cf530-3d17-780a-a954-6e425253e37f","019cf509-e3f1-72d9-bf6b-e2f1118fdaab","","null","
                <div class=""stimulus-container"">
                    <img src=""images/schematic_sequence/hotel_scheme/hotel_scheme_8.png"" class=""exp-image"">
                    <div class=""question-area""></div> 
                </div>","null","","","","","","","","",""
"","","","","","html-button-response","74","309731","0.0-74.0","C152898DAD204657BC941834FCB72560","019cf530-3d17-780a-a954-6e425253e37f","019cf509-e3f1-72d9-bf6b-e2f1118fdaab","","664","
                <div class=""stimulus-container"">
                    <img src=""images/schematic_sequence/hotel_scheme/hotel_scheme_8.png"" class=""exp-image"">
                    <div class=""question-area"">
                        <p style=""font-size: 20px; font-weight: bold; margin: 0;"">Is there a person in this image?</p>
                    </div>
                </div>","0","main_experiment_trial","8","hotel_scheme","schematic_sequence","","","","",""
"","","","","","html-keyboard-response","75","314733","0.0-75.0","C152898DAD204657BC941834FCB72560","019cf530-3d17-780a-a954-6e425253e37f","019cf509-e3f1-72d9-bf6b-e2f1118fdaab","","null","
                <div class=""stimulus-container"">
                    <img src=""images/schematic_sequence/hotel_scheme/hotel_scheme_9.png"" class=""exp-image"">
                    <div class=""question-area""></div> 
                </div>","null","","","","","","","","",""
"","","","","","html-button-response","76","315292","0.0-76.0","C152898DAD204657BC941834FCB72560","019cf530-3d17-780a-a954-6e425253e37f","019cf509-e3f1-72d9-bf6b-e2f1118fdaab","","558","
                <div class=""stimulus-container"">
                    <img src=""images/schematic_sequence/hotel_scheme/hotel_scheme_9.png"" class=""exp-image"">
                    <div class=""question-area"">
                        <p style=""font-size: 20px; font-weight: bold; margin: 0;"">Is there a person in this image?</p>
                    </div>
                </div>","0","main_experiment_trial","9","hotel_scheme","schematic_sequence","","","","",""
"","","","","","html-keyboard-response","77","320293","0.0-77.0","C152898DAD204657BC941834FCB72560","019cf530-3d17-780a-a954-6e425253e37f","019cf509-e3f1-72d9-bf6b-e2f1118fdaab","","null","
                <div class=""stimulus-container"">
                    <img src=""images/schematic_sequence/hotel_scheme/hotel_scheme_ten.png"" class=""exp-image"">
                    <div class=""question-area""></div> 
                </div>","null","","","","","","","","",""
"","","","","","html-button-response","78","320759","0.0-78.0","C152898DAD204657BC941834FCB72560","019cf530-3d17-780a-a954-6e425253e37f","019cf509-e3f1-72d9-bf6b-e2f1118fdaab","","466","
                <div class=""stimulus-container"">
                    <img src=""images/schematic_sequence/hotel_scheme/hotel_scheme_ten.png"" class=""exp-image"">
                    <div class=""question-area"">
                        <p style=""font-size: 20px; font-weight: bold; margin: 0;"">Is there a person in this image?</p>
                    </div>
                </div>","0","main_experiment_trial","ten","hotel_scheme","schematic_sequence","","","","",""
"","","","","","html-keyboard-response","79","321760","0.0-79.0","C152898DAD204657BC941834FCB72560","019cf530-3d17-780a-a954-6e425253e37f","019cf509-e3f1-72d9-bf6b-e2f1118fdaab","","null","<div style=""background-color: white; width: 100vw; height: 100vh;""></div>","null","","","","","","","","",""
"","","","","","html-keyboard-response","80","326762","0.0-80.0","C152898DAD204657BC941834FCB72560","019cf530-3d17-780a-a954-6e425253e37f","019cf509-e3f1-72d9-bf6b-e2f1118fdaab","","null","
                <div class=""stimulus-container"">
                    <img src=""images/causal_sequence/saving_a_cat_causal/saving_a_cat_causal_1.png"" class=""exp-image"">
                    <div class=""question-area""></div> 
                </div>","null","","","","","","","","",""
"","","","","","html-button-response","81","327341","0.0-81.0","C152898DAD204657BC941834FCB72560","019cf530-3d17-780a-a954-6e425253e37f","019cf509-e3f1-72d9-bf6b-e2f1118fdaab","","578","
                <div class=""stimulus-container"">
                    <img src=""images/causal_sequence/saving_a_cat_causal/saving_a_cat_causal_1.png"" class=""exp-image"">
                    <div class=""question-area"">
                        <p style=""font-size: 20px; font-weight: bold; margin: 0;"">Is there a person in this image?</p>
                    </div>
                </div>","0","main_experiment_trial","1","saving_a_cat_causal","causal_sequence","","","","",""
"","","","","","html-keyboard-response","82","332342","0.0-82.0","C152898DAD204657BC941834FCB72560","019cf530-3d17-780a-a954-6e425253e37f","019cf509-e3f1-72d9-bf6b-e2f1118fdaab","","null","
                <div class=""stimulus-container"">
                    <img src=""images/causal_sequence/saving_a_cat_causal/saving_a_cat_causal_2.png"" class=""exp-image"">
                    <div class=""question-area""></div> 
                </div>","null","","","","","","","","",""
"","","","","","html-button-response","83","332893","0.0-83.0","C152898DAD204657BC941834FCB72560","019cf530-3d17-780a-a954-6e425253e37f","019cf509-e3f1-72d9-bf6b-e2f1118fdaab","","551","
                <div class=""stimulus-container"">
                    <img src=""images/causal_sequence/saving_a_cat_causal/saving_a_cat_causal_2.png"" class=""exp-image"">
                    <div class=""question-area"">
                        <p style=""font-size: 20px; font-weight: bold; margin: 0;"">Is there a person in this image?</p>
                    </div>
                </div>","1","main_experiment_trial","2","saving_a_cat_causal","causal_sequence","","","","",""
"","","","","","html-keyboard-response","84","337894","0.0-84.0","C152898DAD204657BC941834FCB72560","019cf530-3d17-780a-a954-6e425253e37f","019cf509-e3f1-72d9-bf6b-e2f1118fdaab","","null","
                <div class=""stimulus-container"">
                    <img src=""images/causal_sequence/saving_a_cat_causal/saving_a_cat_causal_3.png"" class=""exp-image"">
                    <div class=""question-area""></div> 
                </div>","null","","","","","","","","",""
"","","","","","html-button-response","85","338585","0.0-85.0","C152898DAD204657BC941834FCB72560","019cf530-3d17-780a-a954-6e425253e37f","019cf509-e3f1-72d9-bf6b-e2f1118fdaab","","690","
                <div class=""stimulus-container"">
                    <img src=""images/causal_sequence/saving_a_cat_causal/saving_a_cat_causal_3.png"" class=""exp-image"">
                    <div class=""question-area"">
                        <p style=""font-size: 20px; font-weight: bold; margin: 0;"">Is there a person in this image?</p>
                    </div>
                </div>","1","main_experiment_trial","3","saving_a_cat_causal","causal_sequence","","","","",""
"","","","","","html-keyboard-response","86","343586","0.0-86.0","C152898DAD204657BC941834FCB72560","019cf530-3d17-780a-a954-6e425253e37f","019cf509-e3f1-72d9-bf6b-e2f1118fdaab","","null","
                <div class=""stimulus-container"">
                    <img src=""images/causal_sequence/saving_a_cat_causal/saving_a_cat_causal_4.png"" class=""exp-image"">
                    <div class=""question-area""></div> 
                </div>","null","","","","","","","","",""
"","","","","","html-button-response","87","344390","0.0-87.0","C152898DAD204657BC941834FCB72560","019cf530-3d17-780a-a954-6e425253e37f","019cf509-e3f1-72d9-bf6b-e2f1118fdaab","","802","
                <div class=""stimulus-container"">
                    <img src=""images/causal_sequence/saving_a_cat_causal/saving_a_cat_causal_4.png"" class=""exp-image"">
                    <div class=""question-area"">
                        <p style=""font-size: 20px; font-weight: bold; margin: 0;"">Is there a person in this image?</p>
                    </div>
                </div>","0","main_experiment_trial","4","saving_a_cat_causal","causal_sequence","","","","",""
"","","","","","html-keyboard-response","88","349390","0.0-88.0","C152898DAD204657BC941834FCB72560","019cf530-3d17-780a-a954-6e425253e37f","019cf509-e3f1-72d9-bf6b-e2f1118fdaab","","null","
                <div class=""stimulus-container"">
                    <img src=""images/causal_sequence/saving_a_cat_causal/saving_a_cat_causal_5.png"" class=""exp-image"">
                    <div class=""question-area""></div> 
                </div>","null","","","","","","","","",""
"","","","","","html-button-response","89","350065","0.0-89.0","C152898DAD204657BC941834FCB72560","019cf530-3d17-780a-a954-6e425253e37f","019cf509-e3f1-72d9-bf6b-e2f1118fdaab","","674","
                <div class=""stimulus-container"">
                    <img src=""images/causal_sequence/saving_a_cat_causal/saving_a_cat_causal_5.png"" class=""exp-image"">
                    <div class=""question-area"">
                        <p style=""font-size: 20px; font-weight: bold; margin: 0;"">Is there a person in this image?</p>
                    </div>
                </div>","0","main_experiment_trial","5","saving_a_cat_causal","causal_sequence","","","","",""
"","","","","","html-keyboard-response","90","355066","0.0-90.0","C152898DAD204657BC941834FCB72560","019cf530-3d17-780a-a954-6e425253e37f","019cf509-e3f1-72d9-bf6b-e2f1118fdaab","","null","
                <div class=""stimulus-container"">
                    <img src=""images/causal_sequence/saving_a_cat_causal/saving_a_cat_causal_6.png"" class=""exp-image"">
                    <div class=""question-area""></div> 
                </div>","null","","","","","","","","",""
"","","","","","html-button-response","91","355723","0.0-91.0","C152898DAD204657BC941834FCB72560","019cf530-3d17-780a-a954-6e425253e37f","019cf509-e3f1-72d9-bf6b-e2f1118fdaab","","657","
                <div class=""stimulus-container"">
                    <img src=""images/causal_sequence/saving_a_cat_causal/saving_a_cat_causal_6.png"" class=""exp-image"">
                    <div class=""question-area"">
                        <p style=""font-size: 20px; font-weight: bold; margin: 0;"">Is there a person in this image?</p>
                    </div>
                </div>","0","main_experiment_trial","6","saving_a_cat_causal","causal_sequence","","","","",""
"","","","","","html-keyboard-response","92","360724","0.0-92.0","C152898DAD204657BC941834FCB72560","019cf530-3d17-780a-a954-6e425253e37f","019cf509-e3f1-72d9-bf6b-e2f1118fdaab","","null","
                <div class=""stimulus-container"">
                    <img src=""images/causal_sequence/saving_a_cat_causal/saving_a_cat_causal_7.png"" class=""exp-image"">
                    <div class=""question-area""></div> 
                </div>","null","","","","","","","","",""
"","","","","","html-button-response","93","361303","0.0-93.0","C152898DAD204657BC941834FCB72560","019cf530-3d17-780a-a954-6e425253e37f","019cf509-e3f1-72d9-bf6b-e2f1118fdaab","","578","
                <div class=""stimulus-container"">
                    <img src=""images/causal_sequence/saving_a_cat_causal/saving_a_cat_causal_7.png"" class=""exp-image"">
                    <div class=""question-area"">
                        <p style=""font-size: 20px; font-weight: bold; margin: 0;"">Is there a person in this image?</p>
                    </div>
                </div>","0","main_experiment_trial","7","saving_a_cat_causal","causal_sequence","","","","",""
"","","","","","html-keyboard-response","94","366303","0.0-94.0","C152898DAD204657BC941834FCB72560","019cf530-3d17-780a-a954-6e425253e37f","019cf509-e3f1-72d9-bf6b-e2f1118fdaab","","null","
                <div class=""stimulus-container"">
                    <img src=""images/causal_sequence/saving_a_cat_causal/saving_a_cat_causal_8.png"" class=""exp-image"">
                    <div class=""question-area""></div> 
                </div>","null","","","","","","","","",""
"","","","","","html-button-response","95","366882","0.0-95.0","C152898DAD204657BC941834FCB72560","019cf530-3d17-780a-a954-6e425253e37f","019cf509-e3f1-72d9-bf6b-e2f1118fdaab","","578","
                <div class=""stimulus-container"">
                    <img src=""images/causal_sequence/saving_a_cat_causal/saving_a_cat_causal_8.png"" class=""exp-image"">
                    <div class=""question-area"">
                        <p style=""font-size: 20px; font-weight: bold; margin: 0;"">Is there a person in this image?</p>
                    </div>
                </div>","0","main_experiment_trial","8","saving_a_cat_causal","causal_sequence","","","","",""
"","","","","","html-keyboard-response","96","371883","0.0-96.0","C152898DAD204657BC941834FCB72560","019cf530-3d17-780a-a954-6e425253e37f","019cf509-e3f1-72d9-bf6b-e2f1118fdaab","","null","
                <div class=""stimulus-container"">
                    <img src=""images/causal_sequence/saving_a_cat_causal/saving_a_cat_causal_9.png"" class=""exp-image"">
                    <div class=""question-area""></div> 
                </div>","null","","","","","","","","",""
"","","","","","html-button-response","97","372477","0.0-97.0","C152898DAD204657BC941834FCB72560","019cf530-3d17-780a-a954-6e425253e37f","019cf509-e3f1-72d9-bf6b-e2f1118fdaab","","593","
                <div class=""stimulus-container"">
                    <img src=""images/causal_sequence/saving_a_cat_causal/saving_a_cat_causal_9.png"" class=""exp-image"">
                    <div class=""question-area"">
                        <p style=""font-size: 20px; font-weight: bold; margin: 0;"">Is there a person in this image?</p>
                    </div>
                </div>","0","main_experiment_trial","9","saving_a_cat_causal","causal_sequence","","","","",""
"","","","","","html-keyboard-response","98","377478","0.0-98.0","C152898DAD204657BC941834FCB72560","019cf530-3d17-780a-a954-6e425253e37f","019cf509-e3f1-72d9-bf6b-e2f1118fdaab","","null","
                <div class=""stimulus-container"">
                    <img src=""images/causal_sequence/saving_a_cat_causal/saving_a_cat_causal_ten.png"" class=""exp-image"">
                    <div class=""question-area""></div> 
                </div>","null","","","","","","","","",""
"","","","","","html-button-response","99","378109","0.0-99.0","C152898DAD204657BC941834FCB72560","019cf530-3d17-780a-a954-6e425253e37f","019cf509-e3f1-72d9-bf6b-e2f1118fdaab","","631","
                <div class=""stimulus-container"">
                    <img src=""images/causal_sequence/saving_a_cat_causal/saving_a_cat_causal_ten.png"" class=""exp-image"">
                    <div class=""question-area"">
                        <p style=""font-size: 20px; font-weight: bold; margin: 0;"">Is there a person in this image?</p>
                    </div>
                </div>","0","main_experiment_trial","ten","saving_a_cat_causal","causal_sequence","","","","",""
"","","","","","html-keyboard-response","100","379110","0.0-100.0","C152898DAD204657BC941834FCB72560","019cf530-3d17-780a-a954-6e425253e37f","019cf509-e3f1-72d9-bf6b-e2f1118fdaab","","null","<div style=""background-color: white; width: 100vw; height: 100vh;""></div>","null","","","","","","","","",""
"","","","","","html-keyboard-response","101","384111","0.0-101.0","C152898DAD204657BC941834FCB72560","019cf530-3d17-780a-a954-6e425253e37f","019cf509-e3f1-72d9-bf6b-e2f1118fdaab","","null","
                <div class=""stimulus-container"">
                    <img src=""images/causal_sequence/the_performance_causal/the_performance_causal_1.png"" class=""exp-image"">
                    <div class=""question-area""></div> 
                </div>","null","","","","","","","","",""
"","","","","","html-button-response","102","385041","0.0-102.0","C152898DAD204657BC941834FCB72560","019cf530-3d17-780a-a954-6e425253e37f","019cf509-e3f1-72d9-bf6b-e2f1118fdaab","","929","
                <div class=""stimulus-container"">
                    <img src=""images/causal_sequence/the_performance_causal/the_performance_causal_1.png"" class=""exp-image"">
                    <div class=""question-area"">
                        <p style=""font-size: 20px; font-weight: bold; margin: 0;"">Is there a person in this image?</p>
                    </div>
                </div>","0","main_experiment_trial","1","the_performance_causal","causal_sequence","","","","",""
"","","","","","html-keyboard-response","103","390042","0.0-103.0","C152898DAD204657BC941834FCB72560","019cf530-3d17-780a-a954-6e425253e37f","019cf509-e3f1-72d9-bf6b-e2f1118fdaab","","null","
                <div class=""stimulus-container"">
                    <img src=""images/causal_sequence/the_performance_causal/the_performance_causal_2.png"" class=""exp-image"">
                    <div class=""question-area""></div> 
                </div>","null","","","","","","","","",""
"","","","","","html-button-response","104","390899","0.0-104.0","C152898DAD204657BC941834FCB72560","019cf530-3d17-780a-a954-6e425253e37f","019cf509-e3f1-72d9-bf6b-e2f1118fdaab","","857","
                <div class=""stimulus-container"">
                    <img src=""images/causal_sequence/the_performance_causal/the_performance_causal_2.png"" class=""exp-image"">
                    <div class=""question-area"">
                        <p style=""font-size: 20px; font-weight: bold; margin: 0;"">Is there a person in this image?</p>
                    </div>
                </div>","0","main_experiment_trial","2","the_performance_causal","causal_sequence","","","","",""
"","","","","","html-keyboard-response","105","395900","0.0-105.0","C152898DAD204657BC941834FCB72560","019cf530-3d17-780a-a954-6e425253e37f","019cf509-e3f1-72d9-bf6b-e2f1118fdaab","","null","
                <div class=""stimulus-container"">
                    <img src=""images/causal_sequence/the_performance_causal/the_performance_causal_3.png"" class=""exp-image"">
                    <div class=""question-area""></div> 
                </div>","null","","","","","","","","",""
"","","","","","html-button-response","106","396528","0.0-106.0","C152898DAD204657BC941834FCB72560","019cf530-3d17-780a-a954-6e425253e37f","019cf509-e3f1-72d9-bf6b-e2f1118fdaab","","627","
                <div class=""stimulus-container"">
                    <img src=""images/causal_sequence/the_performance_causal/the_performance_causal_3.png"" class=""exp-image"">
                    <div class=""question-area"">
                        <p style=""font-size: 20px; font-weight: bold; margin: 0;"">Is there a person in this image?</p>
                    </div>
                </div>","0","main_experiment_trial","3","the_performance_causal","causal_sequence","","","","",""
"","","","","","html-keyboard-response","107","401530","0.0-107.0","C152898DAD204657BC941834FCB72560","019cf530-3d17-780a-a954-6e425253e37f","019cf509-e3f1-72d9-bf6b-e2f1118fdaab","","null","
                <div class=""stimulus-container"">
                    <img src=""images/causal_sequence/the_performance_causal/the_performance_causal_4.png"" class=""exp-image"">
                    <div class=""question-area""></div> 
                </div>","null","","","","","","","","",""
"","","","","","html-button-response","108","402568","0.0-108.0","C152898DAD204657BC941834FCB72560","019cf530-3d17-780a-a954-6e425253e37f","019cf509-e3f1-72d9-bf6b-e2f1118fdaab","","1037","
                <div class=""stimulus-container"">
                    <img src=""images/causal_sequence/the_performance_causal/the_performance_causal_4.png"" class=""exp-image"">
                    <div class=""question-area"">
                        <p style=""font-size: 20px; font-weight: bold; margin: 0;"">Is there a person in this image?</p>
                    </div>
                </div>","0","main_experiment_trial","4","the_performance_causal","causal_sequence","","","","",""
"","","","","","html-keyboard-response","109","407569","0.0-109.0","C152898DAD204657BC941834FCB72560","019cf530-3d17-780a-a954-6e425253e37f","019cf509-e3f1-72d9-bf6b-e2f1118fdaab","","null","
                <div class=""stimulus-container"">
                    <img src=""images/causal_sequence/the_performance_causal/the_performance_causal_5.png"" class=""exp-image"">
                    <div class=""question-area""></div> 
                </div>","null","","","","","","","","",""
"","","","","","html-button-response","110","408182","0.0-110.0","C152898DAD204657BC941834FCB72560","019cf530-3d17-780a-a954-6e425253e37f","019cf509-e3f1-72d9-bf6b-e2f1118fdaab","","612","
                <div class=""stimulus-container"">
                    <img src=""images/causal_sequence/the_performance_causal/the_performance_causal_5.png"" class=""exp-image"">
                    <div class=""question-area"">
                        <p style=""font-size: 20px; font-weight: bold; margin: 0;"">Is there a person in this image?</p>
                    </div>
                </div>","0","main_experiment_trial","5","the_performance_causal","causal_sequence","","","","",""
"","","","","","html-keyboard-response","111","413184","0.0-111.0","C152898DAD204657BC941834FCB72560","019cf530-3d17-780a-a954-6e425253e37f","019cf509-e3f1-72d9-bf6b-e2f1118fdaab","","null","
                <div class=""stimulus-container"">
                    <img src=""images/causal_sequence/the_performance_causal/the_performance_causal_6.png"" class=""exp-image"">
                    <div class=""question-area""></div> 
                </div>","null","","","","","","","","",""
"","","","","","html-button-response","112","414128","0.0-112.0","C152898DAD204657BC941834FCB72560","019cf530-3d17-780a-a954-6e425253e37f","019cf509-e3f1-72d9-bf6b-e2f1118fdaab","","943","
                <div class=""stimulus-container"">
                    <img src=""images/causal_sequence/the_performance_causal/the_performance_causal_6.png"" class=""exp-image"">
                    <div class=""question-area"">
                        <p style=""font-size: 20px; font-weight: bold; margin: 0;"">Is there a person in this image?</p>
                    </div>
                </div>","0","main_experiment_trial","6","the_performance_causal","causal_sequence","","","","",""
"","","","","","html-keyboard-response","113","419131","0.0-113.0","C152898DAD204657BC941834FCB72560","019cf530-3d17-780a-a954-6e425253e37f","019cf509-e3f1-72d9-bf6b-e2f1118fdaab","","null","
                <div class=""stimulus-container"">
                    <img src=""images/causal_sequence/the_performance_causal/the_performance_causal_7.png"" class=""exp-image"">
                    <div class=""question-area""></div> 
                </div>","null","","","","","","","","",""
"","","","","","html-button-response","114","420193","0.0-114.0","C152898DAD204657BC941834FCB72560","019cf530-3d17-780a-a954-6e425253e37f","019cf509-e3f1-72d9-bf6b-e2f1118fdaab","","1061","
                <div class=""stimulus-container"">
                    <img src=""images/causal_sequence/the_performance_causal/the_performance_causal_7.png"" class=""exp-image"">
                    <div class=""question-area"">
                        <p style=""font-size: 20px; font-weight: bold; margin: 0;"">Is there a person in this image?</p>
                    </div>
                </div>","0","main_experiment_trial","7","the_performance_causal","causal_sequence","","","","",""
"","","","","","html-keyboard-response","115","425194","0.0-115.0","C152898DAD204657BC941834FCB72560","019cf530-3d17-780a-a954-6e425253e37f","019cf509-e3f1-72d9-bf6b-e2f1118fdaab","","null","
                <div class=""stimulus-container"">
                    <img src=""images/causal_sequence/the_performance_causal/the_performance_causal_8.png"" class=""exp-image"">
                    <div class=""question-area""></div> 
                </div>","null","","","","","","","","",""
"","","","","","html-button-response","116","425871","0.0-116.0","C152898DAD204657BC941834FCB72560","019cf530-3d17-780a-a954-6e425253e37f","019cf509-e3f1-72d9-bf6b-e2f1118fdaab","","676","
                <div class=""stimulus-container"">
                    <img src=""images/causal_sequence/the_performance_causal/the_performance_causal_8.png"" class=""exp-image"">
                    <div class=""question-area"">
                        <p style=""font-size: 20px; font-weight: bold; margin: 0;"">Is there a person in this image?</p>
                    </div>
                </div>","0","main_experiment_trial","8","the_performance_causal","causal_sequence","","","","",""
"","","","","","html-keyboard-response","117","430872","0.0-117.0","C152898DAD204657BC941834FCB72560","019cf530-3d17-780a-a954-6e425253e37f","019cf509-e3f1-72d9-bf6b-e2f1118fdaab","","null","
                <div class=""stimulus-container"">
                    <img src=""images/causal_sequence/the_performance_causal/the_performance_causal_9.png"" class=""exp-image"">
                    <div class=""question-area""></div> 
                </div>","null","","","","","","","","",""
"","","","","","html-button-response","118","431784","0.0-118.0","C152898DAD204657BC941834FCB72560","019cf530-3d17-780a-a954-6e425253e37f","019cf509-e3f1-72d9-bf6b-e2f1118fdaab","","910","
                <div class=""stimulus-container"">
                    <img src=""images/causal_sequence/the_performance_causal/the_performance_causal_9.png"" class=""exp-image"">
                    <div class=""question-area"">
                        <p style=""font-size: 20px; font-weight: bold; margin: 0;"">Is there a person in this image?</p>
                    </div>
                </div>","0","main_experiment_trial","9","the_performance_causal","causal_sequence","","","","",""
"","","","","","html-keyboard-response","119","436786","0.0-119.0","C152898DAD204657BC941834FCB72560","019cf530-3d17-780a-a954-6e425253e37f","019cf509-e3f1-72d9-bf6b-e2f1118fdaab","","null","
                <div class=""stimulus-container"">
                    <img src=""images/causal_sequence/the_performance_causal/the_performance_causal_ten.png"" class=""exp-image"">
                    <div class=""question-area""></div> 
                </div>","null","","","","","","","","",""
"","","","","","html-button-response","120","437409","0.0-120.0","C152898DAD204657BC941834FCB72560","019cf530-3d17-780a-a954-6e425253e37f","019cf509-e3f1-72d9-bf6b-e2f1118fdaab","","621","
                <div class=""stimulus-container"">
                    <img src=""images/causal_sequence/the_performance_causal/the_performance_causal_ten.png"" class=""exp-image"">
                    <div class=""question-area"">
                        <p style=""font-size: 20px; font-weight: bold; margin: 0;"">Is there a person in this image?</p>
                    </div>
                </div>","0","main_experiment_trial","ten","the_performance_causal","causal_sequence","","","","",""
"","","","","","html-keyboard-response","121","438411","0.0-121.0","C152898DAD204657BC941834FCB72560","019cf530-3d17-780a-a954-6e425253e37f","019cf509-e3f1-72d9-bf6b-e2f1118fdaab","","null","<div style=""background-color: white; width: 100vw; height: 100vh;""></div>","null","","","","","","","","",""
"","","","","","html-keyboard-response","122","443412","0.0-122.0","C152898DAD204657BC941834FCB72560","019cf530-3d17-780a-a954-6e425253e37f","019cf509-e3f1-72d9-bf6b-e2f1118fdaab","","null","
                <div class=""stimulus-container"">
                    <img src=""images/schematic_sequence/dinner_party_scheme/dinner_party_scheme_1.png"" class=""exp-image"">
                    <div class=""question-area""></div> 
                </div>","null","","","","","","","","",""
"","","","","","html-button-response","123","444124","0.0-123.0","C152898DAD204657BC941834FCB72560","019cf530-3d17-780a-a954-6e425253e37f","019cf509-e3f1-72d9-bf6b-e2f1118fdaab","","711","
                <div class=""stimulus-container"">
                    <img src=""images/schematic_sequence/dinner_party_scheme/dinner_party_scheme_1.png"" class=""exp-image"">
                    <div class=""question-area"">
                        <p style=""font-size: 20px; font-weight: bold; margin: 0;"">Is there a person in this image?</p>
                    </div>
                </div>","1","main_experiment_trial","1","dinner_party_scheme","schematic_sequence","","","","",""
"","","","","","html-keyboard-response","124","449125","0.0-124.0","C152898DAD204657BC941834FCB72560","019cf530-3d17-780a-a954-6e425253e37f","019cf509-e3f1-72d9-bf6b-e2f1118fdaab","","null","
                <div class=""stimulus-container"">
                    <img src=""images/schematic_sequence/dinner_party_scheme/dinner_party_scheme_2.png"" class=""exp-image"">
                    <div class=""question-area""></div> 
                </div>","null","","","","","","","","",""
"","","","","","html-button-response","125","449852","0.0-125.0","C152898DAD204657BC941834FCB72560","019cf530-3d17-780a-a954-6e425253e37f","019cf509-e3f1-72d9-bf6b-e2f1118fdaab","","725","
                <div class=""stimulus-container"">
                    <img src=""images/schematic_sequence/dinner_party_scheme/dinner_party_scheme_2.png"" class=""exp-image"">
                    <div class=""question-area"">
                        <p style=""font-size: 20px; font-weight: bold; margin: 0;"">Is there a person in this image?</p>
                    </div>
                </div>","1","main_experiment_trial","2","dinner_party_scheme","schematic_sequence","","","","",""
"","","","","","html-keyboard-response","126","454853","0.0-126.0","C152898DAD204657BC941834FCB72560","019cf530-3d17-780a-a954-6e425253e37f","019cf509-e3f1-72d9-bf6b-e2f1118fdaab","","null","
                <div class=""stimulus-container"">
                    <img src=""images/schematic_sequence/dinner_party_scheme/dinner_party_scheme_3.png"" class=""exp-image"">
                    <div class=""question-area""></div> 
                </div>","null","","","","","","","","",""
"","","","","","html-button-response","127","455402","0.0-127.0","C152898DAD204657BC941834FCB72560","019cf530-3d17-780a-a954-6e425253e37f","019cf509-e3f1-72d9-bf6b-e2f1118fdaab","","548","
                <div class=""stimulus-container"">
                    <img src=""images/schematic_sequence/dinner_party_scheme/dinner_party_scheme_3.png"" class=""exp-image"">
                    <div class=""question-area"">
                        <p style=""font-size: 20px; font-weight: bold; margin: 0;"">Is there a person in this image?</p>
                    </div>
                </div>","0","main_experiment_trial","3","dinner_party_scheme","schematic_sequence","","","","",""
"","","","","","html-keyboard-response","128","460404","0.0-128.0","C152898DAD204657BC941834FCB72560","019cf530-3d17-780a-a954-6e425253e37f","019cf509-e3f1-72d9-bf6b-e2f1118fdaab","","null","
                <div class=""stimulus-container"">
                    <img src=""images/schematic_sequence/dinner_party_scheme/dinner_party_scheme_4.png"" class=""exp-image"">
                    <div class=""question-area""></div> 
                </div>","null","","","","","","","","",""
"","","","","","html-button-response","129","461102","0.0-129.0","C152898DAD204657BC941834FCB72560","019cf530-3d17-780a-a954-6e425253e37f","019cf509-e3f1-72d9-bf6b-e2f1118fdaab","","697","
                <div class=""stimulus-container"">
                    <img src=""images/schematic_sequence/dinner_party_scheme/dinner_party_scheme_4.png"" class=""exp-image"">
                    <div class=""question-area"">
                        <p style=""font-size: 20px; font-weight: bold; margin: 0;"">Is there a person in this image?</p>
                    </div>
                </div>","0","main_experiment_trial","4","dinner_party_scheme","schematic_sequence","","","","",""
"","","","","","html-keyboard-response","130","466104","0.0-130.0","C152898DAD204657BC941834FCB72560","019cf530-3d17-780a-a954-6e425253e37f","019cf509-e3f1-72d9-bf6b-e2f1118fdaab","","null","
                <div class=""stimulus-container"">
                    <img src=""images/schematic_sequence/dinner_party_scheme/dinner_party_scheme_5.png"" class=""exp-image"">
                    <div class=""question-area""></div> 
                </div>","null","","","","","","","","",""
"","","","","","html-button-response","131","466648","0.0-131.0","C152898DAD204657BC941834FCB72560","019cf530-3d17-780a-a954-6e425253e37f","019cf509-e3f1-72d9-bf6b-e2f1118fdaab","","542","
                <div class=""stimulus-container"">
                    <img src=""images/schematic_sequence/dinner_party_scheme/dinner_party_scheme_5.png"" class=""exp-image"">
                    <div class=""question-area"">
                        <p style=""font-size: 20px; font-weight: bold; margin: 0;"">Is there a person in this image?</p>
                    </div>
                </div>","0","main_experiment_trial","5","dinner_party_scheme","schematic_sequence","","","","",""
"","","","","","html-keyboard-response","132","471650","0.0-132.0","C152898DAD204657BC941834FCB72560","019cf530-3d17-780a-a954-6e425253e37f","019cf509-e3f1-72d9-bf6b-e2f1118fdaab","","null","
                <div class=""stimulus-container"">
                    <img src=""images/schematic_sequence/dinner_party_scheme/dinner_party_scheme_6.png"" class=""exp-image"">
                    <div class=""question-area""></div> 
                </div>","null","","","","","","","","",""
"","","","","","html-button-response","133","472213","0.0-133.0","C152898DAD204657BC941834FCB72560","019cf530-3d17-780a-a954-6e425253e37f","019cf509-e3f1-72d9-bf6b-e2f1118fdaab","","562","
                <div class=""stimulus-container"">
                    <img src=""images/schematic_sequence/dinner_party_scheme/dinner_party_scheme_6.png"" class=""exp-image"">
                    <div class=""question-area"">
                        <p style=""font-size: 20px; font-weight: bold; margin: 0;"">Is there a person in this image?</p>
                    </div>
                </div>","0","main_experiment_trial","6","dinner_party_scheme","schematic_sequence","","","","",""
"","","","","","html-keyboard-response","134","477214","0.0-134.0","C152898DAD204657BC941834FCB72560","019cf530-3d17-780a-a954-6e425253e37f","019cf509-e3f1-72d9-bf6b-e2f1118fdaab","","null","
                <div class=""stimulus-container"">
                    <img src=""images/schematic_sequence/dinner_party_scheme/dinner_party_scheme_7.png"" class=""exp-image"">
                    <div class=""question-area""></div> 
                </div>","null","","","","","","","","",""
"","","","","","html-button-response","135","477730","0.0-135.0","C152898DAD204657BC941834FCB72560","019cf530-3d17-780a-a954-6e425253e37f","019cf509-e3f1-72d9-bf6b-e2f1118fdaab","","515","
                <div class=""stimulus-container"">
                    <img src=""images/schematic_sequence/dinner_party_scheme/dinner_party_scheme_7.png"" class=""exp-image"">
                    <div class=""question-area"">
                        <p style=""font-size: 20px; font-weight: bold; margin: 0;"">Is there a person in this image?</p>
                    </div>
                </div>","0","main_experiment_trial","7","dinner_party_scheme","schematic_sequence","","","","",""
"","","","","","html-keyboard-response","136","482732","0.0-136.0","C152898DAD204657BC941834FCB72560","019cf530-3d17-780a-a954-6e425253e37f","019cf509-e3f1-72d9-bf6b-e2f1118fdaab","","null","
                <div class=""stimulus-container"">
                    <img src=""images/schematic_sequence/dinner_party_scheme/dinner_party_scheme_8.png"" class=""exp-image"">
                    <div class=""question-area""></div> 
                </div>","null","","","","","","","","",""
"","","","","","html-button-response","137","483327","0.0-137.0","C152898DAD204657BC941834FCB72560","019cf530-3d17-780a-a954-6e425253e37f","019cf509-e3f1-72d9-bf6b-e2f1118fdaab","","595","
                <div class=""stimulus-container"">
                    <img src=""images/schematic_sequence/dinner_party_scheme/dinner_party_scheme_8.png"" class=""exp-image"">
                    <div class=""question-area"">
                        <p style=""font-size: 20px; font-weight: bold; margin: 0;"">Is there a person in this image?</p>
                    </div>
                </div>","0","main_experiment_trial","8","dinner_party_scheme","schematic_sequence","","","","",""
"","","","","","html-keyboard-response","138","488329","0.0-138.0","C152898DAD204657BC941834FCB72560","019cf530-3d17-780a-a954-6e425253e37f","019cf509-e3f1-72d9-bf6b-e2f1118fdaab","","null","
                <div class=""stimulus-container"">
                    <img src=""images/schematic_sequence/dinner_party_scheme/dinner_party_scheme_9.png"" class=""exp-image"">
                    <div class=""question-area""></div> 
                </div>","null","","","","","","","","",""
"","","","","","html-button-response","139","488927","0.0-139.0","C152898DAD204657BC941834FCB72560","019cf530-3d17-780a-a954-6e425253e37f","019cf509-e3f1-72d9-bf6b-e2f1118fdaab","","596","
                <div class=""stimulus-container"">
                    <img src=""images/schematic_sequence/dinner_party_scheme/dinner_party_scheme_9.png"" class=""exp-image"">
                    <div class=""question-area"">
                        <p style=""font-size: 20px; font-weight: bold; margin: 0;"">Is there a person in this image?</p>
                    </div>
                </div>","0","main_experiment_trial","9","dinner_party_scheme","schematic_sequence","","","","",""
"","","","","","html-keyboard-response","140","493929","0.0-140.0","C152898DAD204657BC941834FCB72560","019cf530-3d17-780a-a954-6e425253e37f","019cf509-e3f1-72d9-bf6b-e2f1118fdaab","","null","
                <div class=""stimulus-container"">
                    <img src=""images/schematic_sequence/dinner_party_scheme/dinner_party_scheme_ten.png"" class=""exp-image"">
                    <div class=""question-area""></div> 
                </div>","null","","","","","","","","",""
"","","","","","html-button-response","141","494558","0.0-141.0","C152898DAD204657BC941834FCB72560","019cf530-3d17-780a-a954-6e425253e37f","019cf509-e3f1-72d9-bf6b-e2f1118fdaab","","627","
                <div class=""stimulus-container"">
                    <img src=""images/schematic_sequence/dinner_party_scheme/dinner_party_scheme_ten.png"" class=""exp-image"">
                    <div class=""question-area"">
                        <p style=""font-size: 20px; font-weight: bold; margin: 0;"">Is there a person in this image?</p>
                    </div>
                </div>","0","main_experiment_trial","ten","dinner_party_scheme","schematic_sequence","","","","",""
"","","","","","html-keyboard-response","142","495560","0.0-142.0","C152898DAD204657BC941834FCB72560","019cf530-3d17-780a-a954-6e425253e37f","019cf509-e3f1-72d9-bf6b-e2f1118fdaab","","null","<div style=""background-color: white; width: 100vw; height: 100vh;""></div>","null","","","","","","","","",""
"","","","","","html-keyboard-response","143","500562","0.0-143.0","C152898DAD204657BC941834FCB72560","019cf530-3d17-780a-a954-6e425253e37f","019cf509-e3f1-72d9-bf6b-e2f1118fdaab","","null","
                <div class=""stimulus-container"">
                    <img src=""images/causal_sequence/dog_causal/dog_causal_1.png"" class=""exp-image"">
                    <div class=""question-area""></div> 
                </div>","null","","","","","","","","",""
"","","","","","html-button-response","144","501245","0.0-144.0","C152898DAD204657BC941834FCB72560","019cf530-3d17-780a-a954-6e425253e37f","019cf509-e3f1-72d9-bf6b-e2f1118fdaab","","682","
                <div class=""stimulus-container"">
                    <img src=""images/causal_sequence/dog_causal/dog_causal_1.png"" class=""exp-image"">
                    <div class=""question-area"">
                        <p style=""font-size: 20px; font-weight: bold; margin: 0;"">Is there a person in this image?</p>
                    </div>
                </div>","0","main_experiment_trial","1","dog_causal","causal_sequence","","","","",""
"","","","","","html-keyboard-response","145","506246","0.0-145.0","C152898DAD204657BC941834FCB72560","019cf530-3d17-780a-a954-6e425253e37f","019cf509-e3f1-72d9-bf6b-e2f1118fdaab","","null","
                <div class=""stimulus-container"">
                    <img src=""images/causal_sequence/dog_causal/dog_causal_2.png"" class=""exp-image"">
                    <div class=""question-area""></div> 
                </div>","null","","","","","","","","",""
"","","","","","html-button-response","146","506859","0.0-146.0","C152898DAD204657BC941834FCB72560","019cf530-3d17-780a-a954-6e425253e37f","019cf509-e3f1-72d9-bf6b-e2f1118fdaab","","612","
                <div class=""stimulus-container"">
                    <img src=""images/causal_sequence/dog_causal/dog_causal_2.png"" class=""exp-image"">
                    <div class=""question-area"">
                        <p style=""font-size: 20px; font-weight: bold; margin: 0;"">Is there a person in this image?</p>
                    </div>
                </div>","0","main_experiment_trial","2","dog_causal","causal_sequence","","","","",""
"","","","","","html-keyboard-response","147","511860","0.0-147.0","C152898DAD204657BC941834FCB72560","019cf530-3d17-780a-a954-6e425253e37f","019cf509-e3f1-72d9-bf6b-e2f1118fdaab","","null","
                <div class=""stimulus-container"">
                    <img src=""images/causal_sequence/dog_causal/dog_causal_3.png"" class=""exp-image"">
                    <div class=""question-area""></div> 
                </div>","null","","","","","","","","",""
"","","","","","html-button-response","148","512523","0.0-148.0","C152898DAD204657BC941834FCB72560","019cf530-3d17-780a-a954-6e425253e37f","019cf509-e3f1-72d9-bf6b-e2f1118fdaab","","663","
                <div class=""stimulus-container"">
                    <img src=""images/causal_sequence/dog_causal/dog_causal_3.png"" class=""exp-image"">
                    <div class=""question-area"">
                        <p style=""font-size: 20px; font-weight: bold; margin: 0;"">Is there a person in this image?</p>
                    </div>
                </div>","0","main_experiment_trial","3","dog_causal","causal_sequence","","","","",""
"","","","","","html-keyboard-response","149","517524","0.0-149.0","C152898DAD204657BC941834FCB72560","019cf530-3d17-780a-a954-6e425253e37f","019cf509-e3f1-72d9-bf6b-e2f1118fdaab","","null","
                <div class=""stimulus-container"">
                    <img src=""images/causal_sequence/dog_causal/dog_causal_4.png"" class=""exp-image"">
                    <div class=""question-area""></div> 
                </div>","null","","","","","","","","",""
"","","","","","html-button-response","150","518190","0.0-150.0","C152898DAD204657BC941834FCB72560","019cf530-3d17-780a-a954-6e425253e37f","019cf509-e3f1-72d9-bf6b-e2f1118fdaab","","665","
                <div class=""stimulus-container"">
                    <img src=""images/causal_sequence/dog_causal/dog_causal_4.png"" class=""exp-image"">
                    <div class=""question-area"">
                        <p style=""font-size: 20px; font-weight: bold; margin: 0;"">Is there a person in this image?</p>
                    </div>
                </div>","0","main_experiment_trial","4","dog_causal","causal_sequence","","","","",""
"","","","","","html-keyboard-response","151","523192","0.0-151.0","C152898DAD204657BC941834FCB72560","019cf530-3d17-780a-a954-6e425253e37f","019cf509-e3f1-72d9-bf6b-e2f1118fdaab","","null","
                <div class=""stimulus-container"">
                    <img src=""images/causal_sequence/dog_causal/dog_causal_5.png"" class=""exp-image"">
                    <div class=""question-area""></div> 
                </div>","null","","","","","","","","",""
"","","","","","html-button-response","152","524190","0.0-152.0","C152898DAD204657BC941834FCB72560","019cf530-3d17-780a-a954-6e425253e37f","019cf509-e3f1-72d9-bf6b-e2f1118fdaab","","998","
                <div class=""stimulus-container"">
                    <img src=""images/causal_sequence/dog_causal/dog_causal_5.png"" class=""exp-image"">
                    <div class=""question-area"">
                        <p style=""font-size: 20px; font-weight: bold; margin: 0;"">Is there a person in this image?</p>
                    </div>
                </div>","0","main_experiment_trial","5","dog_causal","causal_sequence","","","","",""
"","","","","","html-keyboard-response","153","529192","0.0-153.0","C152898DAD204657BC941834FCB72560","019cf530-3d17-780a-a954-6e425253e37f","019cf509-e3f1-72d9-bf6b-e2f1118fdaab","","null","
                <div class=""stimulus-container"">
                    <img src=""images/causal_sequence/dog_causal/dog_causal_6.png"" class=""exp-image"">
                    <div class=""question-area""></div> 
                </div>","null","","","","","","","","",""
"","","","","","html-button-response","154","530420","0.0-154.0","C152898DAD204657BC941834FCB72560","019cf530-3d17-780a-a954-6e425253e37f","019cf509-e3f1-72d9-bf6b-e2f1118fdaab","","1228","
                <div class=""stimulus-container"">
                    <img src=""images/causal_sequence/dog_causal/dog_causal_6.png"" class=""exp-image"">
                    <div class=""question-area"">
                        <p style=""font-size: 20px; font-weight: bold; margin: 0;"">Is there a person in this image?</p>
                    </div>
                </div>","0","main_experiment_trial","6","dog_causal","causal_sequence","","","","",""
"","","","","","html-keyboard-response","155","535421","0.0-155.0","C152898DAD204657BC941834FCB72560","019cf530-3d17-780a-a954-6e425253e37f","019cf509-e3f1-72d9-bf6b-e2f1118fdaab","","null","
                <div class=""stimulus-container"">
                    <img src=""images/causal_sequence/dog_causal/dog_causal_7.png"" class=""exp-image"">
                    <div class=""question-area""></div> 
                </div>","null","","","","","","","","",""
"","","","","","html-button-response","156","536121","0.0-156.0","C152898DAD204657BC941834FCB72560","019cf530-3d17-780a-a954-6e425253e37f","019cf509-e3f1-72d9-bf6b-e2f1118fdaab","","698","
                <div class=""stimulus-container"">
                    <img src=""images/causal_sequence/dog_causal/dog_causal_7.png"" class=""exp-image"">
                    <div class=""question-area"">
                        <p style=""font-size: 20px; font-weight: bold; margin: 0;"">Is there a person in this image?</p>
                    </div>
                </div>","0","main_experiment_trial","7","dog_causal","causal_sequence","","","","",""
"","","","","","html-keyboard-response","157","541123","0.0-157.0","C152898DAD204657BC941834FCB72560","019cf530-3d17-780a-a954-6e425253e37f","019cf509-e3f1-72d9-bf6b-e2f1118fdaab","","null","
                <div class=""stimulus-container"">
                    <img src=""images/causal_sequence/dog_causal/dog_causal_8.png"" class=""exp-image"">
                    <div class=""question-area""></div> 
                </div>","null","","","","","","","","",""
"","","","","","html-button-response","158","541808","0.0-158.0","C152898DAD204657BC941834FCB72560","019cf530-3d17-780a-a954-6e425253e37f","019cf509-e3f1-72d9-bf6b-e2f1118fdaab","","684","
                <div class=""stimulus-container"">
                    <img src=""images/causal_sequence/dog_causal/dog_causal_8.png"" class=""exp-image"">
                    <div class=""question-area"">
                        <p style=""font-size: 20px; font-weight: bold; margin: 0;"">Is there a person in this image?</p>
                    </div>
                </div>","0","main_experiment_trial","8","dog_causal","causal_sequence","","","","",""
"","","","","","html-keyboard-response","159","546810","0.0-159.0","C152898DAD204657BC941834FCB72560","019cf530-3d17-780a-a954-6e425253e37f","019cf509-e3f1-72d9-bf6b-e2f1118fdaab","","null","
                <div class=""stimulus-container"">
                    <img src=""images/causal_sequence/dog_causal/dog_causal_9.png"" class=""exp-image"">
                    <div class=""question-area""></div> 
                </div>","null","","","","","","","","",""
"","","","","","html-button-response","160","547358","0.0-160.0","C152898DAD204657BC941834FCB72560","019cf530-3d17-780a-a954-6e425253e37f","019cf509-e3f1-72d9-bf6b-e2f1118fdaab","","546","
                <div class=""stimulus-container"">
                    <img src=""images/causal_sequence/dog_causal/dog_causal_9.png"" class=""exp-image"">
                    <div class=""question-area"">
                        <p style=""font-size: 20px; font-weight: bold; margin: 0;"">Is there a person in this image?</p>
                    </div>
                </div>","0","main_experiment_trial","9","dog_causal","causal_sequence","","","","",""
"","","","","","html-keyboard-response","161","552359","0.0-161.0","C152898DAD204657BC941834FCB72560","019cf530-3d17-780a-a954-6e425253e37f","019cf509-e3f1-72d9-bf6b-e2f1118fdaab","","null","
                <div class=""stimulus-container"">
                    <img src=""images/causal_sequence/dog_causal/dog_causal_ten.png"" class=""exp-image"">
                    <div class=""question-area""></div> 
                </div>","null","","","","","","","","",""
"","","","","","html-button-response","162","552908","0.0-162.0","C152898DAD204657BC941834FCB72560","019cf530-3d17-780a-a954-6e425253e37f","019cf509-e3f1-72d9-bf6b-e2f1118fdaab","","548","
                <div class=""stimulus-container"">
                    <img src=""images/causal_sequence/dog_causal/dog_causal_ten.png"" class=""exp-image"">
                    <div class=""question-area"">
                        <p style=""font-size: 20px; font-weight: bold; margin: 0;"">Is there a person in this image?</p>
                    </div>
                </div>","0","main_experiment_trial","ten","dog_causal","causal_sequence","","","","",""
"","","","","","html-keyboard-response","163","553910","0.0-163.0","C152898DAD204657BC941834FCB72560","019cf530-3d17-780a-a954-6e425253e37f","019cf509-e3f1-72d9-bf6b-e2f1118fdaab","","null","<div style=""background-color: white; width: 100vw; height: 100vh;""></div>","null","","","","","","","","",""
"","","","","","html-keyboard-response","164","558911","0.0-164.0","C152898DAD204657BC941834FCB72560","019cf530-3d17-780a-a954-6e425253e37f","019cf509-e3f1-72d9-bf6b-e2f1118fdaab","","null","
                <div class=""stimulus-container"">
                    <img src=""images/schematic_sequence/flight_scheme/flight_scheme_1.png"" class=""exp-image"">
                    <div class=""question-area""></div> 
                </div>","null","","","","","","","","",""
"","","","","","html-button-response","165","559542","0.0-165.0","C152898DAD204657BC941834FCB72560","019cf530-3d17-780a-a954-6e425253e37f","019cf509-e3f1-72d9-bf6b-e2f1118fdaab","","629","
                <div class=""stimulus-container"">
                    <img src=""images/schematic_sequence/flight_scheme/flight_scheme_1.png"" class=""exp-image"">
                    <div class=""question-area"">
                        <p style=""font-size: 20px; font-weight: bold; margin: 0;"">Is there a person in this image?</p>
                    </div>
                </div>","1","main_experiment_trial","1","flight_scheme","schematic_sequence","","","","",""
"","","","","","html-keyboard-response","166","564543","0.0-166.0","C152898DAD204657BC941834FCB72560","019cf530-3d17-780a-a954-6e425253e37f","019cf509-e3f1-72d9-bf6b-e2f1118fdaab","","null","
                <div class=""stimulus-container"">
                    <img src=""images/schematic_sequence/flight_scheme/flight_scheme_2.png"" class=""exp-image"">
                    <div class=""question-area""></div> 
                </div>","null","","","","","","","","",""
"","","","","","html-button-response","167","565084","0.0-167.0","C152898DAD204657BC941834FCB72560","019cf530-3d17-780a-a954-6e425253e37f","019cf509-e3f1-72d9-bf6b-e2f1118fdaab","","540","
                <div class=""stimulus-container"">
                    <img src=""images/schematic_sequence/flight_scheme/flight_scheme_2.png"" class=""exp-image"">
                    <div class=""question-area"">
                        <p style=""font-size: 20px; font-weight: bold; margin: 0;"">Is there a person in this image?</p>
                    </div>
                </div>","1","main_experiment_trial","2","flight_scheme","schematic_sequence","","","","",""
"","","","","","html-keyboard-response","168","570085","0.0-168.0","C152898DAD204657BC941834FCB72560","019cf530-3d17-780a-a954-6e425253e37f","019cf509-e3f1-72d9-bf6b-e2f1118fdaab","","null","
                <div class=""stimulus-container"">
                    <img src=""images/schematic_sequence/flight_scheme/flight_scheme_3.png"" class=""exp-image"">
                    <div class=""question-area""></div> 
                </div>","null","","","","","","","","",""
"","","","","","html-button-response","169","570848","0.0-169.0","C152898DAD204657BC941834FCB72560","019cf530-3d17-780a-a954-6e425253e37f","019cf509-e3f1-72d9-bf6b-e2f1118fdaab","","761","
                <div class=""stimulus-container"">
                    <img src=""images/schematic_sequence/flight_scheme/flight_scheme_3.png"" class=""exp-image"">
                    <div class=""question-area"">
                        <p style=""font-size: 20px; font-weight: bold; margin: 0;"">Is there a person in this image?</p>
                    </div>
                </div>","0","main_experiment_trial","3","flight_scheme","schematic_sequence","","","","",""
"","","","","","html-keyboard-response","170","575849","0.0-170.0","C152898DAD204657BC941834FCB72560","019cf530-3d17-780a-a954-6e425253e37f","019cf509-e3f1-72d9-bf6b-e2f1118fdaab","","null","
                <div class=""stimulus-container"">
                    <img src=""images/schematic_sequence/flight_scheme/flight_scheme_4.png"" class=""exp-image"">
                    <div class=""question-area""></div> 
                </div>","null","","","","","","","","",""
"","","","","","html-button-response","171","576532","0.0-171.0","C152898DAD204657BC941834FCB72560","019cf530-3d17-780a-a954-6e425253e37f","019cf509-e3f1-72d9-bf6b-e2f1118fdaab","","681","
                <div class=""stimulus-container"">
                    <img src=""images/schematic_sequence/flight_scheme/flight_scheme_4.png"" class=""exp-image"">
                    <div class=""question-area"">
                        <p style=""font-size: 20px; font-weight: bold; margin: 0;"">Is there a person in this image?</p>
                    </div>
                </div>","0","main_experiment_trial","4","flight_scheme","schematic_sequence","","","","",""
"","","","","","html-keyboard-response","172","581533","0.0-172.0","C152898DAD204657BC941834FCB72560","019cf530-3d17-780a-a954-6e425253e37f","019cf509-e3f1-72d9-bf6b-e2f1118fdaab","","null","
                <div class=""stimulus-container"">
                    <img src=""images/schematic_sequence/flight_scheme/flight_scheme_5.png"" class=""exp-image"">
                    <div class=""question-area""></div> 
                </div>","null","","","","","","","","",""
"","","","","","html-button-response","173","582063","0.0-173.0","C152898DAD204657BC941834FCB72560","019cf530-3d17-780a-a954-6e425253e37f","019cf509-e3f1-72d9-bf6b-e2f1118fdaab","","529","
                <div class=""stimulus-container"">
                    <img src=""images/schematic_sequence/flight_scheme/flight_scheme_5.png"" class=""exp-image"">
                    <div class=""question-area"">
                        <p style=""font-size: 20px; font-weight: bold; margin: 0;"">Is there a person in this image?</p>
                    </div>
                </div>","0","main_experiment_trial","5","flight_scheme","schematic_sequence","","","","",""
"","","","","","html-keyboard-response","174","587065","0.0-174.0","C152898DAD204657BC941834FCB72560","019cf530-3d17-780a-a954-6e425253e37f","019cf509-e3f1-72d9-bf6b-e2f1118fdaab","","null","
                <div class=""stimulus-container"">
                    <img src=""images/schematic_sequence/flight_scheme/flight_scheme_6.png"" class=""exp-image"">
                    <div class=""question-area""></div> 
                </div>","null","","","","","","","","",""
"","","","","","html-button-response","175","587674","0.0-175.0","C152898DAD204657BC941834FCB72560","019cf530-3d17-780a-a954-6e425253e37f","019cf509-e3f1-72d9-bf6b-e2f1118fdaab","","608","
                <div class=""stimulus-container"">
                    <img src=""images/schematic_sequence/flight_scheme/flight_scheme_6.png"" class=""exp-image"">
                    <div class=""question-area"">
                        <p style=""font-size: 20px; font-weight: bold; margin: 0;"">Is there a person in this image?</p>
                    </div>
                </div>","1","main_experiment_trial","6","flight_scheme","schematic_sequence","","","","",""
"","","","","","html-keyboard-response","176","592676","0.0-176.0","C152898DAD204657BC941834FCB72560","019cf530-3d17-780a-a954-6e425253e37f","019cf509-e3f1-72d9-bf6b-e2f1118fdaab","","null","
                <div class=""stimulus-container"">
                    <img src=""images/schematic_sequence/flight_scheme/flight_scheme_7.png"" class=""exp-image"">
                    <div class=""question-area""></div> 
                </div>","null","","","","","","","","",""
"","","","","","html-button-response","177","593371","0.0-177.0","C152898DAD204657BC941834FCB72560","019cf530-3d17-780a-a954-6e425253e37f","019cf509-e3f1-72d9-bf6b-e2f1118fdaab","","693","
                <div class=""stimulus-container"">
                    <img src=""images/schematic_sequence/flight_scheme/flight_scheme_7.png"" class=""exp-image"">
                    <div class=""question-area"">
                        <p style=""font-size: 20px; font-weight: bold; margin: 0;"">Is there a person in this image?</p>
                    </div>
                </div>","1","main_experiment_trial","7","flight_scheme","schematic_sequence","","","","",""
"","","","","","html-keyboard-response","178","598373","0.0-178.0","C152898DAD204657BC941834FCB72560","019cf530-3d17-780a-a954-6e425253e37f","019cf509-e3f1-72d9-bf6b-e2f1118fdaab","","null","
                <div class=""stimulus-container"">
                    <img src=""images/schematic_sequence/flight_scheme/flight_scheme_8.png"" class=""exp-image"">
                    <div class=""question-area""></div> 
                </div>","null","","","","","","","","",""
"","","","","","html-button-response","179","599382","0.0-179.0","C152898DAD204657BC941834FCB72560","019cf530-3d17-780a-a954-6e425253e37f","019cf509-e3f1-72d9-bf6b-e2f1118fdaab","","1008","
                <div class=""stimulus-container"">
                    <img src=""images/schematic_sequence/flight_scheme/flight_scheme_8.png"" class=""exp-image"">
                    <div class=""question-area"">
                        <p style=""font-size: 20px; font-weight: bold; margin: 0;"">Is there a person in this image?</p>
                    </div>
                </div>","1","main_experiment_trial","8","flight_scheme","schematic_sequence","","","","",""
"","","","","","html-keyboard-response","180","604383","0.0-180.0","C152898DAD204657BC941834FCB72560","019cf530-3d17-780a-a954-6e425253e37f","019cf509-e3f1-72d9-bf6b-e2f1118fdaab","","null","
                <div class=""stimulus-container"">
                    <img src=""images/schematic_sequence/flight_scheme/flight_scheme_9.png"" class=""exp-image"">
                    <div class=""question-area""></div> 
                </div>","null","","","","","","","","",""
"","","","","","html-button-response","181","605274","0.0-181.0","C152898DAD204657BC941834FCB72560","019cf530-3d17-780a-a954-6e425253e37f","019cf509-e3f1-72d9-bf6b-e2f1118fdaab","","890","
                <div class=""stimulus-container"">
                    <img src=""images/schematic_sequence/flight_scheme/flight_scheme_9.png"" class=""exp-image"">
                    <div class=""question-area"">
                        <p style=""font-size: 20px; font-weight: bold; margin: 0;"">Is there a person in this image?</p>
                    </div>
                </div>","0","main_experiment_trial","9","flight_scheme","schematic_sequence","","","","",""
"","","","","","html-keyboard-response","182","610276","0.0-182.0","C152898DAD204657BC941834FCB72560","019cf530-3d17-780a-a954-6e425253e37f","019cf509-e3f1-72d9-bf6b-e2f1118fdaab","","null","
                <div class=""stimulus-container"">
                    <img src=""images/schematic_sequence/flight_scheme/flight_scheme_ten.png"" class=""exp-image"">
                    <div class=""question-area""></div> 
                </div>","null","","","","","","","","",""
"","","","","","html-button-response","183","611431","0.0-183.0","C152898DAD204657BC941834FCB72560","019cf530-3d17-780a-a954-6e425253e37f","019cf509-e3f1-72d9-bf6b-e2f1118fdaab","","1154","
                <div class=""stimulus-container"">
                    <img src=""images/schematic_sequence/flight_scheme/flight_scheme_ten.png"" class=""exp-image"">
                    <div class=""question-area"">
                        <p style=""font-size: 20px; font-weight: bold; margin: 0;"">Is there a person in this image?</p>
                    </div>
                </div>","0","main_experiment_trial","ten","flight_scheme","schematic_sequence","","","","",""
