"success","timeout","failed_images","failed_audio","failed_video","trial_type","trial_index","time_elapsed","internal_node_id","subject_id","study_id","session_id","view_history","rt","stimulus","response","task","image_index","folder","sequence_type","valuable_image_index","reward_type","chosen_image_index","target_X","correct_choice"
"true","false","[]","[]","[]","preload","0","1602","0.0-0.0","996EC505B93C4829BF22C01ABC94A238","019cf070-33a0-7fbc-9b6b-dda72a6f4745","019ceff9-9f67-7034-9722-02cda2445e09","","","","","","","","","","","","",""
"","","","","","instructions","1","5929","0.0-1.0","996EC505B93C4829BF22C01ABC94A238","019cf070-33a0-7fbc-9b6b-dda72a6f4745","019ceff9-9f67-7034-9722-02cda2445e09","[{""page_index"":0,""viewing_time"":4325}]","4325","","","","","","","","","","",""
"","","","","","instructions","2","9779","0.0-2.0","996EC505B93C4829BF22C01ABC94A238","019cf070-33a0-7fbc-9b6b-dda72a6f4745","019ceff9-9f67-7034-9722-02cda2445e09","[{""page_index"":0,""viewing_time"":3850}]","3850","","","","","","","","","","",""
"true","","","","","fullscreen","3","126464","0.0-3.0","996EC505B93C4829BF22C01ABC94A238","019cf070-33a0-7fbc-9b6b-dda72a6f4745","019ceff9-9f67-7034-9722-02cda2445e09","","115682","","","","","","","","","","",""
"","","","","","instructions","4","129643","0.0-4.0","996EC505B93C4829BF22C01ABC94A238","019cf070-33a0-7fbc-9b6b-dda72a6f4745","019ceff9-9f67-7034-9722-02cda2445e09","[{""page_index"":0,""viewing_time"":3177}]","3178","","","","","","","","","","",""
"","","","","","instructions","5","133446","0.0-5.0","996EC505B93C4829BF22C01ABC94A238","019cf070-33a0-7fbc-9b6b-dda72a6f4745","019ceff9-9f67-7034-9722-02cda2445e09","[{""page_index"":0,""viewing_time"":3801}]","3801","","","","","","","","","","",""
"","","","","","html-keyboard-response","6","137449","0.0-6.0","996EC505B93C4829BF22C01ABC94A238","019cf070-33a0-7fbc-9b6b-dda72a6f4745","019ceff9-9f67-7034-9722-02cda2445e09","","null","
                <div class=""stimulus-container"">
                    <img src=""images/instructions/movie_1.png"" class=""exp-image"">
                    <div class=""question-area""></div> 
                </div>","null","","","","","","","","",""
"","","","","","html-button-response","7","138596","0.0-7.0","996EC505B93C4829BF22C01ABC94A238","019cf070-33a0-7fbc-9b6b-dda72a6f4745","019ceff9-9f67-7034-9722-02cda2445e09","","1144","
                <div class=""stimulus-container"">
                    <img src=""images/instructions/movie_1.png"" class=""exp-image"">
                    <div class=""question-area"">
                        <p style=""font-size: 20px; font-weight: bold; margin: 0;"">Was there a person in this image?</p>
                    </div>
                </div>","0","example_question","1","","","","","","",""
"","","","","","html-keyboard-response","8","142598","0.0-8.0","996EC505B93C4829BF22C01ABC94A238","019cf070-33a0-7fbc-9b6b-dda72a6f4745","019ceff9-9f67-7034-9722-02cda2445e09","","null","
                <div class=""stimulus-container"">
                    <img src=""images/instructions/movie_2.png"" class=""exp-image"">
                    <div class=""question-area""></div> 
                </div>","null","","","","","","","","",""
"","","","","","html-button-response","9","143228","0.0-9.0","996EC505B93C4829BF22C01ABC94A238","019cf070-33a0-7fbc-9b6b-dda72a6f4745","019ceff9-9f67-7034-9722-02cda2445e09","","628","
                <div class=""stimulus-container"">
                    <img src=""images/instructions/movie_2.png"" class=""exp-image"">
                    <div class=""question-area"">
                        <p style=""font-size: 20px; font-weight: bold; margin: 0;"">Was there a person in this image?</p>
                    </div>
                </div>","1","example_question","2","","","","","","",""
"","","","","","html-keyboard-response","10","147231","0.0-10.0","996EC505B93C4829BF22C01ABC94A238","019cf070-33a0-7fbc-9b6b-dda72a6f4745","019ceff9-9f67-7034-9722-02cda2445e09","","null","
                <div class=""stimulus-container"">
                    <img src=""images/instructions/movie_3.png"" class=""exp-image"">
                    <div class=""question-area""></div> 
                </div>","null","","","","","","","","",""
"","","","","","html-button-response","11","147695","0.0-11.0","996EC505B93C4829BF22C01ABC94A238","019cf070-33a0-7fbc-9b6b-dda72a6f4745","019ceff9-9f67-7034-9722-02cda2445e09","","462","
                <div class=""stimulus-container"">
                    <img src=""images/instructions/movie_3.png"" class=""exp-image"">
                    <div class=""question-area"">
                        <p style=""font-size: 20px; font-weight: bold; margin: 0;"">Was there a person in this image?</p>
                    </div>
                </div>","0","example_question","3","","","","","","",""
"","","","","","html-keyboard-response","12","151698","0.0-12.0","996EC505B93C4829BF22C01ABC94A238","019cf070-33a0-7fbc-9b6b-dda72a6f4745","019ceff9-9f67-7034-9722-02cda2445e09","","null","
                <div class=""stimulus-container"">
                    <img src=""images/instructions/movie_4.png"" class=""exp-image"">
                    <div class=""question-area""></div> 
                </div>","null","","","","","","","","",""
"","","","","","html-button-response","13","152412","0.0-13.0","996EC505B93C4829BF22C01ABC94A238","019cf070-33a0-7fbc-9b6b-dda72a6f4745","019ceff9-9f67-7034-9722-02cda2445e09","","712","
                <div class=""stimulus-container"">
                    <img src=""images/instructions/movie_4.png"" class=""exp-image"">
                    <div class=""question-area"">
                        <p style=""font-size: 20px; font-weight: bold; margin: 0;"">Was there a person in this image?</p>
                    </div>
                </div>","0","example_question","4","","","","","","",""
"","","","","","instructions","14","229246","0.0-14.0","996EC505B93C4829BF22C01ABC94A238","019cf070-33a0-7fbc-9b6b-dda72a6f4745","019ceff9-9f67-7034-9722-02cda2445e09","[{""page_index"":0,""viewing_time"":76833}]","76834","","","","","","","","","","",""
"","","","","","instructions","15","232509","0.0-15.0","996EC505B93C4829BF22C01ABC94A238","019cf070-33a0-7fbc-9b6b-dda72a6f4745","019ceff9-9f67-7034-9722-02cda2445e09","[{""page_index"":0,""viewing_time"":3262}]","3263","","","","","","","","","","",""
"","","","","","html-keyboard-response","16","233513","0.0-16.0","996EC505B93C4829BF22C01ABC94A238","019cf070-33a0-7fbc-9b6b-dda72a6f4745","019ceff9-9f67-7034-9722-02cda2445e09","","null","<div style=""background-color: white; width: 100vw; height: 100vh;""></div>","null","","","","","","","","",""
"","","","","","html-keyboard-response","17","238516","0.0-17.0","996EC505B93C4829BF22C01ABC94A238","019cf070-33a0-7fbc-9b6b-dda72a6f4745","019ceff9-9f67-7034-9722-02cda2445e09","","null","
                <div class=""stimulus-container"">
                    <img src=""images/schematic_sequence/interview_scheme/interview_scheme_1.png"" class=""exp-image"">
                    <div class=""question-area""></div> 
                </div>","null","","","","","","","","",""
"","","","","","html-button-response","18","239429","0.0-18.0","996EC505B93C4829BF22C01ABC94A238","019cf070-33a0-7fbc-9b6b-dda72a6f4745","019ceff9-9f67-7034-9722-02cda2445e09","","910","
                <div class=""stimulus-container"">
                    <img src=""images/schematic_sequence/interview_scheme/interview_scheme_1.png"" class=""exp-image"">
                    <div class=""question-area"">
                        <p style=""font-size: 20px; font-weight: bold; margin: 0;"">Is there a person in this image?</p>
                    </div>
                </div>","1","main_experiment_trial","1","interview_scheme","schematic_sequence","","","","",""
"","","","","","html-keyboard-response","19","244433","0.0-19.0","996EC505B93C4829BF22C01ABC94A238","019cf070-33a0-7fbc-9b6b-dda72a6f4745","019ceff9-9f67-7034-9722-02cda2445e09","","null","
                <div class=""stimulus-container"">
                    <img src=""images/schematic_sequence/interview_scheme/interview_scheme_2.png"" class=""exp-image"">
                    <div class=""question-area""></div> 
                </div>","null","","","","","","","","",""
"","","","","","html-button-response","20","245112","0.0-20.0","996EC505B93C4829BF22C01ABC94A238","019cf070-33a0-7fbc-9b6b-dda72a6f4745","019ceff9-9f67-7034-9722-02cda2445e09","","678","
                <div class=""stimulus-container"">
                    <img src=""images/schematic_sequence/interview_scheme/interview_scheme_2.png"" class=""exp-image"">
                    <div class=""question-area"">
                        <p style=""font-size: 20px; font-weight: bold; margin: 0;"">Is there a person in this image?</p>
                    </div>
                </div>","1","main_experiment_trial","2","interview_scheme","schematic_sequence","","","","",""
"","","","","","html-keyboard-response","21","250115","0.0-21.0","996EC505B93C4829BF22C01ABC94A238","019cf070-33a0-7fbc-9b6b-dda72a6f4745","019ceff9-9f67-7034-9722-02cda2445e09","","null","
                <div class=""stimulus-container"">
                    <img src=""images/schematic_sequence/interview_scheme/interview_scheme_3.png"" class=""exp-image"">
                    <div class=""question-area""></div> 
                </div>","null","","","","","","","","",""
"","","","","","html-button-response","22","250546","0.0-22.0","996EC505B93C4829BF22C01ABC94A238","019cf070-33a0-7fbc-9b6b-dda72a6f4745","019ceff9-9f67-7034-9722-02cda2445e09","","429","
                <div class=""stimulus-container"">
                    <img src=""images/schematic_sequence/interview_scheme/interview_scheme_3.png"" class=""exp-image"">
                    <div class=""question-area"">
                        <p style=""font-size: 20px; font-weight: bold; margin: 0;"">Is there a person in this image?</p>
                    </div>
                </div>","1","main_experiment_trial","3","interview_scheme","schematic_sequence","","","","",""
"","","","","","html-keyboard-response","23","255549","0.0-23.0","996EC505B93C4829BF22C01ABC94A238","019cf070-33a0-7fbc-9b6b-dda72a6f4745","019ceff9-9f67-7034-9722-02cda2445e09","","null","
                <div class=""stimulus-container"">
                    <img src=""images/schematic_sequence/interview_scheme/interview_scheme_4.png"" class=""exp-image"">
                    <div class=""question-area""></div> 
                </div>","null","","","","","","","","",""
"","","","","","html-button-response","24","257045","0.0-24.0","996EC505B93C4829BF22C01ABC94A238","019cf070-33a0-7fbc-9b6b-dda72a6f4745","019ceff9-9f67-7034-9722-02cda2445e09","","1494","
                <div class=""stimulus-container"">
                    <img src=""images/schematic_sequence/interview_scheme/interview_scheme_4.png"" class=""exp-image"">
                    <div class=""question-area"">
                        <p style=""font-size: 20px; font-weight: bold; margin: 0;"">Is there a person in this image?</p>
                    </div>
                </div>","1","main_experiment_trial","4","interview_scheme","schematic_sequence","","","","",""
"","","","","","html-keyboard-response","25","262048","0.0-25.0","996EC505B93C4829BF22C01ABC94A238","019cf070-33a0-7fbc-9b6b-dda72a6f4745","019ceff9-9f67-7034-9722-02cda2445e09","","null","
                <div class=""stimulus-container"">
                    <img src=""images/schematic_sequence/interview_scheme/interview_scheme_5.png"" class=""exp-image"">
                    <div class=""question-area""></div> 
                </div>","null","","","","","","","","",""
"","","","","","html-button-response","26","263209","0.0-26.0","996EC505B93C4829BF22C01ABC94A238","019cf070-33a0-7fbc-9b6b-dda72a6f4745","019ceff9-9f67-7034-9722-02cda2445e09","","1159","
                <div class=""stimulus-container"">
                    <img src=""images/schematic_sequence/interview_scheme/interview_scheme_5.png"" class=""exp-image"">
                    <div class=""question-area"">
                        <p style=""font-size: 20px; font-weight: bold; margin: 0;"">Is there a person in this image?</p>
                    </div>
                </div>","0","main_experiment_trial","5","interview_scheme","schematic_sequence","","","","",""
"","","","","","html-keyboard-response","27","268211","0.0-27.0","996EC505B93C4829BF22C01ABC94A238","019cf070-33a0-7fbc-9b6b-dda72a6f4745","019ceff9-9f67-7034-9722-02cda2445e09","","null","
                <div class=""stimulus-container"">
                    <img src=""images/schematic_sequence/interview_scheme/interview_scheme_6.png"" class=""exp-image"">
                    <div class=""question-area""></div> 
                </div>","null","","","","","","","","",""
"","","","","","html-button-response","28","268678","0.0-28.0","996EC505B93C4829BF22C01ABC94A238","019cf070-33a0-7fbc-9b6b-dda72a6f4745","019ceff9-9f67-7034-9722-02cda2445e09","","465","
                <div class=""stimulus-container"">
                    <img src=""images/schematic_sequence/interview_scheme/interview_scheme_6.png"" class=""exp-image"">
                    <div class=""question-area"">
                        <p style=""font-size: 20px; font-weight: bold; margin: 0;"">Is there a person in this image?</p>
                    </div>
                </div>","0","main_experiment_trial","6","interview_scheme","schematic_sequence","","","","",""
"","","","","","html-keyboard-response","29","273680","0.0-29.0","996EC505B93C4829BF22C01ABC94A238","019cf070-33a0-7fbc-9b6b-dda72a6f4745","019ceff9-9f67-7034-9722-02cda2445e09","","null","
                <div class=""stimulus-container"">
                    <img src=""images/schematic_sequence/interview_scheme/interview_scheme_7.png"" class=""exp-image"">
                    <div class=""question-area""></div> 
                </div>","null","","","","","","","","",""
"","","","","","html-button-response","30","274595","0.0-30.0","996EC505B93C4829BF22C01ABC94A238","019cf070-33a0-7fbc-9b6b-dda72a6f4745","019ceff9-9f67-7034-9722-02cda2445e09","","913","
                <div class=""stimulus-container"">
                    <img src=""images/schematic_sequence/interview_scheme/interview_scheme_7.png"" class=""exp-image"">
                    <div class=""question-area"">
                        <p style=""font-size: 20px; font-weight: bold; margin: 0;"">Is there a person in this image?</p>
                    </div>
                </div>","0","main_experiment_trial","7","interview_scheme","schematic_sequence","","","","",""
"","","","","","html-keyboard-response","31","279598","0.0-31.0","996EC505B93C4829BF22C01ABC94A238","019cf070-33a0-7fbc-9b6b-dda72a6f4745","019ceff9-9f67-7034-9722-02cda2445e09","","null","
                <div class=""stimulus-container"">
                    <img src=""images/schematic_sequence/interview_scheme/interview_scheme_8.png"" class=""exp-image"">
                    <div class=""question-area""></div> 
                </div>","null","","","","","","","","",""
"","","","","","html-button-response","32","280511","0.0-32.0","996EC505B93C4829BF22C01ABC94A238","019cf070-33a0-7fbc-9b6b-dda72a6f4745","019ceff9-9f67-7034-9722-02cda2445e09","","911","
                <div class=""stimulus-container"">
                    <img src=""images/schematic_sequence/interview_scheme/interview_scheme_8.png"" class=""exp-image"">
                    <div class=""question-area"">
                        <p style=""font-size: 20px; font-weight: bold; margin: 0;"">Is there a person in this image?</p>
                    </div>
                </div>","0","main_experiment_trial","8","interview_scheme","schematic_sequence","","","","",""
"","","","","","html-keyboard-response","33","285514","0.0-33.0","996EC505B93C4829BF22C01ABC94A238","019cf070-33a0-7fbc-9b6b-dda72a6f4745","019ceff9-9f67-7034-9722-02cda2445e09","","null","
                <div class=""stimulus-container"">
                    <img src=""images/schematic_sequence/interview_scheme/interview_scheme_9.png"" class=""exp-image"">
                    <div class=""question-area""></div> 
                </div>","null","","","","","","","","",""
"","","","","","html-button-response","34","286278","0.0-34.0","996EC505B93C4829BF22C01ABC94A238","019cf070-33a0-7fbc-9b6b-dda72a6f4745","019ceff9-9f67-7034-9722-02cda2445e09","","762","
                <div class=""stimulus-container"">
                    <img src=""images/schematic_sequence/interview_scheme/interview_scheme_9.png"" class=""exp-image"">
                    <div class=""question-area"">
                        <p style=""font-size: 20px; font-weight: bold; margin: 0;"">Is there a person in this image?</p>
                    </div>
                </div>","0","main_experiment_trial","9","interview_scheme","schematic_sequence","","","","",""
"","","","","","html-keyboard-response","35","291281","0.0-35.0","996EC505B93C4829BF22C01ABC94A238","019cf070-33a0-7fbc-9b6b-dda72a6f4745","019ceff9-9f67-7034-9722-02cda2445e09","","null","
                <div class=""stimulus-container"">
                    <img src=""images/schematic_sequence/interview_scheme/interview_scheme_ten.png"" class=""exp-image"">
                    <div class=""question-area""></div> 
                </div>","null","","","","","","","","",""
"","","","","","html-button-response","36","291695","0.0-36.0","996EC505B93C4829BF22C01ABC94A238","019cf070-33a0-7fbc-9b6b-dda72a6f4745","019ceff9-9f67-7034-9722-02cda2445e09","","412","
                <div class=""stimulus-container"">
                    <img src=""images/schematic_sequence/interview_scheme/interview_scheme_ten.png"" class=""exp-image"">
                    <div class=""question-area"">
                        <p style=""font-size: 20px; font-weight: bold; margin: 0;"">Is there a person in this image?</p>
                    </div>
                </div>","0","main_experiment_trial","ten","interview_scheme","schematic_sequence","","","","",""
"","","","","","html-keyboard-response","37","292697","0.0-37.0","996EC505B93C4829BF22C01ABC94A238","019cf070-33a0-7fbc-9b6b-dda72a6f4745","019ceff9-9f67-7034-9722-02cda2445e09","","null","<div style=""background-color: white; width: 100vw; height: 100vh;""></div>","null","","","","","","","","",""
"","","","","","html-keyboard-response","38","297700","0.0-38.0","996EC505B93C4829BF22C01ABC94A238","019cf070-33a0-7fbc-9b6b-dda72a6f4745","019ceff9-9f67-7034-9722-02cda2445e09","","null","
                <div class=""stimulus-container"">
                    <img src=""images/schematic_sequence/supermarket_scheme/supermarket_scheme_1.png"" class=""exp-image"">
                    <div class=""question-area""></div> 
                </div>","null","","","","","","","","",""
"","","","","","html-button-response","39","298462","0.0-39.0","996EC505B93C4829BF22C01ABC94A238","019cf070-33a0-7fbc-9b6b-dda72a6f4745","019ceff9-9f67-7034-9722-02cda2445e09","","760","
                <div class=""stimulus-container"">
                    <img src=""images/schematic_sequence/supermarket_scheme/supermarket_scheme_1.png"" class=""exp-image"">
                    <div class=""question-area"">
                        <p style=""font-size: 20px; font-weight: bold; margin: 0;"">Is there a person in this image?</p>
                    </div>
                </div>","1","main_experiment_trial","1","supermarket_scheme","schematic_sequence","","","","",""
"","","","","","html-keyboard-response","40","303465","0.0-40.0","996EC505B93C4829BF22C01ABC94A238","019cf070-33a0-7fbc-9b6b-dda72a6f4745","019ceff9-9f67-7034-9722-02cda2445e09","","null","
                <div class=""stimulus-container"">
                    <img src=""images/schematic_sequence/supermarket_scheme/supermarket_scheme_2.png"" class=""exp-image"">
                    <div class=""question-area""></div> 
                </div>","null","","","","","","","","",""
"","","","","","html-button-response","41","303927","0.0-41.0","996EC505B93C4829BF22C01ABC94A238","019cf070-33a0-7fbc-9b6b-dda72a6f4745","019ceff9-9f67-7034-9722-02cda2445e09","","461","
                <div class=""stimulus-container"">
                    <img src=""images/schematic_sequence/supermarket_scheme/supermarket_scheme_2.png"" class=""exp-image"">
                    <div class=""question-area"">
                        <p style=""font-size: 20px; font-weight: bold; margin: 0;"">Is there a person in this image?</p>
                    </div>
                </div>","1","main_experiment_trial","2","supermarket_scheme","schematic_sequence","","","","",""
"","","","","","html-keyboard-response","42","308930","0.0-42.0","996EC505B93C4829BF22C01ABC94A238","019cf070-33a0-7fbc-9b6b-dda72a6f4745","019ceff9-9f67-7034-9722-02cda2445e09","","null","
                <div class=""stimulus-container"">
                    <img src=""images/schematic_sequence/supermarket_scheme/supermarket_scheme_3.png"" class=""exp-image"">
                    <div class=""question-area""></div> 
                </div>","null","","","","","","","","",""
"","","","","","html-button-response","43","309361","0.0-43.0","996EC505B93C4829BF22C01ABC94A238","019cf070-33a0-7fbc-9b6b-dda72a6f4745","019ceff9-9f67-7034-9722-02cda2445e09","","429","
                <div class=""stimulus-container"">
                    <img src=""images/schematic_sequence/supermarket_scheme/supermarket_scheme_3.png"" class=""exp-image"">
                    <div class=""question-area"">
                        <p style=""font-size: 20px; font-weight: bold; margin: 0;"">Is there a person in this image?</p>
                    </div>
                </div>","1","main_experiment_trial","3","supermarket_scheme","schematic_sequence","","","","",""
"","","","","","html-keyboard-response","44","314364","0.0-44.0","996EC505B93C4829BF22C01ABC94A238","019cf070-33a0-7fbc-9b6b-dda72a6f4745","019ceff9-9f67-7034-9722-02cda2445e09","","null","
                <div class=""stimulus-container"">
                    <img src=""images/schematic_sequence/supermarket_scheme/supermarket_scheme_4.png"" class=""exp-image"">
                    <div class=""question-area""></div> 
                </div>","null","","","","","","","","",""
"","","","","","html-button-response","45","314861","0.0-45.0","996EC505B93C4829BF22C01ABC94A238","019cf070-33a0-7fbc-9b6b-dda72a6f4745","019ceff9-9f67-7034-9722-02cda2445e09","","496","
                <div class=""stimulus-container"">
                    <img src=""images/schematic_sequence/supermarket_scheme/supermarket_scheme_4.png"" class=""exp-image"">
                    <div class=""question-area"">
                        <p style=""font-size: 20px; font-weight: bold; margin: 0;"">Is there a person in this image?</p>
                    </div>
                </div>","1","main_experiment_trial","4","supermarket_scheme","schematic_sequence","","","","",""
"","","","","","html-keyboard-response","46","319863","0.0-46.0","996EC505B93C4829BF22C01ABC94A238","019cf070-33a0-7fbc-9b6b-dda72a6f4745","019ceff9-9f67-7034-9722-02cda2445e09","","null","
                <div class=""stimulus-container"">
                    <img src=""images/schematic_sequence/supermarket_scheme/supermarket_scheme_5.png"" class=""exp-image"">
                    <div class=""question-area""></div> 
                </div>","null","","","","","","","","",""
"","","","","","html-button-response","47","320745","0.0-47.0","996EC505B93C4829BF22C01ABC94A238","019cf070-33a0-7fbc-9b6b-dda72a6f4745","019ceff9-9f67-7034-9722-02cda2445e09","","880","
                <div class=""stimulus-container"">
                    <img src=""images/schematic_sequence/supermarket_scheme/supermarket_scheme_5.png"" class=""exp-image"">
                    <div class=""question-area"">
                        <p style=""font-size: 20px; font-weight: bold; margin: 0;"">Is there a person in this image?</p>
                    </div>
                </div>","0","main_experiment_trial","5","supermarket_scheme","schematic_sequence","","","","",""
"","","","","","html-keyboard-response","48","325748","0.0-48.0","996EC505B93C4829BF22C01ABC94A238","019cf070-33a0-7fbc-9b6b-dda72a6f4745","019ceff9-9f67-7034-9722-02cda2445e09","","null","
                <div class=""stimulus-container"">
                    <img src=""images/schematic_sequence/supermarket_scheme/supermarket_scheme_6.png"" class=""exp-image"">
                    <div class=""question-area""></div> 
                </div>","null","","","","","","","","",""
"","","","","","html-button-response","49","326261","0.0-49.0","996EC505B93C4829BF22C01ABC94A238","019cf070-33a0-7fbc-9b6b-dda72a6f4745","019ceff9-9f67-7034-9722-02cda2445e09","","512","
                <div class=""stimulus-container"">
                    <img src=""images/schematic_sequence/supermarket_scheme/supermarket_scheme_6.png"" class=""exp-image"">
                    <div class=""question-area"">
                        <p style=""font-size: 20px; font-weight: bold; margin: 0;"">Is there a person in this image?</p>
                    </div>
                </div>","0","main_experiment_trial","6","supermarket_scheme","schematic_sequence","","","","",""
"","","","","","html-keyboard-response","50","331265","0.0-50.0","996EC505B93C4829BF22C01ABC94A238","019cf070-33a0-7fbc-9b6b-dda72a6f4745","019ceff9-9f67-7034-9722-02cda2445e09","","null","
                <div class=""stimulus-container"">
                    <img src=""images/schematic_sequence/supermarket_scheme/supermarket_scheme_7.png"" class=""exp-image"">
                    <div class=""question-area""></div> 
                </div>","null","","","","","","","","",""
"","","","","","html-button-response","51","331611","0.0-51.0","996EC505B93C4829BF22C01ABC94A238","019cf070-33a0-7fbc-9b6b-dda72a6f4745","019ceff9-9f67-7034-9722-02cda2445e09","","345","
                <div class=""stimulus-container"">
                    <img src=""images/schematic_sequence/supermarket_scheme/supermarket_scheme_7.png"" class=""exp-image"">
                    <div class=""question-area"">
                        <p style=""font-size: 20px; font-weight: bold; margin: 0;"">Is there a person in this image?</p>
                    </div>
                </div>","0","main_experiment_trial","7","supermarket_scheme","schematic_sequence","","","","",""
"","","","","","html-keyboard-response","52","336614","0.0-52.0","996EC505B93C4829BF22C01ABC94A238","019cf070-33a0-7fbc-9b6b-dda72a6f4745","019ceff9-9f67-7034-9722-02cda2445e09","","null","
                <div class=""stimulus-container"">
                    <img src=""images/schematic_sequence/supermarket_scheme/supermarket_scheme_8.png"" class=""exp-image"">
                    <div class=""question-area""></div> 
                </div>","null","","","","","","","","",""
"","","","","","html-button-response","53","337311","0.0-53.0","996EC505B93C4829BF22C01ABC94A238","019cf070-33a0-7fbc-9b6b-dda72a6f4745","019ceff9-9f67-7034-9722-02cda2445e09","","695","
                <div class=""stimulus-container"">
                    <img src=""images/schematic_sequence/supermarket_scheme/supermarket_scheme_8.png"" class=""exp-image"">
                    <div class=""question-area"">
                        <p style=""font-size: 20px; font-weight: bold; margin: 0;"">Is there a person in this image?</p>
                    </div>
                </div>","0","main_experiment_trial","8","supermarket_scheme","schematic_sequence","","","","",""
"","","","","","html-keyboard-response","54","342314","0.0-54.0","996EC505B93C4829BF22C01ABC94A238","019cf070-33a0-7fbc-9b6b-dda72a6f4745","019ceff9-9f67-7034-9722-02cda2445e09","","null","
                <div class=""stimulus-container"">
                    <img src=""images/schematic_sequence/supermarket_scheme/supermarket_scheme_9.png"" class=""exp-image"">
                    <div class=""question-area""></div> 
                </div>","null","","","","","","","","",""
"","","","","","html-button-response","55","343028","0.0-55.0","996EC505B93C4829BF22C01ABC94A238","019cf070-33a0-7fbc-9b6b-dda72a6f4745","019ceff9-9f67-7034-9722-02cda2445e09","","712","
                <div class=""stimulus-container"">
                    <img src=""images/schematic_sequence/supermarket_scheme/supermarket_scheme_9.png"" class=""exp-image"">
                    <div class=""question-area"">
                        <p style=""font-size: 20px; font-weight: bold; margin: 0;"">Is there a person in this image?</p>
                    </div>
                </div>","0","main_experiment_trial","9","supermarket_scheme","schematic_sequence","","","","",""
"","","","","","html-keyboard-response","56","348031","0.0-56.0","996EC505B93C4829BF22C01ABC94A238","019cf070-33a0-7fbc-9b6b-dda72a6f4745","019ceff9-9f67-7034-9722-02cda2445e09","","null","
                <div class=""stimulus-container"">
                    <img src=""images/schematic_sequence/supermarket_scheme/supermarket_scheme_ten.png"" class=""exp-image"">
                    <div class=""question-area""></div> 
                </div>","null","","","","","","","","",""
"","","","","","html-button-response","57","348444","0.0-57.0","996EC505B93C4829BF22C01ABC94A238","019cf070-33a0-7fbc-9b6b-dda72a6f4745","019ceff9-9f67-7034-9722-02cda2445e09","","411","
                <div class=""stimulus-container"">
                    <img src=""images/schematic_sequence/supermarket_scheme/supermarket_scheme_ten.png"" class=""exp-image"">
                    <div class=""question-area"">
                        <p style=""font-size: 20px; font-weight: bold; margin: 0;"">Is there a person in this image?</p>
                    </div>
                </div>","1","main_experiment_trial","ten","supermarket_scheme","schematic_sequence","","","","",""
"","","","","","html-keyboard-response","58","349446","0.0-58.0","996EC505B93C4829BF22C01ABC94A238","019cf070-33a0-7fbc-9b6b-dda72a6f4745","019ceff9-9f67-7034-9722-02cda2445e09","","null","<div style=""background-color: white; width: 100vw; height: 100vh;""></div>","null","","","","","","","","",""
"","","","","","html-keyboard-response","59","354449","0.0-59.0","996EC505B93C4829BF22C01ABC94A238","019cf070-33a0-7fbc-9b6b-dda72a6f4745","019ceff9-9f67-7034-9722-02cda2445e09","","null","
                <div class=""stimulus-container"">
                    <img src=""images/schematic_sequence/hotel_scheme/hotel_scheme_1.png"" class=""exp-image"">
                    <div class=""question-area""></div> 
                </div>","null","","","","","","","","",""
"","","","","","html-button-response","60","354860","0.0-60.0","996EC505B93C4829BF22C01ABC94A238","019cf070-33a0-7fbc-9b6b-dda72a6f4745","019ceff9-9f67-7034-9722-02cda2445e09","","410","
                <div class=""stimulus-container"">
                    <img src=""images/schematic_sequence/hotel_scheme/hotel_scheme_1.png"" class=""exp-image"">
                    <div class=""question-area"">
                        <p style=""font-size: 20px; font-weight: bold; margin: 0;"">Is there a person in this image?</p>
                    </div>
                </div>","1","main_experiment_trial","1","hotel_scheme","schematic_sequence","","","","",""
"","","","","","html-keyboard-response","61","359863","0.0-61.0","996EC505B93C4829BF22C01ABC94A238","019cf070-33a0-7fbc-9b6b-dda72a6f4745","019ceff9-9f67-7034-9722-02cda2445e09","","null","
                <div class=""stimulus-container"">
                    <img src=""images/schematic_sequence/hotel_scheme/hotel_scheme_2.png"" class=""exp-image"">
                    <div class=""question-area""></div> 
                </div>","null","","","","","","","","",""
"","","","","","html-button-response","62","360344","0.0-62.0","996EC505B93C4829BF22C01ABC94A238","019cf070-33a0-7fbc-9b6b-dda72a6f4745","019ceff9-9f67-7034-9722-02cda2445e09","","480","
                <div class=""stimulus-container"">
                    <img src=""images/schematic_sequence/hotel_scheme/hotel_scheme_2.png"" class=""exp-image"">
                    <div class=""question-area"">
                        <p style=""font-size: 20px; font-weight: bold; margin: 0;"">Is there a person in this image?</p>
                    </div>
                </div>","0","main_experiment_trial","2","hotel_scheme","schematic_sequence","","","","",""
"","","","","","html-keyboard-response","63","365347","0.0-63.0","996EC505B93C4829BF22C01ABC94A238","019cf070-33a0-7fbc-9b6b-dda72a6f4745","019ceff9-9f67-7034-9722-02cda2445e09","","null","
                <div class=""stimulus-container"">
                    <img src=""images/schematic_sequence/hotel_scheme/hotel_scheme_3.png"" class=""exp-image"">
                    <div class=""question-area""></div> 
                </div>","null","","","","","","","","",""
"","","","","","html-button-response","64","365744","0.0-64.0","996EC505B93C4829BF22C01ABC94A238","019cf070-33a0-7fbc-9b6b-dda72a6f4745","019ceff9-9f67-7034-9722-02cda2445e09","","395","
                <div class=""stimulus-container"">
                    <img src=""images/schematic_sequence/hotel_scheme/hotel_scheme_3.png"" class=""exp-image"">
                    <div class=""question-area"">
                        <p style=""font-size: 20px; font-weight: bold; margin: 0;"">Is there a person in this image?</p>
                    </div>
                </div>","0","main_experiment_trial","3","hotel_scheme","schematic_sequence","","","","",""
"","","","","","html-keyboard-response","65","370746","0.0-65.0","996EC505B93C4829BF22C01ABC94A238","019cf070-33a0-7fbc-9b6b-dda72a6f4745","019ceff9-9f67-7034-9722-02cda2445e09","","null","
                <div class=""stimulus-container"">
                    <img src=""images/schematic_sequence/hotel_scheme/hotel_scheme_4.png"" class=""exp-image"">
                    <div class=""question-area""></div> 
                </div>","null","","","","","","","","",""
"","","","","","html-button-response","66","371294","0.0-66.0","996EC505B93C4829BF22C01ABC94A238","019cf070-33a0-7fbc-9b6b-dda72a6f4745","019ceff9-9f67-7034-9722-02cda2445e09","","546","
                <div class=""stimulus-container"">
                    <img src=""images/schematic_sequence/hotel_scheme/hotel_scheme_4.png"" class=""exp-image"">
                    <div class=""question-area"">
                        <p style=""font-size: 20px; font-weight: bold; margin: 0;"">Is there a person in this image?</p>
                    </div>
                </div>","1","main_experiment_trial","4","hotel_scheme","schematic_sequence","","","","",""
"","","","","","html-keyboard-response","67","376297","0.0-67.0","996EC505B93C4829BF22C01ABC94A238","019cf070-33a0-7fbc-9b6b-dda72a6f4745","019ceff9-9f67-7034-9722-02cda2445e09","","null","
                <div class=""stimulus-container"">
                    <img src=""images/schematic_sequence/hotel_scheme/hotel_scheme_5.png"" class=""exp-image"">
                    <div class=""question-area""></div> 
                </div>","null","","","","","","","","",""
"","","","","","html-button-response","68","377261","0.0-68.0","996EC505B93C4829BF22C01ABC94A238","019cf070-33a0-7fbc-9b6b-dda72a6f4745","019ceff9-9f67-7034-9722-02cda2445e09","","962","
                <div class=""stimulus-container"">
                    <img src=""images/schematic_sequence/hotel_scheme/hotel_scheme_5.png"" class=""exp-image"">
                    <div class=""question-area"">
                        <p style=""font-size: 20px; font-weight: bold; margin: 0;"">Is there a person in this image?</p>
                    </div>
                </div>","0","main_experiment_trial","5","hotel_scheme","schematic_sequence","","","","",""
"","","","","","html-keyboard-response","69","382264","0.0-69.0","996EC505B93C4829BF22C01ABC94A238","019cf070-33a0-7fbc-9b6b-dda72a6f4745","019ceff9-9f67-7034-9722-02cda2445e09","","null","
                <div class=""stimulus-container"">
                    <img src=""images/schematic_sequence/hotel_scheme/hotel_scheme_6.png"" class=""exp-image"">
                    <div class=""question-area""></div> 
                </div>","null","","","","","","","","",""
"","","","","","html-button-response","70","383178","0.0-70.0","996EC505B93C4829BF22C01ABC94A238","019cf070-33a0-7fbc-9b6b-dda72a6f4745","019ceff9-9f67-7034-9722-02cda2445e09","","912","
                <div class=""stimulus-container"">
                    <img src=""images/schematic_sequence/hotel_scheme/hotel_scheme_6.png"" class=""exp-image"">
                    <div class=""question-area"">
                        <p style=""font-size: 20px; font-weight: bold; margin: 0;"">Is there a person in this image?</p>
                    </div>
                </div>","0","main_experiment_trial","6","hotel_scheme","schematic_sequence","","","","",""
"","","","","","html-keyboard-response","71","388180","0.0-71.0","996EC505B93C4829BF22C01ABC94A238","019cf070-33a0-7fbc-9b6b-dda72a6f4745","019ceff9-9f67-7034-9722-02cda2445e09","","null","
                <div class=""stimulus-container"">
                    <img src=""images/schematic_sequence/hotel_scheme/hotel_scheme_7.png"" class=""exp-image"">
                    <div class=""question-area""></div> 
                </div>","null","","","","","","","","",""
"","","","","","html-button-response","72","389528","0.0-72.0","996EC505B93C4829BF22C01ABC94A238","019cf070-33a0-7fbc-9b6b-dda72a6f4745","019ceff9-9f67-7034-9722-02cda2445e09","","1347","
                <div class=""stimulus-container"">
                    <img src=""images/schematic_sequence/hotel_scheme/hotel_scheme_7.png"" class=""exp-image"">
                    <div class=""question-area"">
                        <p style=""font-size: 20px; font-weight: bold; margin: 0;"">Is there a person in this image?</p>
                    </div>
                </div>","0","main_experiment_trial","7","hotel_scheme","schematic_sequence","","","","",""
"","","","","","html-keyboard-response","73","394531","0.0-73.0","996EC505B93C4829BF22C01ABC94A238","019cf070-33a0-7fbc-9b6b-dda72a6f4745","019ceff9-9f67-7034-9722-02cda2445e09","","null","
                <div class=""stimulus-container"">
                    <img src=""images/schematic_sequence/hotel_scheme/hotel_scheme_8.png"" class=""exp-image"">
                    <div class=""question-area""></div> 
                </div>","null","","","","","","","","",""
"","","","","","html-button-response","74","396595","0.0-74.0","996EC505B93C4829BF22C01ABC94A238","019cf070-33a0-7fbc-9b6b-dda72a6f4745","019ceff9-9f67-7034-9722-02cda2445e09","","2062","
                <div class=""stimulus-container"">
                    <img src=""images/schematic_sequence/hotel_scheme/hotel_scheme_8.png"" class=""exp-image"">
                    <div class=""question-area"">
                        <p style=""font-size: 20px; font-weight: bold; margin: 0;"">Is there a person in this image?</p>
                    </div>
                </div>","0","main_experiment_trial","8","hotel_scheme","schematic_sequence","","","","",""
"","","","","","html-keyboard-response","75","401598","0.0-75.0","996EC505B93C4829BF22C01ABC94A238","019cf070-33a0-7fbc-9b6b-dda72a6f4745","019ceff9-9f67-7034-9722-02cda2445e09","","null","
                <div class=""stimulus-container"">
                    <img src=""images/schematic_sequence/hotel_scheme/hotel_scheme_9.png"" class=""exp-image"">
                    <div class=""question-area""></div> 
                </div>","null","","","","","","","","",""
"","","","","","html-button-response","76","402062","0.0-76.0","996EC505B93C4829BF22C01ABC94A238","019cf070-33a0-7fbc-9b6b-dda72a6f4745","019ceff9-9f67-7034-9722-02cda2445e09","","462","
                <div class=""stimulus-container"">
                    <img src=""images/schematic_sequence/hotel_scheme/hotel_scheme_9.png"" class=""exp-image"">
                    <div class=""question-area"">
                        <p style=""font-size: 20px; font-weight: bold; margin: 0;"">Is there a person in this image?</p>
                    </div>
                </div>","0","main_experiment_trial","9","hotel_scheme","schematic_sequence","","","","",""
"","","","","","html-keyboard-response","77","407064","0.0-77.0","996EC505B93C4829BF22C01ABC94A238","019cf070-33a0-7fbc-9b6b-dda72a6f4745","019ceff9-9f67-7034-9722-02cda2445e09","","null","
                <div class=""stimulus-container"">
                    <img src=""images/schematic_sequence/hotel_scheme/hotel_scheme_ten.png"" class=""exp-image"">
                    <div class=""question-area""></div> 
                </div>","null","","","","","","","","",""
"","","","","","html-button-response","78","407478","0.0-78.0","996EC505B93C4829BF22C01ABC94A238","019cf070-33a0-7fbc-9b6b-dda72a6f4745","019ceff9-9f67-7034-9722-02cda2445e09","","413","
                <div class=""stimulus-container"">
                    <img src=""images/schematic_sequence/hotel_scheme/hotel_scheme_ten.png"" class=""exp-image"">
                    <div class=""question-area"">
                        <p style=""font-size: 20px; font-weight: bold; margin: 0;"">Is there a person in this image?</p>
                    </div>
                </div>","0","main_experiment_trial","ten","hotel_scheme","schematic_sequence","","","","",""
"","","","","","html-keyboard-response","79","408480","0.0-79.0","996EC505B93C4829BF22C01ABC94A238","019cf070-33a0-7fbc-9b6b-dda72a6f4745","019ceff9-9f67-7034-9722-02cda2445e09","","null","<div style=""background-color: white; width: 100vw; height: 100vh;""></div>","null","","","","","","","","",""
"","","","","","html-keyboard-response","80","413483","0.0-80.0","996EC505B93C4829BF22C01ABC94A238","019cf070-33a0-7fbc-9b6b-dda72a6f4745","019ceff9-9f67-7034-9722-02cda2445e09","","null","
                <div class=""stimulus-container"">
                    <img src=""images/causal_sequence/museum_causal/museum_causal_1.png"" class=""exp-image"">
                    <div class=""question-area""></div> 
                </div>","null","","","","","","","","",""
"","","","","","html-button-response","81","413928","0.0-81.0","996EC505B93C4829BF22C01ABC94A238","019cf070-33a0-7fbc-9b6b-dda72a6f4745","019ceff9-9f67-7034-9722-02cda2445e09","","443","
                <div class=""stimulus-container"">
                    <img src=""images/causal_sequence/museum_causal/museum_causal_1.png"" class=""exp-image"">
                    <div class=""question-area"">
                        <p style=""font-size: 20px; font-weight: bold; margin: 0;"">Is there a person in this image?</p>
                    </div>
                </div>","0","main_experiment_trial","1","museum_causal","causal_sequence","","","","",""
"","","","","","html-keyboard-response","82","418930","0.0-82.0","996EC505B93C4829BF22C01ABC94A238","019cf070-33a0-7fbc-9b6b-dda72a6f4745","019ceff9-9f67-7034-9722-02cda2445e09","","null","
                <div class=""stimulus-container"">
                    <img src=""images/causal_sequence/museum_causal/museum_causal_2.png"" class=""exp-image"">
                    <div class=""question-area""></div> 
                </div>","null","","","","","","","","",""
"","","","","","html-button-response","83","419761","0.0-83.0","996EC505B93C4829BF22C01ABC94A238","019cf070-33a0-7fbc-9b6b-dda72a6f4745","019ceff9-9f67-7034-9722-02cda2445e09","","829","
                <div class=""stimulus-container"">
                    <img src=""images/causal_sequence/museum_causal/museum_causal_2.png"" class=""exp-image"">
                    <div class=""question-area"">
                        <p style=""font-size: 20px; font-weight: bold; margin: 0;"">Is there a person in this image?</p>
                    </div>
                </div>","1","main_experiment_trial","2","museum_causal","causal_sequence","","","","",""
"","","","","","html-keyboard-response","84","424763","0.0-84.0","996EC505B93C4829BF22C01ABC94A238","019cf070-33a0-7fbc-9b6b-dda72a6f4745","019ceff9-9f67-7034-9722-02cda2445e09","","null","
                <div class=""stimulus-container"">
                    <img src=""images/causal_sequence/museum_causal/museum_causal_3.png"" class=""exp-image"">
                    <div class=""question-area""></div> 
                </div>","null","","","","","","","","",""
"","","","","","html-button-response","85","425642","0.0-85.0","996EC505B93C4829BF22C01ABC94A238","019cf070-33a0-7fbc-9b6b-dda72a6f4745","019ceff9-9f67-7034-9722-02cda2445e09","","877","
                <div class=""stimulus-container"">
                    <img src=""images/causal_sequence/museum_causal/museum_causal_3.png"" class=""exp-image"">
                    <div class=""question-area"">
                        <p style=""font-size: 20px; font-weight: bold; margin: 0;"">Is there a person in this image?</p>
                    </div>
                </div>","0","main_experiment_trial","3","museum_causal","causal_sequence","","","","",""
"","","","","","html-keyboard-response","86","430645","0.0-86.0","996EC505B93C4829BF22C01ABC94A238","019cf070-33a0-7fbc-9b6b-dda72a6f4745","019ceff9-9f67-7034-9722-02cda2445e09","","null","
                <div class=""stimulus-container"">
                    <img src=""images/causal_sequence/museum_causal/museum_causal_4.png"" class=""exp-image"">
                    <div class=""question-area""></div> 
                </div>","null","","","","","","","","",""
"","","","","","html-button-response","87","433648","0.0-87.0","996EC505B93C4829BF22C01ABC94A238","019cf070-33a0-7fbc-9b6b-dda72a6f4745","019ceff9-9f67-7034-9722-02cda2445e09","","null","
                <div class=""stimulus-container"">
                    <img src=""images/causal_sequence/museum_causal/museum_causal_4.png"" class=""exp-image"">
                    <div class=""question-area"">
                        <p style=""font-size: 20px; font-weight: bold; margin: 0;"">Is there a person in this image?</p>
                    </div>
                </div>","null","main_experiment_trial","4","museum_causal","causal_sequence","","","","",""
"","","","","","html-keyboard-response","88","438651","0.0-88.0","996EC505B93C4829BF22C01ABC94A238","019cf070-33a0-7fbc-9b6b-dda72a6f4745","019ceff9-9f67-7034-9722-02cda2445e09","","null","
                <div class=""stimulus-container"">
                    <img src=""images/causal_sequence/museum_causal/museum_causal_5.png"" class=""exp-image"">
                    <div class=""question-area""></div> 
                </div>","null","","","","","","","","",""
"","","","","","html-button-response","89","439628","0.0-89.0","996EC505B93C4829BF22C01ABC94A238","019cf070-33a0-7fbc-9b6b-dda72a6f4745","019ceff9-9f67-7034-9722-02cda2445e09","","975","
                <div class=""stimulus-container"">
                    <img src=""images/causal_sequence/museum_causal/museum_causal_5.png"" class=""exp-image"">
                    <div class=""question-area"">
                        <p style=""font-size: 20px; font-weight: bold; margin: 0;"">Is there a person in this image?</p>
                    </div>
                </div>","0","main_experiment_trial","5","museum_causal","causal_sequence","","","","",""
"","","","","","html-keyboard-response","90","444630","0.0-90.0","996EC505B93C4829BF22C01ABC94A238","019cf070-33a0-7fbc-9b6b-dda72a6f4745","019ceff9-9f67-7034-9722-02cda2445e09","","null","
                <div class=""stimulus-container"">
                    <img src=""images/causal_sequence/museum_causal/museum_causal_6.png"" class=""exp-image"">
                    <div class=""question-area""></div> 
                </div>","null","","","","","","","","",""
"","","","","","html-button-response","91","445044","0.0-91.0","996EC505B93C4829BF22C01ABC94A238","019cf070-33a0-7fbc-9b6b-dda72a6f4745","019ceff9-9f67-7034-9722-02cda2445e09","","412","
                <div class=""stimulus-container"">
                    <img src=""images/causal_sequence/museum_causal/museum_causal_6.png"" class=""exp-image"">
                    <div class=""question-area"">
                        <p style=""font-size: 20px; font-weight: bold; margin: 0;"">Is there a person in this image?</p>
                    </div>
                </div>","0","main_experiment_trial","6","museum_causal","causal_sequence","","","","",""
"","","","","","html-keyboard-response","92","450047","0.0-92.0","996EC505B93C4829BF22C01ABC94A238","019cf070-33a0-7fbc-9b6b-dda72a6f4745","019ceff9-9f67-7034-9722-02cda2445e09","","null","
                <div class=""stimulus-container"">
                    <img src=""images/causal_sequence/museum_causal/museum_causal_7.png"" class=""exp-image"">
                    <div class=""question-area""></div> 
                </div>","null","","","","","","","","",""
"","","","","","html-button-response","93","451428","0.0-93.0","996EC505B93C4829BF22C01ABC94A238","019cf070-33a0-7fbc-9b6b-dda72a6f4745","019ceff9-9f67-7034-9722-02cda2445e09","","1379","
                <div class=""stimulus-container"">
                    <img src=""images/causal_sequence/museum_causal/museum_causal_7.png"" class=""exp-image"">
                    <div class=""question-area"">
                        <p style=""font-size: 20px; font-weight: bold; margin: 0;"">Is there a person in this image?</p>
                    </div>
                </div>","1","main_experiment_trial","7","museum_causal","causal_sequence","","","","",""
"","","","","","html-keyboard-response","94","456430","0.0-94.0","996EC505B93C4829BF22C01ABC94A238","019cf070-33a0-7fbc-9b6b-dda72a6f4745","019ceff9-9f67-7034-9722-02cda2445e09","","null","
                <div class=""stimulus-container"">
                    <img src=""images/causal_sequence/museum_causal/museum_causal_8.png"" class=""exp-image"">
                    <div class=""question-area""></div> 
                </div>","null","","","","","","","","",""
"","","","","","html-button-response","95","456794","0.0-95.0","996EC505B93C4829BF22C01ABC94A238","019cf070-33a0-7fbc-9b6b-dda72a6f4745","019ceff9-9f67-7034-9722-02cda2445e09","","362","
                <div class=""stimulus-container"">
                    <img src=""images/causal_sequence/museum_causal/museum_causal_8.png"" class=""exp-image"">
                    <div class=""question-area"">
                        <p style=""font-size: 20px; font-weight: bold; margin: 0;"">Is there a person in this image?</p>
                    </div>
                </div>","0","main_experiment_trial","8","museum_causal","causal_sequence","","","","",""
"","","","","","html-keyboard-response","96","461797","0.0-96.0","996EC505B93C4829BF22C01ABC94A238","019cf070-33a0-7fbc-9b6b-dda72a6f4745","019ceff9-9f67-7034-9722-02cda2445e09","","null","
                <div class=""stimulus-container"">
                    <img src=""images/causal_sequence/museum_causal/museum_causal_9.png"" class=""exp-image"">
                    <div class=""question-area""></div> 
                </div>","null","","","","","","","","",""
"","","","","","html-button-response","97","462211","0.0-97.0","996EC505B93C4829BF22C01ABC94A238","019cf070-33a0-7fbc-9b6b-dda72a6f4745","019ceff9-9f67-7034-9722-02cda2445e09","","412","
                <div class=""stimulus-container"">
                    <img src=""images/causal_sequence/museum_causal/museum_causal_9.png"" class=""exp-image"">
                    <div class=""question-area"">
                        <p style=""font-size: 20px; font-weight: bold; margin: 0;"">Is there a person in this image?</p>
                    </div>
                </div>","1","main_experiment_trial","9","museum_causal","causal_sequence","","","","",""
"","","","","","html-keyboard-response","98","467214","0.0-98.0","996EC505B93C4829BF22C01ABC94A238","019cf070-33a0-7fbc-9b6b-dda72a6f4745","019ceff9-9f67-7034-9722-02cda2445e09","","null","
                <div class=""stimulus-container"">
                    <img src=""images/causal_sequence/museum_causal/museum_causal_ten.png"" class=""exp-image"">
                    <div class=""question-area""></div> 
                </div>","null","","","","","","","","",""
"","","","","","html-button-response","99","467827","0.0-99.0","996EC505B93C4829BF22C01ABC94A238","019cf070-33a0-7fbc-9b6b-dda72a6f4745","019ceff9-9f67-7034-9722-02cda2445e09","","611","
                <div class=""stimulus-container"">
                    <img src=""images/causal_sequence/museum_causal/museum_causal_ten.png"" class=""exp-image"">
                    <div class=""question-area"">
                        <p style=""font-size: 20px; font-weight: bold; margin: 0;"">Is there a person in this image?</p>
                    </div>
                </div>","0","main_experiment_trial","ten","museum_causal","causal_sequence","","","","",""
"","","","","","html-keyboard-response","100","468828","0.0-100.0","996EC505B93C4829BF22C01ABC94A238","019cf070-33a0-7fbc-9b6b-dda72a6f4745","019ceff9-9f67-7034-9722-02cda2445e09","","null","<div style=""background-color: white; width: 100vw; height: 100vh;""></div>","null","","","","","","","","",""
"","","","","","html-keyboard-response","101","473831","0.0-101.0","996EC505B93C4829BF22C01ABC94A238","019cf070-33a0-7fbc-9b6b-dda72a6f4745","019ceff9-9f67-7034-9722-02cda2445e09","","null","
                <div class=""stimulus-container"">
                    <img src=""images/causal_sequence/saving_a_cat_causal/saving_a_cat_causal_1.png"" class=""exp-image"">
                    <div class=""question-area""></div> 
                </div>","null","","","","","","","","",""
"","","","","","html-button-response","102","474360","0.0-102.0","996EC505B93C4829BF22C01ABC94A238","019cf070-33a0-7fbc-9b6b-dda72a6f4745","019ceff9-9f67-7034-9722-02cda2445e09","","528","
                <div class=""stimulus-container"">
                    <img src=""images/causal_sequence/saving_a_cat_causal/saving_a_cat_causal_1.png"" class=""exp-image"">
                    <div class=""question-area"">
                        <p style=""font-size: 20px; font-weight: bold; margin: 0;"">Is there a person in this image?</p>
                    </div>
                </div>","0","main_experiment_trial","1","saving_a_cat_causal","causal_sequence","","","","",""
"","","","","","html-keyboard-response","103","479362","0.0-103.0","996EC505B93C4829BF22C01ABC94A238","019cf070-33a0-7fbc-9b6b-dda72a6f4745","019ceff9-9f67-7034-9722-02cda2445e09","","null","
                <div class=""stimulus-container"">
                    <img src=""images/causal_sequence/saving_a_cat_causal/saving_a_cat_causal_2.png"" class=""exp-image"">
                    <div class=""question-area""></div> 
                </div>","null","","","","","","","","",""
"","","","","","html-button-response","104","481177","0.0-104.0","996EC505B93C4829BF22C01ABC94A238","019cf070-33a0-7fbc-9b6b-dda72a6f4745","019ceff9-9f67-7034-9722-02cda2445e09","","1813","
                <div class=""stimulus-container"">
                    <img src=""images/causal_sequence/saving_a_cat_causal/saving_a_cat_causal_2.png"" class=""exp-image"">
                    <div class=""question-area"">
                        <p style=""font-size: 20px; font-weight: bold; margin: 0;"">Is there a person in this image?</p>
                    </div>
                </div>","1","main_experiment_trial","2","saving_a_cat_causal","causal_sequence","","","","",""
"","","","","","html-keyboard-response","105","486180","0.0-105.0","996EC505B93C4829BF22C01ABC94A238","019cf070-33a0-7fbc-9b6b-dda72a6f4745","019ceff9-9f67-7034-9722-02cda2445e09","","null","
                <div class=""stimulus-container"">
                    <img src=""images/causal_sequence/saving_a_cat_causal/saving_a_cat_causal_3.png"" class=""exp-image"">
                    <div class=""question-area""></div> 
                </div>","null","","","","","","","","",""
"","","","","","html-button-response","106","486844","0.0-106.0","996EC505B93C4829BF22C01ABC94A238","019cf070-33a0-7fbc-9b6b-dda72a6f4745","019ceff9-9f67-7034-9722-02cda2445e09","","662","
                <div class=""stimulus-container"">
                    <img src=""images/causal_sequence/saving_a_cat_causal/saving_a_cat_causal_3.png"" class=""exp-image"">
                    <div class=""question-area"">
                        <p style=""font-size: 20px; font-weight: bold; margin: 0;"">Is there a person in this image?</p>
                    </div>
                </div>","1","main_experiment_trial","3","saving_a_cat_causal","causal_sequence","","","","",""
"","","","","","html-keyboard-response","107","491847","0.0-107.0","996EC505B93C4829BF22C01ABC94A238","019cf070-33a0-7fbc-9b6b-dda72a6f4745","019ceff9-9f67-7034-9722-02cda2445e09","","null","
                <div class=""stimulus-container"">
                    <img src=""images/causal_sequence/saving_a_cat_causal/saving_a_cat_causal_4.png"" class=""exp-image"">
                    <div class=""question-area""></div> 
                </div>","null","","","","","","","","",""
"","","","","","html-button-response","108","492910","0.0-108.0","996EC505B93C4829BF22C01ABC94A238","019cf070-33a0-7fbc-9b6b-dda72a6f4745","019ceff9-9f67-7034-9722-02cda2445e09","","1062","
                <div class=""stimulus-container"">
                    <img src=""images/causal_sequence/saving_a_cat_causal/saving_a_cat_causal_4.png"" class=""exp-image"">
                    <div class=""question-area"">
                        <p style=""font-size: 20px; font-weight: bold; margin: 0;"">Is there a person in this image?</p>
                    </div>
                </div>","0","main_experiment_trial","4","saving_a_cat_causal","causal_sequence","","","","",""
"","","","","","html-keyboard-response","109","497913","0.0-109.0","996EC505B93C4829BF22C01ABC94A238","019cf070-33a0-7fbc-9b6b-dda72a6f4745","019ceff9-9f67-7034-9722-02cda2445e09","","null","
                <div class=""stimulus-container"">
                    <img src=""images/causal_sequence/saving_a_cat_causal/saving_a_cat_causal_5.png"" class=""exp-image"">
                    <div class=""question-area""></div> 
                </div>","null","","","","","","","","",""
"","","","","","html-button-response","110","500028","0.0-110.0","996EC505B93C4829BF22C01ABC94A238","019cf070-33a0-7fbc-9b6b-dda72a6f4745","019ceff9-9f67-7034-9722-02cda2445e09","","2113","
                <div class=""stimulus-container"">
                    <img src=""images/causal_sequence/saving_a_cat_causal/saving_a_cat_causal_5.png"" class=""exp-image"">
                    <div class=""question-area"">
                        <p style=""font-size: 20px; font-weight: bold; margin: 0;"">Is there a person in this image?</p>
                    </div>
                </div>","0","main_experiment_trial","5","saving_a_cat_causal","causal_sequence","","","","",""
"","","","","","html-keyboard-response","111","505030","0.0-111.0","996EC505B93C4829BF22C01ABC94A238","019cf070-33a0-7fbc-9b6b-dda72a6f4745","019ceff9-9f67-7034-9722-02cda2445e09","","null","
                <div class=""stimulus-container"">
                    <img src=""images/causal_sequence/saving_a_cat_causal/saving_a_cat_causal_6.png"" class=""exp-image"">
                    <div class=""question-area""></div> 
                </div>","null","","","","","","","","",""
"","","","","","html-button-response","112","505745","0.0-112.0","996EC505B93C4829BF22C01ABC94A238","019cf070-33a0-7fbc-9b6b-dda72a6f4745","019ceff9-9f67-7034-9722-02cda2445e09","","712","
                <div class=""stimulus-container"">
                    <img src=""images/causal_sequence/saving_a_cat_causal/saving_a_cat_causal_6.png"" class=""exp-image"">
                    <div class=""question-area"">
                        <p style=""font-size: 20px; font-weight: bold; margin: 0;"">Is there a person in this image?</p>
                    </div>
                </div>","0","main_experiment_trial","6","saving_a_cat_causal","causal_sequence","","","","",""
"","","","","","html-keyboard-response","113","510748","0.0-113.0","996EC505B93C4829BF22C01ABC94A238","019cf070-33a0-7fbc-9b6b-dda72a6f4745","019ceff9-9f67-7034-9722-02cda2445e09","","null","
                <div class=""stimulus-container"">
                    <img src=""images/causal_sequence/saving_a_cat_causal/saving_a_cat_causal_7.png"" class=""exp-image"">
                    <div class=""question-area""></div> 
                </div>","null","","","","","","","","",""
"","","","","","html-button-response","114","511428","0.0-114.0","996EC505B93C4829BF22C01ABC94A238","019cf070-33a0-7fbc-9b6b-dda72a6f4745","019ceff9-9f67-7034-9722-02cda2445e09","","679","
                <div class=""stimulus-container"">
                    <img src=""images/causal_sequence/saving_a_cat_causal/saving_a_cat_causal_7.png"" class=""exp-image"">
                    <div class=""question-area"">
                        <p style=""font-size: 20px; font-weight: bold; margin: 0;"">Is there a person in this image?</p>
                    </div>
                </div>","0","main_experiment_trial","7","saving_a_cat_causal","causal_sequence","","","","",""
"","","","","","html-keyboard-response","115","516430","0.0-115.0","996EC505B93C4829BF22C01ABC94A238","019cf070-33a0-7fbc-9b6b-dda72a6f4745","019ceff9-9f67-7034-9722-02cda2445e09","","null","
                <div class=""stimulus-container"">
                    <img src=""images/causal_sequence/saving_a_cat_causal/saving_a_cat_causal_8.png"" class=""exp-image"">
                    <div class=""question-area""></div> 
                </div>","null","","","","","","","","",""
"","","","","","html-button-response","116","517478","0.0-116.0","996EC505B93C4829BF22C01ABC94A238","019cf070-33a0-7fbc-9b6b-dda72a6f4745","019ceff9-9f67-7034-9722-02cda2445e09","","1045","
                <div class=""stimulus-container"">
                    <img src=""images/causal_sequence/saving_a_cat_causal/saving_a_cat_causal_8.png"" class=""exp-image"">
                    <div class=""question-area"">
                        <p style=""font-size: 20px; font-weight: bold; margin: 0;"">Is there a person in this image?</p>
                    </div>
                </div>","0","main_experiment_trial","8","saving_a_cat_causal","causal_sequence","","","","",""
"","","","","","html-keyboard-response","117","522480","0.0-117.0","996EC505B93C4829BF22C01ABC94A238","019cf070-33a0-7fbc-9b6b-dda72a6f4745","019ceff9-9f67-7034-9722-02cda2445e09","","null","
                <div class=""stimulus-container"">
                    <img src=""images/causal_sequence/saving_a_cat_causal/saving_a_cat_causal_9.png"" class=""exp-image"">
                    <div class=""question-area""></div> 
                </div>","null","","","","","","","","",""
"","","","","","html-button-response","118","524160","0.0-118.0","996EC505B93C4829BF22C01ABC94A238","019cf070-33a0-7fbc-9b6b-dda72a6f4745","019ceff9-9f67-7034-9722-02cda2445e09","","1678","
                <div class=""stimulus-container"">
                    <img src=""images/causal_sequence/saving_a_cat_causal/saving_a_cat_causal_9.png"" class=""exp-image"">
                    <div class=""question-area"">
                        <p style=""font-size: 20px; font-weight: bold; margin: 0;"">Is there a person in this image?</p>
                    </div>
                </div>","0","main_experiment_trial","9","saving_a_cat_causal","causal_sequence","","","","",""
"","","","","","html-keyboard-response","119","529163","0.0-119.0","996EC505B93C4829BF22C01ABC94A238","019cf070-33a0-7fbc-9b6b-dda72a6f4745","019ceff9-9f67-7034-9722-02cda2445e09","","null","
                <div class=""stimulus-container"">
                    <img src=""images/causal_sequence/saving_a_cat_causal/saving_a_cat_causal_ten.png"" class=""exp-image"">
                    <div class=""question-area""></div> 
                </div>","null","","","","","","","","",""
"","","","","","html-button-response","120","529927","0.0-120.0","996EC505B93C4829BF22C01ABC94A238","019cf070-33a0-7fbc-9b6b-dda72a6f4745","019ceff9-9f67-7034-9722-02cda2445e09","","762","
                <div class=""stimulus-container"">
                    <img src=""images/causal_sequence/saving_a_cat_causal/saving_a_cat_causal_ten.png"" class=""exp-image"">
                    <div class=""question-area"">
                        <p style=""font-size: 20px; font-weight: bold; margin: 0;"">Is there a person in this image?</p>
                    </div>
                </div>","0","main_experiment_trial","ten","saving_a_cat_causal","causal_sequence","","","","",""
"","","","","","html-keyboard-response","121","530929","0.0-121.0","996EC505B93C4829BF22C01ABC94A238","019cf070-33a0-7fbc-9b6b-dda72a6f4745","019ceff9-9f67-7034-9722-02cda2445e09","","null","<div style=""background-color: white; width: 100vw; height: 100vh;""></div>","null","","","","","","","","",""
"","","","","","html-keyboard-response","122","535931","0.0-122.0","996EC505B93C4829BF22C01ABC94A238","019cf070-33a0-7fbc-9b6b-dda72a6f4745","019ceff9-9f67-7034-9722-02cda2445e09","","null","
                <div class=""stimulus-container"">
                    <img src=""images/schematic_sequence/dinner_party_scheme/dinner_party_scheme_1.png"" class=""exp-image"">
                    <div class=""question-area""></div> 
                </div>","null","","","","","","","","",""
"","","","","","html-button-response","123","536561","0.0-123.0","996EC505B93C4829BF22C01ABC94A238","019cf070-33a0-7fbc-9b6b-dda72a6f4745","019ceff9-9f67-7034-9722-02cda2445e09","","629","
                <div class=""stimulus-container"">
                    <img src=""images/schematic_sequence/dinner_party_scheme/dinner_party_scheme_1.png"" class=""exp-image"">
                    <div class=""question-area"">
                        <p style=""font-size: 20px; font-weight: bold; margin: 0;"">Is there a person in this image?</p>
                    </div>
                </div>","0","main_experiment_trial","1","dinner_party_scheme","schematic_sequence","","","","",""
"","","","","","html-keyboard-response","124","541564","0.0-124.0","996EC505B93C4829BF22C01ABC94A238","019cf070-33a0-7fbc-9b6b-dda72a6f4745","019ceff9-9f67-7034-9722-02cda2445e09","","null","
                <div class=""stimulus-container"">
                    <img src=""images/schematic_sequence/dinner_party_scheme/dinner_party_scheme_2.png"" class=""exp-image"">
                    <div class=""question-area""></div> 
                </div>","null","","","","","","","","",""
"","","","","","html-button-response","125","543045","0.0-125.0","996EC505B93C4829BF22C01ABC94A238","019cf070-33a0-7fbc-9b6b-dda72a6f4745","019ceff9-9f67-7034-9722-02cda2445e09","","1479","
                <div class=""stimulus-container"">
                    <img src=""images/schematic_sequence/dinner_party_scheme/dinner_party_scheme_2.png"" class=""exp-image"">
                    <div class=""question-area"">
                        <p style=""font-size: 20px; font-weight: bold; margin: 0;"">Is there a person in this image?</p>
                    </div>
                </div>","1","main_experiment_trial","2","dinner_party_scheme","schematic_sequence","","","","",""
"","","","","","html-keyboard-response","126","548046","0.0-126.0","996EC505B93C4829BF22C01ABC94A238","019cf070-33a0-7fbc-9b6b-dda72a6f4745","019ceff9-9f67-7034-9722-02cda2445e09","","null","
                <div class=""stimulus-container"">
                    <img src=""images/schematic_sequence/dinner_party_scheme/dinner_party_scheme_3.png"" class=""exp-image"">
                    <div class=""question-area""></div> 
                </div>","null","","","","","","","","",""
"","","","","","html-button-response","127","548994","0.0-127.0","996EC505B93C4829BF22C01ABC94A238","019cf070-33a0-7fbc-9b6b-dda72a6f4745","019ceff9-9f67-7034-9722-02cda2445e09","","946","
                <div class=""stimulus-container"">
                    <img src=""images/schematic_sequence/dinner_party_scheme/dinner_party_scheme_3.png"" class=""exp-image"">
                    <div class=""question-area"">
                        <p style=""font-size: 20px; font-weight: bold; margin: 0;"">Is there a person in this image?</p>
                    </div>
                </div>","0","main_experiment_trial","3","dinner_party_scheme","schematic_sequence","","","","",""
"","","","","","html-keyboard-response","128","553997","0.0-128.0","996EC505B93C4829BF22C01ABC94A238","019cf070-33a0-7fbc-9b6b-dda72a6f4745","019ceff9-9f67-7034-9722-02cda2445e09","","null","
                <div class=""stimulus-container"">
                    <img src=""images/schematic_sequence/dinner_party_scheme/dinner_party_scheme_4.png"" class=""exp-image"">
                    <div class=""question-area""></div> 
                </div>","null","","","","","","","","",""
"","","","","","html-button-response","129","554893","0.0-129.0","996EC505B93C4829BF22C01ABC94A238","019cf070-33a0-7fbc-9b6b-dda72a6f4745","019ceff9-9f67-7034-9722-02cda2445e09","","895","
                <div class=""stimulus-container"">
                    <img src=""images/schematic_sequence/dinner_party_scheme/dinner_party_scheme_4.png"" class=""exp-image"">
                    <div class=""question-area"">
                        <p style=""font-size: 20px; font-weight: bold; margin: 0;"">Is there a person in this image?</p>
                    </div>
                </div>","0","main_experiment_trial","4","dinner_party_scheme","schematic_sequence","","","","",""
"","","","","","html-keyboard-response","130","559896","0.0-130.0","996EC505B93C4829BF22C01ABC94A238","019cf070-33a0-7fbc-9b6b-dda72a6f4745","019ceff9-9f67-7034-9722-02cda2445e09","","null","
                <div class=""stimulus-container"">
                    <img src=""images/schematic_sequence/dinner_party_scheme/dinner_party_scheme_5.png"" class=""exp-image"">
                    <div class=""question-area""></div> 
                </div>","null","","","","","","","","",""
"","","","","","html-button-response","131","561777","0.0-131.0","996EC505B93C4829BF22C01ABC94A238","019cf070-33a0-7fbc-9b6b-dda72a6f4745","019ceff9-9f67-7034-9722-02cda2445e09","","1880","
                <div class=""stimulus-container"">
                    <img src=""images/schematic_sequence/dinner_party_scheme/dinner_party_scheme_5.png"" class=""exp-image"">
                    <div class=""question-area"">
                        <p style=""font-size: 20px; font-weight: bold; margin: 0;"">Is there a person in this image?</p>
                    </div>
                </div>","0","main_experiment_trial","5","dinner_party_scheme","schematic_sequence","","","","",""
"","","","","","html-keyboard-response","132","566780","0.0-132.0","996EC505B93C4829BF22C01ABC94A238","019cf070-33a0-7fbc-9b6b-dda72a6f4745","019ceff9-9f67-7034-9722-02cda2445e09","","null","
                <div class=""stimulus-container"">
                    <img src=""images/schematic_sequence/dinner_party_scheme/dinner_party_scheme_6.png"" class=""exp-image"">
                    <div class=""question-area""></div> 
                </div>","null","","","","","","","","",""
"","","","","","html-button-response","133","567727","0.0-133.0","996EC505B93C4829BF22C01ABC94A238","019cf070-33a0-7fbc-9b6b-dda72a6f4745","019ceff9-9f67-7034-9722-02cda2445e09","","946","
                <div class=""stimulus-container"">
                    <img src=""images/schematic_sequence/dinner_party_scheme/dinner_party_scheme_6.png"" class=""exp-image"">
                    <div class=""question-area"">
                        <p style=""font-size: 20px; font-weight: bold; margin: 0;"">Is there a person in this image?</p>
                    </div>
                </div>","0","main_experiment_trial","6","dinner_party_scheme","schematic_sequence","","","","",""
"","","","","","html-keyboard-response","134","572731","0.0-134.0","996EC505B93C4829BF22C01ABC94A238","019cf070-33a0-7fbc-9b6b-dda72a6f4745","019ceff9-9f67-7034-9722-02cda2445e09","","null","
                <div class=""stimulus-container"">
                    <img src=""images/schematic_sequence/dinner_party_scheme/dinner_party_scheme_7.png"" class=""exp-image"">
                    <div class=""question-area""></div> 
                </div>","null","","","","","","","","",""
"","","","","","html-button-response","135","573728","0.0-135.0","996EC505B93C4829BF22C01ABC94A238","019cf070-33a0-7fbc-9b6b-dda72a6f4745","019ceff9-9f67-7034-9722-02cda2445e09","","996","
                <div class=""stimulus-container"">
                    <img src=""images/schematic_sequence/dinner_party_scheme/dinner_party_scheme_7.png"" class=""exp-image"">
                    <div class=""question-area"">
                        <p style=""font-size: 20px; font-weight: bold; margin: 0;"">Is there a person in this image?</p>
                    </div>
                </div>","0","main_experiment_trial","7","dinner_party_scheme","schematic_sequence","","","","",""
"","","","","","html-keyboard-response","136","578730","0.0-136.0","996EC505B93C4829BF22C01ABC94A238","019cf070-33a0-7fbc-9b6b-dda72a6f4745","019ceff9-9f67-7034-9722-02cda2445e09","","null","
                <div class=""stimulus-container"">
                    <img src=""images/schematic_sequence/dinner_party_scheme/dinner_party_scheme_8.png"" class=""exp-image"">
                    <div class=""question-area""></div> 
                </div>","null","","","","","","","","",""
"","","","","","html-button-response","137","580444","0.0-137.0","996EC505B93C4829BF22C01ABC94A238","019cf070-33a0-7fbc-9b6b-dda72a6f4745","019ceff9-9f67-7034-9722-02cda2445e09","","1712","
                <div class=""stimulus-container"">
                    <img src=""images/schematic_sequence/dinner_party_scheme/dinner_party_scheme_8.png"" class=""exp-image"">
                    <div class=""question-area"">
                        <p style=""font-size: 20px; font-weight: bold; margin: 0;"">Is there a person in this image?</p>
                    </div>
                </div>","0","main_experiment_trial","8","dinner_party_scheme","schematic_sequence","","","","",""
"","","","","","html-keyboard-response","138","585447","0.0-138.0","996EC505B93C4829BF22C01ABC94A238","019cf070-33a0-7fbc-9b6b-dda72a6f4745","019ceff9-9f67-7034-9722-02cda2445e09","","null","
                <div class=""stimulus-container"">
                    <img src=""images/schematic_sequence/dinner_party_scheme/dinner_party_scheme_9.png"" class=""exp-image"">
                    <div class=""question-area""></div> 
                </div>","null","","","","","","","","",""
"","","","","","html-button-response","139","586660","0.0-139.0","996EC505B93C4829BF22C01ABC94A238","019cf070-33a0-7fbc-9b6b-dda72a6f4745","019ceff9-9f67-7034-9722-02cda2445e09","","1212","
                <div class=""stimulus-container"">
                    <img src=""images/schematic_sequence/dinner_party_scheme/dinner_party_scheme_9.png"" class=""exp-image"">
                    <div class=""question-area"">
                        <p style=""font-size: 20px; font-weight: bold; margin: 0;"">Is there a person in this image?</p>
                    </div>
                </div>","0","main_experiment_trial","9","dinner_party_scheme","schematic_sequence","","","","",""
"","","","","","html-keyboard-response","140","591663","0.0-140.0","996EC505B93C4829BF22C01ABC94A238","019cf070-33a0-7fbc-9b6b-dda72a6f4745","019ceff9-9f67-7034-9722-02cda2445e09","","null","
                <div class=""stimulus-container"">
                    <img src=""images/schematic_sequence/dinner_party_scheme/dinner_party_scheme_ten.png"" class=""exp-image"">
                    <div class=""question-area""></div> 
                </div>","null","","","","","","","","",""
"","","","","","html-button-response","141","592210","0.0-141.0","996EC505B93C4829BF22C01ABC94A238","019cf070-33a0-7fbc-9b6b-dda72a6f4745","019ceff9-9f67-7034-9722-02cda2445e09","","545","
                <div class=""stimulus-container"">
                    <img src=""images/schematic_sequence/dinner_party_scheme/dinner_party_scheme_ten.png"" class=""exp-image"">
                    <div class=""question-area"">
                        <p style=""font-size: 20px; font-weight: bold; margin: 0;"">Is there a person in this image?</p>
                    </div>
                </div>","0","main_experiment_trial","ten","dinner_party_scheme","schematic_sequence","","","","",""
"","","","","","html-keyboard-response","142","593211","0.0-142.0","996EC505B93C4829BF22C01ABC94A238","019cf070-33a0-7fbc-9b6b-dda72a6f4745","019ceff9-9f67-7034-9722-02cda2445e09","","null","<div style=""background-color: white; width: 100vw; height: 100vh;""></div>","null","","","","","","","","",""
"","","","","","html-keyboard-response","143","598214","0.0-143.0","996EC505B93C4829BF22C01ABC94A238","019cf070-33a0-7fbc-9b6b-dda72a6f4745","019ceff9-9f67-7034-9722-02cda2445e09","","null","
                <div class=""stimulus-container"">
                    <img src=""images/schematic_sequence/flight_scheme/flight_scheme_1.png"" class=""exp-image"">
                    <div class=""question-area""></div> 
                </div>","null","","","","","","","","",""
"","","","","","html-button-response","144","599328","0.0-144.0","996EC505B93C4829BF22C01ABC94A238","019cf070-33a0-7fbc-9b6b-dda72a6f4745","019ceff9-9f67-7034-9722-02cda2445e09","","1112","
                <div class=""stimulus-container"">
                    <img src=""images/schematic_sequence/flight_scheme/flight_scheme_1.png"" class=""exp-image"">
                    <div class=""question-area"">
                        <p style=""font-size: 20px; font-weight: bold; margin: 0;"">Is there a person in this image?</p>
                    </div>
                </div>","1","main_experiment_trial","1","flight_scheme","schematic_sequence","","","","",""
"","","","","","html-keyboard-response","145","604330","0.0-145.0","996EC505B93C4829BF22C01ABC94A238","019cf070-33a0-7fbc-9b6b-dda72a6f4745","019ceff9-9f67-7034-9722-02cda2445e09","","null","
                <div class=""stimulus-container"">
                    <img src=""images/schematic_sequence/flight_scheme/flight_scheme_2.png"" class=""exp-image"">
                    <div class=""question-area""></div> 
                </div>","null","","","","","","","","",""
"","","","","","html-button-response","146","604944","0.0-146.0","996EC505B93C4829BF22C01ABC94A238","019cf070-33a0-7fbc-9b6b-dda72a6f4745","019ceff9-9f67-7034-9722-02cda2445e09","","611","
                <div class=""stimulus-container"">
                    <img src=""images/schematic_sequence/flight_scheme/flight_scheme_2.png"" class=""exp-image"">
                    <div class=""question-area"">
                        <p style=""font-size: 20px; font-weight: bold; margin: 0;"">Is there a person in this image?</p>
                    </div>
                </div>","1","main_experiment_trial","2","flight_scheme","schematic_sequence","","","","",""
"","","","","","html-keyboard-response","147","609946","0.0-147.0","996EC505B93C4829BF22C01ABC94A238","019cf070-33a0-7fbc-9b6b-dda72a6f4745","019ceff9-9f67-7034-9722-02cda2445e09","","null","
                <div class=""stimulus-container"">
                    <img src=""images/schematic_sequence/flight_scheme/flight_scheme_3.png"" class=""exp-image"">
                    <div class=""question-area""></div> 
                </div>","null","","","","","","","","",""
"","","","","","html-button-response","148","612843","0.0-148.0","996EC505B93C4829BF22C01ABC94A238","019cf070-33a0-7fbc-9b6b-dda72a6f4745","019ceff9-9f67-7034-9722-02cda2445e09","","2895","
                <div class=""stimulus-container"">
                    <img src=""images/schematic_sequence/flight_scheme/flight_scheme_3.png"" class=""exp-image"">
                    <div class=""question-area"">
                        <p style=""font-size: 20px; font-weight: bold; margin: 0;"">Is there a person in this image?</p>
                    </div>
                </div>","0","main_experiment_trial","3","flight_scheme","schematic_sequence","","","","",""
"","","","","","html-keyboard-response","149","617846","0.0-149.0","996EC505B93C4829BF22C01ABC94A238","019cf070-33a0-7fbc-9b6b-dda72a6f4745","019ceff9-9f67-7034-9722-02cda2445e09","","null","
                <div class=""stimulus-container"">
                    <img src=""images/schematic_sequence/flight_scheme/flight_scheme_4.png"" class=""exp-image"">
                    <div class=""question-area""></div> 
                </div>","null","","","","","","","","",""
"","","","","","html-button-response","150","618410","0.0-150.0","996EC505B93C4829BF22C01ABC94A238","019cf070-33a0-7fbc-9b6b-dda72a6f4745","019ceff9-9f67-7034-9722-02cda2445e09","","563","
                <div class=""stimulus-container"">
                    <img src=""images/schematic_sequence/flight_scheme/flight_scheme_4.png"" class=""exp-image"">
                    <div class=""question-area"">
                        <p style=""font-size: 20px; font-weight: bold; margin: 0;"">Is there a person in this image?</p>
                    </div>
                </div>","0","main_experiment_trial","4","flight_scheme","schematic_sequence","","","","",""
"","","","","","html-keyboard-response","151","623413","0.0-151.0","996EC505B93C4829BF22C01ABC94A238","019cf070-33a0-7fbc-9b6b-dda72a6f4745","019ceff9-9f67-7034-9722-02cda2445e09","","null","
                <div class=""stimulus-container"">
                    <img src=""images/schematic_sequence/flight_scheme/flight_scheme_5.png"" class=""exp-image"">
                    <div class=""question-area""></div> 
                </div>","null","","","","","","","","",""
"","","","","","html-button-response","152","624061","0.0-152.0","996EC505B93C4829BF22C01ABC94A238","019cf070-33a0-7fbc-9b6b-dda72a6f4745","019ceff9-9f67-7034-9722-02cda2445e09","","645","
                <div class=""stimulus-container"">
                    <img src=""images/schematic_sequence/flight_scheme/flight_scheme_5.png"" class=""exp-image"">
                    <div class=""question-area"">
                        <p style=""font-size: 20px; font-weight: bold; margin: 0;"">Is there a person in this image?</p>
                    </div>
                </div>","0","main_experiment_trial","5","flight_scheme","schematic_sequence","","","","",""
"","","","","","html-keyboard-response","153","629063","0.0-153.0","996EC505B93C4829BF22C01ABC94A238","019cf070-33a0-7fbc-9b6b-dda72a6f4745","019ceff9-9f67-7034-9722-02cda2445e09","","null","
                <div class=""stimulus-container"">
                    <img src=""images/schematic_sequence/flight_scheme/flight_scheme_6.png"" class=""exp-image"">
                    <div class=""question-area""></div> 
                </div>","null","","","","","","","","",""
"","","","","","html-button-response","154","629910","0.0-154.0","996EC505B93C4829BF22C01ABC94A238","019cf070-33a0-7fbc-9b6b-dda72a6f4745","019ceff9-9f67-7034-9722-02cda2445e09","","845","
                <div class=""stimulus-container"">
                    <img src=""images/schematic_sequence/flight_scheme/flight_scheme_6.png"" class=""exp-image"">
                    <div class=""question-area"">
                        <p style=""font-size: 20px; font-weight: bold; margin: 0;"">Is there a person in this image?</p>
                    </div>
                </div>","1","main_experiment_trial","6","flight_scheme","schematic_sequence","","","","",""
"","","","","","html-keyboard-response","155","634912","0.0-155.0","996EC505B93C4829BF22C01ABC94A238","019cf070-33a0-7fbc-9b6b-dda72a6f4745","019ceff9-9f67-7034-9722-02cda2445e09","","null","
                <div class=""stimulus-container"">
                    <img src=""images/schematic_sequence/flight_scheme/flight_scheme_7.png"" class=""exp-image"">
                    <div class=""question-area""></div> 
                </div>","null","","","","","","","","",""
"","","","","","html-button-response","156","636461","0.0-156.0","996EC505B93C4829BF22C01ABC94A238","019cf070-33a0-7fbc-9b6b-dda72a6f4745","019ceff9-9f67-7034-9722-02cda2445e09","","1548","
                <div class=""stimulus-container"">
                    <img src=""images/schematic_sequence/flight_scheme/flight_scheme_7.png"" class=""exp-image"">
                    <div class=""question-area"">
                        <p style=""font-size: 20px; font-weight: bold; margin: 0;"">Is there a person in this image?</p>
                    </div>
                </div>","1","main_experiment_trial","7","flight_scheme","schematic_sequence","","","","",""
"","","","","","html-keyboard-response","157","641464","0.0-157.0","996EC505B93C4829BF22C01ABC94A238","019cf070-33a0-7fbc-9b6b-dda72a6f4745","019ceff9-9f67-7034-9722-02cda2445e09","","null","
                <div class=""stimulus-container"">
                    <img src=""images/schematic_sequence/flight_scheme/flight_scheme_8.png"" class=""exp-image"">
                    <div class=""question-area""></div> 
                </div>","null","","","","","","","","",""
"","","","","","html-button-response","158","642511","0.0-158.0","996EC505B93C4829BF22C01ABC94A238","019cf070-33a0-7fbc-9b6b-dda72a6f4745","019ceff9-9f67-7034-9722-02cda2445e09","","1045","
                <div class=""stimulus-container"">
                    <img src=""images/schematic_sequence/flight_scheme/flight_scheme_8.png"" class=""exp-image"">
                    <div class=""question-area"">
                        <p style=""font-size: 20px; font-weight: bold; margin: 0;"">Is there a person in this image?</p>
                    </div>
                </div>","1","main_experiment_trial","8","flight_scheme","schematic_sequence","","","","",""
"","","","","","html-keyboard-response","159","647513","0.0-159.0","996EC505B93C4829BF22C01ABC94A238","019cf070-33a0-7fbc-9b6b-dda72a6f4745","019ceff9-9f67-7034-9722-02cda2445e09","","null","
                <div class=""stimulus-container"">
                    <img src=""images/schematic_sequence/flight_scheme/flight_scheme_9.png"" class=""exp-image"">
                    <div class=""question-area""></div> 
                </div>","null","","","","","","","","",""
"","","","","","html-button-response","160","648860","0.0-160.0","996EC505B93C4829BF22C01ABC94A238","019cf070-33a0-7fbc-9b6b-dda72a6f4745","019ceff9-9f67-7034-9722-02cda2445e09","","1346","
                <div class=""stimulus-container"">
                    <img src=""images/schematic_sequence/flight_scheme/flight_scheme_9.png"" class=""exp-image"">
                    <div class=""question-area"">
                        <p style=""font-size: 20px; font-weight: bold; margin: 0;"">Is there a person in this image?</p>
                    </div>
                </div>","1","main_experiment_trial","9","flight_scheme","schematic_sequence","","","","",""
"","","","","","html-keyboard-response","161","653862","0.0-161.0","996EC505B93C4829BF22C01ABC94A238","019cf070-33a0-7fbc-9b6b-dda72a6f4745","019ceff9-9f67-7034-9722-02cda2445e09","","null","
                <div class=""stimulus-container"">
                    <img src=""images/schematic_sequence/flight_scheme/flight_scheme_ten.png"" class=""exp-image"">
                    <div class=""question-area""></div> 
                </div>","null","","","","","","","","",""
"","","","","","html-button-response","162","654227","0.0-162.0","996EC505B93C4829BF22C01ABC94A238","019cf070-33a0-7fbc-9b6b-dda72a6f4745","019ceff9-9f67-7034-9722-02cda2445e09","","363","
                <div class=""stimulus-container"">
                    <img src=""images/schematic_sequence/flight_scheme/flight_scheme_ten.png"" class=""exp-image"">
                    <div class=""question-area"">
                        <p style=""font-size: 20px; font-weight: bold; margin: 0;"">Is there a person in this image?</p>
                    </div>
                </div>","0","main_experiment_trial","ten","flight_scheme","schematic_sequence","","","","",""
"","","","","","html-keyboard-response","163","655228","0.0-163.0","996EC505B93C4829BF22C01ABC94A238","019cf070-33a0-7fbc-9b6b-dda72a6f4745","019ceff9-9f67-7034-9722-02cda2445e09","","null","<div style=""background-color: white; width: 100vw; height: 100vh;""></div>","null","","","","","","","","",""
"","","","","","html-keyboard-response","164","660231","0.0-164.0","996EC505B93C4829BF22C01ABC94A238","019cf070-33a0-7fbc-9b6b-dda72a6f4745","019ceff9-9f67-7034-9722-02cda2445e09","","null","
                <div class=""stimulus-container"">
                    <img src=""images/schematic_sequence/restaurant_scheme/restaurant_scheme_1.png"" class=""exp-image"">
                    <div class=""question-area""></div> 
                </div>","null","","","","","","","","",""
"","","","","","html-button-response","165","661744","0.0-165.0","996EC505B93C4829BF22C01ABC94A238","019cf070-33a0-7fbc-9b6b-dda72a6f4745","019ceff9-9f67-7034-9722-02cda2445e09","","1511","
                <div class=""stimulus-container"">
                    <img src=""images/schematic_sequence/restaurant_scheme/restaurant_scheme_1.png"" class=""exp-image"">
                    <div class=""question-area"">
                        <p style=""font-size: 20px; font-weight: bold; margin: 0;"">Is there a person in this image?</p>
                    </div>
                </div>","0","main_experiment_trial","1","restaurant_scheme","schematic_sequence","","","","",""
"","","","","","html-keyboard-response","166","666746","0.0-166.0","996EC505B93C4829BF22C01ABC94A238","019cf070-33a0-7fbc-9b6b-dda72a6f4745","019ceff9-9f67-7034-9722-02cda2445e09","","null","
                <div class=""stimulus-container"">
                    <img src=""images/schematic_sequence/restaurant_scheme/restaurant_scheme_2.png"" class=""exp-image"">
                    <div class=""question-area""></div> 
                </div>","null","","","","","","","","",""
"","","","","","html-button-response","167","668577","0.0-167.0","996EC505B93C4829BF22C01ABC94A238","019cf070-33a0-7fbc-9b6b-dda72a6f4745","019ceff9-9f67-7034-9722-02cda2445e09","","1830","
                <div class=""stimulus-container"">
                    <img src=""images/schematic_sequence/restaurant_scheme/restaurant_scheme_2.png"" class=""exp-image"">
                    <div class=""question-area"">
                        <p style=""font-size: 20px; font-weight: bold; margin: 0;"">Is there a person in this image?</p>
                    </div>
                </div>","1","main_experiment_trial","2","restaurant_scheme","schematic_sequence","","","","",""
"","","","","","html-keyboard-response","168","673580","0.0-168.0","996EC505B93C4829BF22C01ABC94A238","019cf070-33a0-7fbc-9b6b-dda72a6f4745","019ceff9-9f67-7034-9722-02cda2445e09","","null","
                <div class=""stimulus-container"">
                    <img src=""images/schematic_sequence/restaurant_scheme/restaurant_scheme_3.png"" class=""exp-image"">
                    <div class=""question-area""></div> 
                </div>","null","","","","","","","","",""
"","","","","","html-button-response","169","674693","0.0-169.0","996EC505B93C4829BF22C01ABC94A238","019cf070-33a0-7fbc-9b6b-dda72a6f4745","019ceff9-9f67-7034-9722-02cda2445e09","","1111","
                <div class=""stimulus-container"">
                    <img src=""images/schematic_sequence/restaurant_scheme/restaurant_scheme_3.png"" class=""exp-image"">
                    <div class=""question-area"">
                        <p style=""font-size: 20px; font-weight: bold; margin: 0;"">Is there a person in this image?</p>
                    </div>
                </div>","1","main_experiment_trial","3","restaurant_scheme","schematic_sequence","","","","",""
"","","","","","html-keyboard-response","170","679696","0.0-170.0","996EC505B93C4829BF22C01ABC94A238","019cf070-33a0-7fbc-9b6b-dda72a6f4745","019ceff9-9f67-7034-9722-02cda2445e09","","null","
                <div class=""stimulus-container"">
                    <img src=""images/schematic_sequence/restaurant_scheme/restaurant_scheme_4.png"" class=""exp-image"">
                    <div class=""question-area""></div> 
                </div>","null","","","","","","","","",""
"","","","","","html-button-response","171","680644","0.0-171.0","996EC505B93C4829BF22C01ABC94A238","019cf070-33a0-7fbc-9b6b-dda72a6f4745","019ceff9-9f67-7034-9722-02cda2445e09","","946","
                <div class=""stimulus-container"">
                    <img src=""images/schematic_sequence/restaurant_scheme/restaurant_scheme_4.png"" class=""exp-image"">
                    <div class=""question-area"">
                        <p style=""font-size: 20px; font-weight: bold; margin: 0;"">Is there a person in this image?</p>
                    </div>
                </div>","0","main_experiment_trial","4","restaurant_scheme","schematic_sequence","","","","",""
"","","","","","html-keyboard-response","172","685647","0.0-172.0","996EC505B93C4829BF22C01ABC94A238","019cf070-33a0-7fbc-9b6b-dda72a6f4745","019ceff9-9f67-7034-9722-02cda2445e09","","null","
                <div class=""stimulus-container"">
                    <img src=""images/schematic_sequence/restaurant_scheme/restaurant_scheme_5.png"" class=""exp-image"">
                    <div class=""question-area""></div> 
                </div>","null","","","","","","","","",""
"","","","","","html-button-response","173","686843","0.0-173.0","996EC505B93C4829BF22C01ABC94A238","019cf070-33a0-7fbc-9b6b-dda72a6f4745","019ceff9-9f67-7034-9722-02cda2445e09","","1195","
                <div class=""stimulus-container"">
                    <img src=""images/schematic_sequence/restaurant_scheme/restaurant_scheme_5.png"" class=""exp-image"">
                    <div class=""question-area"">
                        <p style=""font-size: 20px; font-weight: bold; margin: 0;"">Is there a person in this image?</p>
                    </div>
                </div>","0","main_experiment_trial","5","restaurant_scheme","schematic_sequence","","","","",""
"","","","","","html-keyboard-response","174","691846","0.0-174.0","996EC505B93C4829BF22C01ABC94A238","019cf070-33a0-7fbc-9b6b-dda72a6f4745","019ceff9-9f67-7034-9722-02cda2445e09","","null","
                <div class=""stimulus-container"">
                    <img src=""images/schematic_sequence/restaurant_scheme/restaurant_scheme_6.png"" class=""exp-image"">
                    <div class=""question-area""></div> 
                </div>","null","","","","","","","","",""
"","","","","","html-button-response","175","692910","0.0-175.0","996EC505B93C4829BF22C01ABC94A238","019cf070-33a0-7fbc-9b6b-dda72a6f4745","019ceff9-9f67-7034-9722-02cda2445e09","","1062","
                <div class=""stimulus-container"">
                    <img src=""images/schematic_sequence/restaurant_scheme/restaurant_scheme_6.png"" class=""exp-image"">
                    <div class=""question-area"">
                        <p style=""font-size: 20px; font-weight: bold; margin: 0;"">Is there a person in this image?</p>
                    </div>
                </div>","1","main_experiment_trial","6","restaurant_scheme","schematic_sequence","","","","",""
"","","","","","html-keyboard-response","176","697912","0.0-176.0","996EC505B93C4829BF22C01ABC94A238","019cf070-33a0-7fbc-9b6b-dda72a6f4745","019ceff9-9f67-7034-9722-02cda2445e09","","null","
                <div class=""stimulus-container"">
                    <img src=""images/schematic_sequence/restaurant_scheme/restaurant_scheme_7.png"" class=""exp-image"">
                    <div class=""question-area""></div> 
                </div>","null","","","","","","","","",""
"","","","","","html-button-response","177","698744","0.0-177.0","996EC505B93C4829BF22C01ABC94A238","019cf070-33a0-7fbc-9b6b-dda72a6f4745","019ceff9-9f67-7034-9722-02cda2445e09","","830","
                <div class=""stimulus-container"">
                    <img src=""images/schematic_sequence/restaurant_scheme/restaurant_scheme_7.png"" class=""exp-image"">
                    <div class=""question-area"">
                        <p style=""font-size: 20px; font-weight: bold; margin: 0;"">Is there a person in this image?</p>
                    </div>
                </div>","1","main_experiment_trial","7","restaurant_scheme","schematic_sequence","","","","",""
"","","","","","html-keyboard-response","178","703746","0.0-178.0","996EC505B93C4829BF22C01ABC94A238","019cf070-33a0-7fbc-9b6b-dda72a6f4745","019ceff9-9f67-7034-9722-02cda2445e09","","null","
                <div class=""stimulus-container"">
                    <img src=""images/schematic_sequence/restaurant_scheme/restaurant_scheme_8.png"" class=""exp-image"">
                    <div class=""question-area""></div> 
                </div>","null","","","","","","","","",""
"","","","","","html-button-response","179","704360","0.0-179.0","996EC505B93C4829BF22C01ABC94A238","019cf070-33a0-7fbc-9b6b-dda72a6f4745","019ceff9-9f67-7034-9722-02cda2445e09","","612","
                <div class=""stimulus-container"">
                    <img src=""images/schematic_sequence/restaurant_scheme/restaurant_scheme_8.png"" class=""exp-image"">
                    <div class=""question-area"">
                        <p style=""font-size: 20px; font-weight: bold; margin: 0;"">Is there a person in this image?</p>
                    </div>
                </div>","1","main_experiment_trial","8","restaurant_scheme","schematic_sequence","","","","",""
"","","","","","html-keyboard-response","180","709363","0.0-180.0","996EC505B93C4829BF22C01ABC94A238","019cf070-33a0-7fbc-9b6b-dda72a6f4745","019ceff9-9f67-7034-9722-02cda2445e09","","null","
                <div class=""stimulus-container"">
                    <img src=""images/schematic_sequence/restaurant_scheme/restaurant_scheme_9.png"" class=""exp-image"">
                    <div class=""question-area""></div> 
                </div>","null","","","","","","","","",""
"","","","","","html-button-response","181","710710","0.0-181.0","996EC505B93C4829BF22C01ABC94A238","019cf070-33a0-7fbc-9b6b-dda72a6f4745","019ceff9-9f67-7034-9722-02cda2445e09","","1346","
                <div class=""stimulus-container"">
                    <img src=""images/schematic_sequence/restaurant_scheme/restaurant_scheme_9.png"" class=""exp-image"">
                    <div class=""question-area"">
                        <p style=""font-size: 20px; font-weight: bold; margin: 0;"">Is there a person in this image?</p>
                    </div>
                </div>","0","main_experiment_trial","9","restaurant_scheme","schematic_sequence","","","","",""
"","","","","","html-keyboard-response","182","715713","0.0-182.0","996EC505B93C4829BF22C01ABC94A238","019cf070-33a0-7fbc-9b6b-dda72a6f4745","019ceff9-9f67-7034-9722-02cda2445e09","","null","
                <div class=""stimulus-container"">
                    <img src=""images/schematic_sequence/restaurant_scheme/restaurant_scheme_ten.png"" class=""exp-image"">
                    <div class=""question-area""></div> 
                </div>","null","","","","","","","","",""
"","","","","","html-button-response","183","718716","0.0-183.0","996EC505B93C4829BF22C01ABC94A238","019cf070-33a0-7fbc-9b6b-dda72a6f4745","019ceff9-9f67-7034-9722-02cda2445e09","","null","
