"success","timeout","failed_images","failed_audio","failed_video","trial_type","trial_index","time_elapsed","internal_node_id","subject_id","study_id","session_id","view_history","rt","stimulus","response","task","image_index","folder","sequence_type","valuable_image_index","reward_type","chosen_image_index","target_X","correct_choice"
"true","false","[]","[]","[]","preload","0","7054","0.0-0.0","CE7478C1D1ED4D7FB87B7BD04ECB8FD2","019cf7c1-52a1-767a-b208-09bbb98fbc41","019cf7bd-52b9-7f96-9138-a5960b400b31","","","","","","","","","","","","",""
"","","","","","instructions","1","16820","0.0-1.0","CE7478C1D1ED4D7FB87B7BD04ECB8FD2","019cf7c1-52a1-767a-b208-09bbb98fbc41","019cf7bd-52b9-7f96-9138-a5960b400b31","[{""page_index"":0,""viewing_time"":9763}]","9763","","","","","","","","","","",""
"","","","","","instructions","2","35574","0.0-2.0","CE7478C1D1ED4D7FB87B7BD04ECB8FD2","019cf7c1-52a1-767a-b208-09bbb98fbc41","019cf7bd-52b9-7f96-9138-a5960b400b31","[{""page_index"":0,""viewing_time"":18751}]","18752","","","","","","","","","","",""
"true","","","","","fullscreen","3","38070","0.0-3.0","CE7478C1D1ED4D7FB87B7BD04ECB8FD2","019cf7c1-52a1-767a-b208-09bbb98fbc41","019cf7bd-52b9-7f96-9138-a5960b400b31","","1490","","","","","","","","","","",""
"","","","","","instructions","4","42042","0.0-4.0","CE7478C1D1ED4D7FB87B7BD04ECB8FD2","019cf7c1-52a1-767a-b208-09bbb98fbc41","019cf7bd-52b9-7f96-9138-a5960b400b31","[{""page_index"":0,""viewing_time"":3970}]","3971","","","","","","","","","","",""
"","","","","","instructions","5","74437","0.0-5.0","CE7478C1D1ED4D7FB87B7BD04ECB8FD2","019cf7c1-52a1-767a-b208-09bbb98fbc41","019cf7bd-52b9-7f96-9138-a5960b400b31","[{""page_index"":0,""viewing_time"":32393}]","32394","","","","","","","","","","",""
"","","","","","html-keyboard-response","6","78440","0.0-6.0","CE7478C1D1ED4D7FB87B7BD04ECB8FD2","019cf7c1-52a1-767a-b208-09bbb98fbc41","019cf7bd-52b9-7f96-9138-a5960b400b31","","null","
                <div class=""stimulus-container"">
                    <img src=""images/instructions/movie_1.png"" class=""exp-image"">
                    <div class=""question-area""></div> 
                </div>","null","","","","","","","","",""
"","","","","","html-button-response","7","81445","0.0-7.0","CE7478C1D1ED4D7FB87B7BD04ECB8FD2","019cf7c1-52a1-767a-b208-09bbb98fbc41","019cf7bd-52b9-7f96-9138-a5960b400b31","","null","
                <div class=""stimulus-container"">
                    <img src=""images/instructions/movie_1.png"" class=""exp-image"">
                    <div class=""question-area"">
                        <p style=""font-size: 20px; font-weight: bold; margin: 0;"">Was there a person in this image?</p>
                    </div>
                </div>","null","example_question","1","","","","","","",""
"","","","","","html-keyboard-response","8","85447","0.0-8.0","CE7478C1D1ED4D7FB87B7BD04ECB8FD2","019cf7c1-52a1-767a-b208-09bbb98fbc41","019cf7bd-52b9-7f96-9138-a5960b400b31","","null","
                <div class=""stimulus-container"">
                    <img src=""images/instructions/movie_2.png"" class=""exp-image"">
                    <div class=""question-area""></div> 
                </div>","null","","","","","","","","",""
"","","","","","html-button-response","9","88450","0.0-9.0","CE7478C1D1ED4D7FB87B7BD04ECB8FD2","019cf7c1-52a1-767a-b208-09bbb98fbc41","019cf7bd-52b9-7f96-9138-a5960b400b31","","null","
                <div class=""stimulus-container"">
                    <img src=""images/instructions/movie_2.png"" class=""exp-image"">
                    <div class=""question-area"">
                        <p style=""font-size: 20px; font-weight: bold; margin: 0;"">Was there a person in this image?</p>
                    </div>
                </div>","null","example_question","2","","","","","","",""
"","","","","","html-keyboard-response","10","92453","0.0-10.0","CE7478C1D1ED4D7FB87B7BD04ECB8FD2","019cf7c1-52a1-767a-b208-09bbb98fbc41","019cf7bd-52b9-7f96-9138-a5960b400b31","","null","
                <div class=""stimulus-container"">
                    <img src=""images/instructions/movie_3.png"" class=""exp-image"">
                    <div class=""question-area""></div> 
                </div>","null","","","","","","","","",""
"","","","","","html-button-response","11","95455","0.0-11.0","CE7478C1D1ED4D7FB87B7BD04ECB8FD2","019cf7c1-52a1-767a-b208-09bbb98fbc41","019cf7bd-52b9-7f96-9138-a5960b400b31","","null","
                <div class=""stimulus-container"">
                    <img src=""images/instructions/movie_3.png"" class=""exp-image"">
                    <div class=""question-area"">
                        <p style=""font-size: 20px; font-weight: bold; margin: 0;"">Was there a person in this image?</p>
                    </div>
                </div>","null","example_question","3","","","","","","",""
"","","","","","html-keyboard-response","12","99457","0.0-12.0","CE7478C1D1ED4D7FB87B7BD04ECB8FD2","019cf7c1-52a1-767a-b208-09bbb98fbc41","019cf7bd-52b9-7f96-9138-a5960b400b31","","null","
                <div class=""stimulus-container"">
                    <img src=""images/instructions/movie_4.png"" class=""exp-image"">
                    <div class=""question-area""></div> 
                </div>","null","","","","","","","","",""
"","","","","","html-button-response","13","101050","0.0-13.0","CE7478C1D1ED4D7FB87B7BD04ECB8FD2","019cf7c1-52a1-767a-b208-09bbb98fbc41","019cf7bd-52b9-7f96-9138-a5960b400b31","","1589","
                <div class=""stimulus-container"">
                    <img src=""images/instructions/movie_4.png"" class=""exp-image"">
                    <div class=""question-area"">
                        <p style=""font-size: 20px; font-weight: bold; margin: 0;"">Was there a person in this image?</p>
                    </div>
                </div>","0","example_question","4","","","","","","",""
"","","","","","instructions","14","159577","0.0-14.0","CE7478C1D1ED4D7FB87B7BD04ECB8FD2","019cf7c1-52a1-767a-b208-09bbb98fbc41","019cf7bd-52b9-7f96-9138-a5960b400b31","[{""page_index"":0,""viewing_time"":58525}]","58526","","","","","","","","","","",""
"","","","","","instructions","15","163392","0.0-15.0","CE7478C1D1ED4D7FB87B7BD04ECB8FD2","019cf7c1-52a1-767a-b208-09bbb98fbc41","019cf7bd-52b9-7f96-9138-a5960b400b31","[{""page_index"":0,""viewing_time"":3813}]","3814","","","","","","","","","","",""
"","","","","","html-keyboard-response","16","164395","0.0-16.0","CE7478C1D1ED4D7FB87B7BD04ECB8FD2","019cf7c1-52a1-767a-b208-09bbb98fbc41","019cf7bd-52b9-7f96-9138-a5960b400b31","","null","<div style=""background-color: white; width: 100vw; height: 100vh;""></div>","null","","","","","","","","",""
"","","","","","html-keyboard-response","17","169398","0.0-17.0","CE7478C1D1ED4D7FB87B7BD04ECB8FD2","019cf7c1-52a1-767a-b208-09bbb98fbc41","019cf7bd-52b9-7f96-9138-a5960b400b31","","null","
                <div class=""stimulus-container"">
                    <img src=""images/schematic_sequence/restaurant_scheme/restaurant_scheme_1.png"" class=""exp-image"">
                    <div class=""question-area""></div> 
                </div>","null","","","","","","","","",""
"","","","","","html-button-response","18","171719","0.0-18.0","CE7478C1D1ED4D7FB87B7BD04ECB8FD2","019cf7c1-52a1-767a-b208-09bbb98fbc41","019cf7bd-52b9-7f96-9138-a5960b400b31","","2318","
                <div class=""stimulus-container"">
                    <img src=""images/schematic_sequence/restaurant_scheme/restaurant_scheme_1.png"" class=""exp-image"">
                    <div class=""question-area"">
                        <p style=""font-size: 20px; font-weight: bold; margin: 0;"">Is there a person in this image?</p>
                    </div>
                </div>","0","main_experiment_trial","1","restaurant_scheme","schematic_sequence","","","","",""
"","","","","","html-keyboard-response","19","176722","0.0-19.0","CE7478C1D1ED4D7FB87B7BD04ECB8FD2","019cf7c1-52a1-767a-b208-09bbb98fbc41","019cf7bd-52b9-7f96-9138-a5960b400b31","","null","
                <div class=""stimulus-container"">
                    <img src=""images/schematic_sequence/restaurant_scheme/restaurant_scheme_2.png"" class=""exp-image"">
                    <div class=""question-area""></div> 
                </div>","null","","","","","","","","",""
"","","","","","html-button-response","20","179724","0.0-20.0","CE7478C1D1ED4D7FB87B7BD04ECB8FD2","019cf7c1-52a1-767a-b208-09bbb98fbc41","019cf7bd-52b9-7f96-9138-a5960b400b31","","null","
                <div class=""stimulus-container"">
                    <img src=""images/schematic_sequence/restaurant_scheme/restaurant_scheme_2.png"" class=""exp-image"">
                    <div class=""question-area"">
                        <p style=""font-size: 20px; font-weight: bold; margin: 0;"">Is there a person in this image?</p>
                    </div>
                </div>","null","main_experiment_trial","2","restaurant_scheme","schematic_sequence","","","","",""
"","","","","","html-keyboard-response","21","184726","0.0-21.0","CE7478C1D1ED4D7FB87B7BD04ECB8FD2","019cf7c1-52a1-767a-b208-09bbb98fbc41","019cf7bd-52b9-7f96-9138-a5960b400b31","","null","
                <div class=""stimulus-container"">
                    <img src=""images/schematic_sequence/restaurant_scheme/restaurant_scheme_3.png"" class=""exp-image"">
                    <div class=""question-area""></div> 
                </div>","null","","","","","","","","",""
"","","","","","html-button-response","22","185742","0.0-22.0","CE7478C1D1ED4D7FB87B7BD04ECB8FD2","019cf7c1-52a1-767a-b208-09bbb98fbc41","019cf7bd-52b9-7f96-9138-a5960b400b31","","1014","
                <div class=""stimulus-container"">
                    <img src=""images/schematic_sequence/restaurant_scheme/restaurant_scheme_3.png"" class=""exp-image"">
                    <div class=""question-area"">
                        <p style=""font-size: 20px; font-weight: bold; margin: 0;"">Is there a person in this image?</p>
                    </div>
                </div>","1","main_experiment_trial","3","restaurant_scheme","schematic_sequence","","","","",""
"","","","","","html-keyboard-response","23","190745","0.0-23.0","CE7478C1D1ED4D7FB87B7BD04ECB8FD2","019cf7c1-52a1-767a-b208-09bbb98fbc41","019cf7bd-52b9-7f96-9138-a5960b400b31","","null","
                <div class=""stimulus-container"">
                    <img src=""images/schematic_sequence/restaurant_scheme/restaurant_scheme_4.png"" class=""exp-image"">
                    <div class=""question-area""></div> 
                </div>","null","","","","","","","","",""
"","","","","","html-button-response","24","191759","0.0-24.0","CE7478C1D1ED4D7FB87B7BD04ECB8FD2","019cf7c1-52a1-767a-b208-09bbb98fbc41","019cf7bd-52b9-7f96-9138-a5960b400b31","","1012","
                <div class=""stimulus-container"">
                    <img src=""images/schematic_sequence/restaurant_scheme/restaurant_scheme_4.png"" class=""exp-image"">
                    <div class=""question-area"">
                        <p style=""font-size: 20px; font-weight: bold; margin: 0;"">Is there a person in this image?</p>
                    </div>
                </div>","0","main_experiment_trial","4","restaurant_scheme","schematic_sequence","","","","",""
"","","","","","html-keyboard-response","25","196761","0.0-25.0","CE7478C1D1ED4D7FB87B7BD04ECB8FD2","019cf7c1-52a1-767a-b208-09bbb98fbc41","019cf7bd-52b9-7f96-9138-a5960b400b31","","null","
                <div class=""stimulus-container"">
                    <img src=""images/schematic_sequence/restaurant_scheme/restaurant_scheme_5.png"" class=""exp-image"">
                    <div class=""question-area""></div> 
                </div>","null","","","","","","","","",""
"","","","","","html-button-response","26","199210","0.0-26.0","CE7478C1D1ED4D7FB87B7BD04ECB8FD2","019cf7c1-52a1-767a-b208-09bbb98fbc41","019cf7bd-52b9-7f96-9138-a5960b400b31","","2446","
                <div class=""stimulus-container"">
                    <img src=""images/schematic_sequence/restaurant_scheme/restaurant_scheme_5.png"" class=""exp-image"">
                    <div class=""question-area"">
                        <p style=""font-size: 20px; font-weight: bold; margin: 0;"">Is there a person in this image?</p>
                    </div>
                </div>","0","main_experiment_trial","5","restaurant_scheme","schematic_sequence","","","","",""
"","","","","","html-keyboard-response","27","204214","0.0-27.0","CE7478C1D1ED4D7FB87B7BD04ECB8FD2","019cf7c1-52a1-767a-b208-09bbb98fbc41","019cf7bd-52b9-7f96-9138-a5960b400b31","","null","
                <div class=""stimulus-container"">
                    <img src=""images/schematic_sequence/restaurant_scheme/restaurant_scheme_6.png"" class=""exp-image"">
                    <div class=""question-area""></div> 
                </div>","null","","","","","","","","",""
"","","","","","html-button-response","28","205066","0.0-28.0","CE7478C1D1ED4D7FB87B7BD04ECB8FD2","019cf7c1-52a1-767a-b208-09bbb98fbc41","019cf7bd-52b9-7f96-9138-a5960b400b31","","850","
                <div class=""stimulus-container"">
                    <img src=""images/schematic_sequence/restaurant_scheme/restaurant_scheme_6.png"" class=""exp-image"">
                    <div class=""question-area"">
                        <p style=""font-size: 20px; font-weight: bold; margin: 0;"">Is there a person in this image?</p>
                    </div>
                </div>","1","main_experiment_trial","6","restaurant_scheme","schematic_sequence","","","","",""
"","","","","","html-keyboard-response","29","210069","0.0-29.0","CE7478C1D1ED4D7FB87B7BD04ECB8FD2","019cf7c1-52a1-767a-b208-09bbb98fbc41","019cf7bd-52b9-7f96-9138-a5960b400b31","","null","
                <div class=""stimulus-container"">
                    <img src=""images/schematic_sequence/restaurant_scheme/restaurant_scheme_7.png"" class=""exp-image"">
                    <div class=""question-area""></div> 
                </div>","null","","","","","","","","",""
"","","","","","html-button-response","30","213072","0.0-30.0","CE7478C1D1ED4D7FB87B7BD04ECB8FD2","019cf7c1-52a1-767a-b208-09bbb98fbc41","019cf7bd-52b9-7f96-9138-a5960b400b31","","null","
                <div class=""stimulus-container"">
                    <img src=""images/schematic_sequence/restaurant_scheme/restaurant_scheme_7.png"" class=""exp-image"">
                    <div class=""question-area"">
                        <p style=""font-size: 20px; font-weight: bold; margin: 0;"">Is there a person in this image?</p>
                    </div>
                </div>","null","main_experiment_trial","7","restaurant_scheme","schematic_sequence","","","","",""
"","","","","","html-keyboard-response","31","218074","0.0-31.0","CE7478C1D1ED4D7FB87B7BD04ECB8FD2","019cf7c1-52a1-767a-b208-09bbb98fbc41","019cf7bd-52b9-7f96-9138-a5960b400b31","","null","
                <div class=""stimulus-container"">
                    <img src=""images/schematic_sequence/restaurant_scheme/restaurant_scheme_8.png"" class=""exp-image"">
                    <div class=""question-area""></div> 
                </div>","null","","","","","","","","",""
"","","","","","html-button-response","32","220006","0.0-32.0","CE7478C1D1ED4D7FB87B7BD04ECB8FD2","019cf7c1-52a1-767a-b208-09bbb98fbc41","019cf7bd-52b9-7f96-9138-a5960b400b31","","1930","
                <div class=""stimulus-container"">
                    <img src=""images/schematic_sequence/restaurant_scheme/restaurant_scheme_8.png"" class=""exp-image"">
                    <div class=""question-area"">
                        <p style=""font-size: 20px; font-weight: bold; margin: 0;"">Is there a person in this image?</p>
                    </div>
                </div>","1","main_experiment_trial","8","restaurant_scheme","schematic_sequence","","","","",""
"","","","","","html-keyboard-response","33","225008","0.0-33.0","CE7478C1D1ED4D7FB87B7BD04ECB8FD2","019cf7c1-52a1-767a-b208-09bbb98fbc41","019cf7bd-52b9-7f96-9138-a5960b400b31","","null","
                <div class=""stimulus-container"">
                    <img src=""images/schematic_sequence/restaurant_scheme/restaurant_scheme_9.png"" class=""exp-image"">
                    <div class=""question-area""></div> 
                </div>","null","","","","","","","","",""
"","","","","","html-button-response","34","226709","0.0-34.0","CE7478C1D1ED4D7FB87B7BD04ECB8FD2","019cf7c1-52a1-767a-b208-09bbb98fbc41","019cf7bd-52b9-7f96-9138-a5960b400b31","","1699","
                <div class=""stimulus-container"">
                    <img src=""images/schematic_sequence/restaurant_scheme/restaurant_scheme_9.png"" class=""exp-image"">
                    <div class=""question-area"">
                        <p style=""font-size: 20px; font-weight: bold; margin: 0;"">Is there a person in this image?</p>
                    </div>
                </div>","1","main_experiment_trial","9","restaurant_scheme","schematic_sequence","","","","",""
"","","","","","html-keyboard-response","35","231713","0.0-35.0","CE7478C1D1ED4D7FB87B7BD04ECB8FD2","019cf7c1-52a1-767a-b208-09bbb98fbc41","019cf7bd-52b9-7f96-9138-a5960b400b31","","null","
                <div class=""stimulus-container"">
                    <img src=""images/schematic_sequence/restaurant_scheme/restaurant_scheme_ten.png"" class=""exp-image"">
                    <div class=""question-area""></div> 
                </div>","null","","","","","","","","",""
"","","","","","html-button-response","36","234716","0.0-36.0","CE7478C1D1ED4D7FB87B7BD04ECB8FD2","019cf7c1-52a1-767a-b208-09bbb98fbc41","019cf7bd-52b9-7f96-9138-a5960b400b31","","null","
                <div class=""stimulus-container"">
                    <img src=""images/schematic_sequence/restaurant_scheme/restaurant_scheme_ten.png"" class=""exp-image"">
                    <div class=""question-area"">
                        <p style=""font-size: 20px; font-weight: bold; margin: 0;"">Is there a person in this image?</p>
                    </div>
                </div>","null","main_experiment_trial","ten","restaurant_scheme","schematic_sequence","","","","",""
"","","","","","html-keyboard-response","37","235718","0.0-37.0","CE7478C1D1ED4D7FB87B7BD04ECB8FD2","019cf7c1-52a1-767a-b208-09bbb98fbc41","019cf7bd-52b9-7f96-9138-a5960b400b31","","null","<div style=""background-color: white; width: 100vw; height: 100vh;""></div>","null","","","","","","","","",""
"","","","","","html-keyboard-response","38","240720","0.0-38.0","CE7478C1D1ED4D7FB87B7BD04ECB8FD2","019cf7c1-52a1-767a-b208-09bbb98fbc41","019cf7bd-52b9-7f96-9138-a5960b400b31","","null","
                <div class=""stimulus-container"">
                    <img src=""images/semantic_sequence/cat_care_semantic/cat_care_semantic_1.png"" class=""exp-image"">
                    <div class=""question-area""></div> 
                </div>","null","","","","","","","","",""
"","","","","","html-button-response","39","242949","0.0-39.0","CE7478C1D1ED4D7FB87B7BD04ECB8FD2","019cf7c1-52a1-767a-b208-09bbb98fbc41","019cf7bd-52b9-7f96-9138-a5960b400b31","","2228","
                <div class=""stimulus-container"">
                    <img src=""images/semantic_sequence/cat_care_semantic/cat_care_semantic_1.png"" class=""exp-image"">
                    <div class=""question-area"">
                        <p style=""font-size: 20px; font-weight: bold; margin: 0;"">Is there a person in this image?</p>
                    </div>
                </div>","0","main_experiment_trial","1","cat_care_semantic","semantic_sequence","","","","",""
"","","","","","html-keyboard-response","40","247952","0.0-40.0","CE7478C1D1ED4D7FB87B7BD04ECB8FD2","019cf7c1-52a1-767a-b208-09bbb98fbc41","019cf7bd-52b9-7f96-9138-a5960b400b31","","null","
                <div class=""stimulus-container"">
                    <img src=""images/semantic_sequence/cat_care_semantic/cat_care_semantic_2.png"" class=""exp-image"">
                    <div class=""question-area""></div> 
                </div>","null","","","","","","","","",""
"","","","","","html-button-response","41","250954","0.0-41.0","CE7478C1D1ED4D7FB87B7BD04ECB8FD2","019cf7c1-52a1-767a-b208-09bbb98fbc41","019cf7bd-52b9-7f96-9138-a5960b400b31","","null","
                <div class=""stimulus-container"">
                    <img src=""images/semantic_sequence/cat_care_semantic/cat_care_semantic_2.png"" class=""exp-image"">
                    <div class=""question-area"">
                        <p style=""font-size: 20px; font-weight: bold; margin: 0;"">Is there a person in this image?</p>
                    </div>
                </div>","null","main_experiment_trial","2","cat_care_semantic","semantic_sequence","","","","",""
"","","","","","html-keyboard-response","42","255955","0.0-42.0","CE7478C1D1ED4D7FB87B7BD04ECB8FD2","019cf7c1-52a1-767a-b208-09bbb98fbc41","019cf7bd-52b9-7f96-9138-a5960b400b31","","null","
                <div class=""stimulus-container"">
                    <img src=""images/semantic_sequence/cat_care_semantic/cat_care_semantic_3.png"" class=""exp-image"">
                    <div class=""question-area""></div> 
                </div>","null","","","","","","","","",""
"","","","","","html-button-response","43","257123","0.0-43.0","CE7478C1D1ED4D7FB87B7BD04ECB8FD2","019cf7c1-52a1-767a-b208-09bbb98fbc41","019cf7bd-52b9-7f96-9138-a5960b400b31","","1165","
                <div class=""stimulus-container"">
                    <img src=""images/semantic_sequence/cat_care_semantic/cat_care_semantic_3.png"" class=""exp-image"">
                    <div class=""question-area"">
                        <p style=""font-size: 20px; font-weight: bold; margin: 0;"">Is there a person in this image?</p>
                    </div>
                </div>","1","main_experiment_trial","3","cat_care_semantic","semantic_sequence","","","","",""
"","","","","","html-keyboard-response","44","262126","0.0-44.0","CE7478C1D1ED4D7FB87B7BD04ECB8FD2","019cf7c1-52a1-767a-b208-09bbb98fbc41","019cf7bd-52b9-7f96-9138-a5960b400b31","","null","
                <div class=""stimulus-container"">
                    <img src=""images/semantic_sequence/cat_care_semantic/cat_care_semantic_4.png"" class=""exp-image"">
                    <div class=""question-area""></div> 
                </div>","null","","","","","","","","",""
"","","","","","html-button-response","45","264251","0.0-45.0","CE7478C1D1ED4D7FB87B7BD04ECB8FD2","019cf7c1-52a1-767a-b208-09bbb98fbc41","019cf7bd-52b9-7f96-9138-a5960b400b31","","2122","
                <div class=""stimulus-container"">
                    <img src=""images/semantic_sequence/cat_care_semantic/cat_care_semantic_4.png"" class=""exp-image"">
                    <div class=""question-area"">
                        <p style=""font-size: 20px; font-weight: bold; margin: 0;"">Is there a person in this image?</p>
                    </div>
                </div>","1","main_experiment_trial","4","cat_care_semantic","semantic_sequence","","","","",""
"","","","","","html-keyboard-response","46","269253","0.0-46.0","CE7478C1D1ED4D7FB87B7BD04ECB8FD2","019cf7c1-52a1-767a-b208-09bbb98fbc41","019cf7bd-52b9-7f96-9138-a5960b400b31","","null","
                <div class=""stimulus-container"">
                    <img src=""images/semantic_sequence/cat_care_semantic/cat_care_semantic_5.png"" class=""exp-image"">
                    <div class=""question-area""></div> 
                </div>","null","","","","","","","","",""
"","","","","","html-button-response","47","270849","0.0-47.0","CE7478C1D1ED4D7FB87B7BD04ECB8FD2","019cf7c1-52a1-767a-b208-09bbb98fbc41","019cf7bd-52b9-7f96-9138-a5960b400b31","","1593","
                <div class=""stimulus-container"">
                    <img src=""images/semantic_sequence/cat_care_semantic/cat_care_semantic_5.png"" class=""exp-image"">
                    <div class=""question-area"">
                        <p style=""font-size: 20px; font-weight: bold; margin: 0;"">Is there a person in this image?</p>
                    </div>
                </div>","1","main_experiment_trial","5","cat_care_semantic","semantic_sequence","","","","",""
"","","","","","html-keyboard-response","48","275852","0.0-48.0","CE7478C1D1ED4D7FB87B7BD04ECB8FD2","019cf7c1-52a1-767a-b208-09bbb98fbc41","019cf7bd-52b9-7f96-9138-a5960b400b31","","null","
                <div class=""stimulus-container"">
                    <img src=""images/semantic_sequence/cat_care_semantic/cat_care_semantic_6.png"" class=""exp-image"">
                    <div class=""question-area""></div> 
                </div>","null","","","","","","","","",""
"","","","","","html-button-response","49","278222","0.0-49.0","CE7478C1D1ED4D7FB87B7BD04ECB8FD2","019cf7c1-52a1-767a-b208-09bbb98fbc41","019cf7bd-52b9-7f96-9138-a5960b400b31","","2368","
                <div class=""stimulus-container"">
                    <img src=""images/semantic_sequence/cat_care_semantic/cat_care_semantic_6.png"" class=""exp-image"">
                    <div class=""question-area"">
                        <p style=""font-size: 20px; font-weight: bold; margin: 0;"">Is there a person in this image?</p>
                    </div>
                </div>","1","main_experiment_trial","6","cat_care_semantic","semantic_sequence","","","","",""
"","","","","","html-keyboard-response","50","283224","0.0-50.0","CE7478C1D1ED4D7FB87B7BD04ECB8FD2","019cf7c1-52a1-767a-b208-09bbb98fbc41","019cf7bd-52b9-7f96-9138-a5960b400b31","","null","
                <div class=""stimulus-container"">
                    <img src=""images/semantic_sequence/cat_care_semantic/cat_care_semantic_7.png"" class=""exp-image"">
                    <div class=""question-area""></div> 
                </div>","null","","","","","","","","",""
"","","","","","html-button-response","51","284589","0.0-51.0","CE7478C1D1ED4D7FB87B7BD04ECB8FD2","019cf7c1-52a1-767a-b208-09bbb98fbc41","019cf7bd-52b9-7f96-9138-a5960b400b31","","1362","
                <div class=""stimulus-container"">
                    <img src=""images/semantic_sequence/cat_care_semantic/cat_care_semantic_7.png"" class=""exp-image"">
                    <div class=""question-area"">
                        <p style=""font-size: 20px; font-weight: bold; margin: 0;"">Is there a person in this image?</p>
                    </div>
                </div>","1","main_experiment_trial","7","cat_care_semantic","semantic_sequence","","","","",""
"","","","","","html-keyboard-response","52","289592","0.0-52.0","CE7478C1D1ED4D7FB87B7BD04ECB8FD2","019cf7c1-52a1-767a-b208-09bbb98fbc41","019cf7bd-52b9-7f96-9138-a5960b400b31","","null","
                <div class=""stimulus-container"">
                    <img src=""images/semantic_sequence/cat_care_semantic/cat_care_semantic_8.png"" class=""exp-image"">
                    <div class=""question-area""></div> 
                </div>","null","","","","","","","","",""
"","","","","","html-button-response","53","292594","0.0-53.0","CE7478C1D1ED4D7FB87B7BD04ECB8FD2","019cf7c1-52a1-767a-b208-09bbb98fbc41","019cf7bd-52b9-7f96-9138-a5960b400b31","","null","
                <div class=""stimulus-container"">
                    <img src=""images/semantic_sequence/cat_care_semantic/cat_care_semantic_8.png"" class=""exp-image"">
                    <div class=""question-area"">
                        <p style=""font-size: 20px; font-weight: bold; margin: 0;"">Is there a person in this image?</p>
                    </div>
                </div>","null","main_experiment_trial","8","cat_care_semantic","semantic_sequence","","","","",""
"","","","","","html-keyboard-response","54","297597","0.0-54.0","CE7478C1D1ED4D7FB87B7BD04ECB8FD2","019cf7c1-52a1-767a-b208-09bbb98fbc41","019cf7bd-52b9-7f96-9138-a5960b400b31","","null","
                <div class=""stimulus-container"">
                    <img src=""images/semantic_sequence/cat_care_semantic/cat_care_semantic_9.png"" class=""exp-image"">
                    <div class=""question-area""></div> 
                </div>","null","","","","","","","","",""
"","","","","","html-button-response","55","300594","0.0-55.0","CE7478C1D1ED4D7FB87B7BD04ECB8FD2","019cf7c1-52a1-767a-b208-09bbb98fbc41","019cf7bd-52b9-7f96-9138-a5960b400b31","","2995","
                <div class=""stimulus-container"">
                    <img src=""images/semantic_sequence/cat_care_semantic/cat_care_semantic_9.png"" class=""exp-image"">
                    <div class=""question-area"">
                        <p style=""font-size: 20px; font-weight: bold; margin: 0;"">Is there a person in this image?</p>
                    </div>
                </div>","1","main_experiment_trial","9","cat_care_semantic","semantic_sequence","","","","",""
"","","","","","html-keyboard-response","56","305597","0.0-56.0","CE7478C1D1ED4D7FB87B7BD04ECB8FD2","019cf7c1-52a1-767a-b208-09bbb98fbc41","019cf7bd-52b9-7f96-9138-a5960b400b31","","null","
                <div class=""stimulus-container"">
                    <img src=""images/semantic_sequence/cat_care_semantic/cat_care_semantic_ten.png"" class=""exp-image"">
                    <div class=""question-area""></div> 
                </div>","null","","","","","","","","",""
"","","","","","html-button-response","57","307337","0.0-57.0","CE7478C1D1ED4D7FB87B7BD04ECB8FD2","019cf7c1-52a1-767a-b208-09bbb98fbc41","019cf7bd-52b9-7f96-9138-a5960b400b31","","1738","
                <div class=""stimulus-container"">
                    <img src=""images/semantic_sequence/cat_care_semantic/cat_care_semantic_ten.png"" class=""exp-image"">
                    <div class=""question-area"">
                        <p style=""font-size: 20px; font-weight: bold; margin: 0;"">Is there a person in this image?</p>
                    </div>
                </div>","1","main_experiment_trial","ten","cat_care_semantic","semantic_sequence","","","","",""
"","","","","","html-keyboard-response","58","308339","0.0-58.0","CE7478C1D1ED4D7FB87B7BD04ECB8FD2","019cf7c1-52a1-767a-b208-09bbb98fbc41","019cf7bd-52b9-7f96-9138-a5960b400b31","","null","<div style=""background-color: white; width: 100vw; height: 100vh;""></div>","null","","","","","","","","",""
"","","","","","html-keyboard-response","59","313341","0.0-59.0","CE7478C1D1ED4D7FB87B7BD04ECB8FD2","019cf7c1-52a1-767a-b208-09bbb98fbc41","019cf7bd-52b9-7f96-9138-a5960b400b31","","null","
                <div class=""stimulus-container"">
                    <img src=""images/schematic_sequence/hotel_scheme/hotel_scheme_1.png"" class=""exp-image"">
                    <div class=""question-area""></div> 
                </div>","null","","","","","","","","",""
"","","","","","html-button-response","60","314295","0.0-60.0","CE7478C1D1ED4D7FB87B7BD04ECB8FD2","019cf7c1-52a1-767a-b208-09bbb98fbc41","019cf7bd-52b9-7f96-9138-a5960b400b31","","952","
                <div class=""stimulus-container"">
                    <img src=""images/schematic_sequence/hotel_scheme/hotel_scheme_1.png"" class=""exp-image"">
                    <div class=""question-area"">
                        <p style=""font-size: 20px; font-weight: bold; margin: 0;"">Is there a person in this image?</p>
                    </div>
                </div>","1","main_experiment_trial","1","hotel_scheme","schematic_sequence","","","","",""
"","","","","","html-keyboard-response","61","319297","0.0-61.0","CE7478C1D1ED4D7FB87B7BD04ECB8FD2","019cf7c1-52a1-767a-b208-09bbb98fbc41","019cf7bd-52b9-7f96-9138-a5960b400b31","","null","
                <div class=""stimulus-container"">
                    <img src=""images/schematic_sequence/hotel_scheme/hotel_scheme_2.png"" class=""exp-image"">
                    <div class=""question-area""></div> 
                </div>","null","","","","","","","","",""
"","","","","","html-button-response","62","322300","0.0-62.0","CE7478C1D1ED4D7FB87B7BD04ECB8FD2","019cf7c1-52a1-767a-b208-09bbb98fbc41","019cf7bd-52b9-7f96-9138-a5960b400b31","","null","
                <div class=""stimulus-container"">
                    <img src=""images/schematic_sequence/hotel_scheme/hotel_scheme_2.png"" class=""exp-image"">
                    <div class=""question-area"">
                        <p style=""font-size: 20px; font-weight: bold; margin: 0;"">Is there a person in this image?</p>
                    </div>
                </div>","null","main_experiment_trial","2","hotel_scheme","schematic_sequence","","","","",""
"","","","","","html-keyboard-response","63","327302","0.0-63.0","CE7478C1D1ED4D7FB87B7BD04ECB8FD2","019cf7c1-52a1-767a-b208-09bbb98fbc41","019cf7bd-52b9-7f96-9138-a5960b400b31","","null","
                <div class=""stimulus-container"">
                    <img src=""images/schematic_sequence/hotel_scheme/hotel_scheme_3.png"" class=""exp-image"">
                    <div class=""question-area""></div> 
                </div>","null","","","","","","","","",""
"","","","","","html-button-response","64","328238","0.0-64.0","CE7478C1D1ED4D7FB87B7BD04ECB8FD2","019cf7c1-52a1-767a-b208-09bbb98fbc41","019cf7bd-52b9-7f96-9138-a5960b400b31","","933","
                <div class=""stimulus-container"">
                    <img src=""images/schematic_sequence/hotel_scheme/hotel_scheme_3.png"" class=""exp-image"">
                    <div class=""question-area"">
                        <p style=""font-size: 20px; font-weight: bold; margin: 0;"">Is there a person in this image?</p>
                    </div>
                </div>","0","main_experiment_trial","3","hotel_scheme","schematic_sequence","","","","",""
"","","","","","html-keyboard-response","65","333242","0.0-65.0","CE7478C1D1ED4D7FB87B7BD04ECB8FD2","019cf7c1-52a1-767a-b208-09bbb98fbc41","019cf7bd-52b9-7f96-9138-a5960b400b31","","null","
                <div class=""stimulus-container"">
                    <img src=""images/schematic_sequence/hotel_scheme/hotel_scheme_4.png"" class=""exp-image"">
                    <div class=""question-area""></div> 
                </div>","null","","","","","","","","",""
"","","","","","html-button-response","66","334128","0.0-66.0","CE7478C1D1ED4D7FB87B7BD04ECB8FD2","019cf7c1-52a1-767a-b208-09bbb98fbc41","019cf7bd-52b9-7f96-9138-a5960b400b31","","885","
                <div class=""stimulus-container"">
                    <img src=""images/schematic_sequence/hotel_scheme/hotel_scheme_4.png"" class=""exp-image"">
                    <div class=""question-area"">
                        <p style=""font-size: 20px; font-weight: bold; margin: 0;"">Is there a person in this image?</p>
                    </div>
                </div>","1","main_experiment_trial","4","hotel_scheme","schematic_sequence","","","","",""
"","","","","","html-keyboard-response","67","339131","0.0-67.0","CE7478C1D1ED4D7FB87B7BD04ECB8FD2","019cf7c1-52a1-767a-b208-09bbb98fbc41","019cf7bd-52b9-7f96-9138-a5960b400b31","","null","
                <div class=""stimulus-container"">
                    <img src=""images/schematic_sequence/hotel_scheme/hotel_scheme_5.png"" class=""exp-image"">
                    <div class=""question-area""></div> 
                </div>","null","","","","","","","","",""
"","","","","","html-button-response","68","339894","0.0-68.0","CE7478C1D1ED4D7FB87B7BD04ECB8FD2","019cf7c1-52a1-767a-b208-09bbb98fbc41","019cf7bd-52b9-7f96-9138-a5960b400b31","","761","
                <div class=""stimulus-container"">
                    <img src=""images/schematic_sequence/hotel_scheme/hotel_scheme_5.png"" class=""exp-image"">
                    <div class=""question-area"">
                        <p style=""font-size: 20px; font-weight: bold; margin: 0;"">Is there a person in this image?</p>
                    </div>
                </div>","1","main_experiment_trial","5","hotel_scheme","schematic_sequence","","","","",""
"","","","","","html-keyboard-response","69","344897","0.0-69.0","CE7478C1D1ED4D7FB87B7BD04ECB8FD2","019cf7c1-52a1-767a-b208-09bbb98fbc41","019cf7bd-52b9-7f96-9138-a5960b400b31","","null","
                <div class=""stimulus-container"">
                    <img src=""images/schematic_sequence/hotel_scheme/hotel_scheme_6.png"" class=""exp-image"">
                    <div class=""question-area""></div> 
                </div>","null","","","","","","","","",""
"","","","","","html-button-response","70","345356","0.0-70.0","CE7478C1D1ED4D7FB87B7BD04ECB8FD2","019cf7c1-52a1-767a-b208-09bbb98fbc41","019cf7bd-52b9-7f96-9138-a5960b400b31","","457","
                <div class=""stimulus-container"">
                    <img src=""images/schematic_sequence/hotel_scheme/hotel_scheme_6.png"" class=""exp-image"">
                    <div class=""question-area"">
                        <p style=""font-size: 20px; font-weight: bold; margin: 0;"">Is there a person in this image?</p>
                    </div>
                </div>","0","main_experiment_trial","6","hotel_scheme","schematic_sequence","","","","",""
"","","","","","html-keyboard-response","71","350359","0.0-71.0","CE7478C1D1ED4D7FB87B7BD04ECB8FD2","019cf7c1-52a1-767a-b208-09bbb98fbc41","019cf7bd-52b9-7f96-9138-a5960b400b31","","null","
                <div class=""stimulus-container"">
                    <img src=""images/schematic_sequence/hotel_scheme/hotel_scheme_7.png"" class=""exp-image"">
                    <div class=""question-area""></div> 
                </div>","null","","","","","","","","",""
"","","","","","html-button-response","72","351202","0.0-72.0","CE7478C1D1ED4D7FB87B7BD04ECB8FD2","019cf7c1-52a1-767a-b208-09bbb98fbc41","019cf7bd-52b9-7f96-9138-a5960b400b31","","840","
                <div class=""stimulus-container"">
                    <img src=""images/schematic_sequence/hotel_scheme/hotel_scheme_7.png"" class=""exp-image"">
                    <div class=""question-area"">
                        <p style=""font-size: 20px; font-weight: bold; margin: 0;"">Is there a person in this image?</p>
                    </div>
                </div>","0","main_experiment_trial","7","hotel_scheme","schematic_sequence","","","","",""
"","","","","","html-keyboard-response","73","356204","0.0-73.0","CE7478C1D1ED4D7FB87B7BD04ECB8FD2","019cf7c1-52a1-767a-b208-09bbb98fbc41","019cf7bd-52b9-7f96-9138-a5960b400b31","","null","
                <div class=""stimulus-container"">
                    <img src=""images/schematic_sequence/hotel_scheme/hotel_scheme_8.png"" class=""exp-image"">
                    <div class=""question-area""></div> 
                </div>","null","","","","","","","","",""
"","","","","","html-button-response","74","356725","0.0-74.0","CE7478C1D1ED4D7FB87B7BD04ECB8FD2","019cf7c1-52a1-767a-b208-09bbb98fbc41","019cf7bd-52b9-7f96-9138-a5960b400b31","","518","
                <div class=""stimulus-container"">
                    <img src=""images/schematic_sequence/hotel_scheme/hotel_scheme_8.png"" class=""exp-image"">
                    <div class=""question-area"">
                        <p style=""font-size: 20px; font-weight: bold; margin: 0;"">Is there a person in this image?</p>
                    </div>
                </div>","0","main_experiment_trial","8","hotel_scheme","schematic_sequence","","","","",""
"","","","","","html-keyboard-response","75","361728","0.0-75.0","CE7478C1D1ED4D7FB87B7BD04ECB8FD2","019cf7c1-52a1-767a-b208-09bbb98fbc41","019cf7bd-52b9-7f96-9138-a5960b400b31","","null","
                <div class=""stimulus-container"">
                    <img src=""images/schematic_sequence/hotel_scheme/hotel_scheme_9.png"" class=""exp-image"">
                    <div class=""question-area""></div> 
                </div>","null","","","","","","","","",""
"","","","","","html-button-response","76","363593","0.0-76.0","CE7478C1D1ED4D7FB87B7BD04ECB8FD2","019cf7c1-52a1-767a-b208-09bbb98fbc41","019cf7bd-52b9-7f96-9138-a5960b400b31","","1863","
                <div class=""stimulus-container"">
                    <img src=""images/schematic_sequence/hotel_scheme/hotel_scheme_9.png"" class=""exp-image"">
                    <div class=""question-area"">
                        <p style=""font-size: 20px; font-weight: bold; margin: 0;"">Is there a person in this image?</p>
                    </div>
                </div>","0","main_experiment_trial","9","hotel_scheme","schematic_sequence","","","","",""
"","","","","","html-keyboard-response","77","368596","0.0-77.0","CE7478C1D1ED4D7FB87B7BD04ECB8FD2","019cf7c1-52a1-767a-b208-09bbb98fbc41","019cf7bd-52b9-7f96-9138-a5960b400b31","","null","
                <div class=""stimulus-container"">
                    <img src=""images/schematic_sequence/hotel_scheme/hotel_scheme_ten.png"" class=""exp-image"">
                    <div class=""question-area""></div> 
                </div>","null","","","","","","","","",""
"","","","","","html-button-response","78","369244","0.0-78.0","CE7478C1D1ED4D7FB87B7BD04ECB8FD2","019cf7c1-52a1-767a-b208-09bbb98fbc41","019cf7bd-52b9-7f96-9138-a5960b400b31","","646","
                <div class=""stimulus-container"">
                    <img src=""images/schematic_sequence/hotel_scheme/hotel_scheme_ten.png"" class=""exp-image"">
                    <div class=""question-area"">
                        <p style=""font-size: 20px; font-weight: bold; margin: 0;"">Is there a person in this image?</p>
                    </div>
                </div>","0","main_experiment_trial","ten","hotel_scheme","schematic_sequence","","","","",""
"","","","","","html-keyboard-response","79","370245","0.0-79.0","CE7478C1D1ED4D7FB87B7BD04ECB8FD2","019cf7c1-52a1-767a-b208-09bbb98fbc41","019cf7bd-52b9-7f96-9138-a5960b400b31","","null","<div style=""background-color: white; width: 100vw; height: 100vh;""></div>","null","","","","","","","","",""
"","","","","","html-keyboard-response","80","375247","0.0-80.0","CE7478C1D1ED4D7FB87B7BD04ECB8FD2","019cf7c1-52a1-767a-b208-09bbb98fbc41","019cf7bd-52b9-7f96-9138-a5960b400b31","","null","
                <div class=""stimulus-container"">
                    <img src=""images/semantic_sequence/using_technology_semantic/using_technology_semantic_1.png"" class=""exp-image"">
                    <div class=""question-area""></div> 
                </div>","null","","","","","","","","",""
"","","","","","html-button-response","81","375734","0.0-81.0","CE7478C1D1ED4D7FB87B7BD04ECB8FD2","019cf7c1-52a1-767a-b208-09bbb98fbc41","019cf7bd-52b9-7f96-9138-a5960b400b31","","484","
                <div class=""stimulus-container"">
                    <img src=""images/semantic_sequence/using_technology_semantic/using_technology_semantic_1.png"" class=""exp-image"">
                    <div class=""question-area"">
                        <p style=""font-size: 20px; font-weight: bold; margin: 0;"">Is there a person in this image?</p>
                    </div>
                </div>","0","main_experiment_trial","1","using_technology_semantic","semantic_sequence","","","","",""
"","","","","","html-keyboard-response","82","380736","0.0-82.0","CE7478C1D1ED4D7FB87B7BD04ECB8FD2","019cf7c1-52a1-767a-b208-09bbb98fbc41","019cf7bd-52b9-7f96-9138-a5960b400b31","","null","
                <div class=""stimulus-container"">
                    <img src=""images/semantic_sequence/using_technology_semantic/using_technology_semantic_2.png"" class=""exp-image"">
                    <div class=""question-area""></div> 
                </div>","null","","","","","","","","",""
"","","","","","html-button-response","83","383739","0.0-83.0","CE7478C1D1ED4D7FB87B7BD04ECB8FD2","019cf7c1-52a1-767a-b208-09bbb98fbc41","019cf7bd-52b9-7f96-9138-a5960b400b31","","null","
                <div class=""stimulus-container"">
                    <img src=""images/semantic_sequence/using_technology_semantic/using_technology_semantic_2.png"" class=""exp-image"">
                    <div class=""question-area"">
                        <p style=""font-size: 20px; font-weight: bold; margin: 0;"">Is there a person in this image?</p>
                    </div>
                </div>","null","main_experiment_trial","2","using_technology_semantic","semantic_sequence","","","","",""
"","","","","","html-keyboard-response","84","388741","0.0-84.0","CE7478C1D1ED4D7FB87B7BD04ECB8FD2","019cf7c1-52a1-767a-b208-09bbb98fbc41","019cf7bd-52b9-7f96-9138-a5960b400b31","","null","
                <div class=""stimulus-container"">
                    <img src=""images/semantic_sequence/using_technology_semantic/using_technology_semantic_3.png"" class=""exp-image"">
                    <div class=""question-area""></div> 
                </div>","null","","","","","","","","",""
"","","","","","html-button-response","85","389299","0.0-85.0","CE7478C1D1ED4D7FB87B7BD04ECB8FD2","019cf7c1-52a1-767a-b208-09bbb98fbc41","019cf7bd-52b9-7f96-9138-a5960b400b31","","556","
                <div class=""stimulus-container"">
                    <img src=""images/semantic_sequence/using_technology_semantic/using_technology_semantic_3.png"" class=""exp-image"">
                    <div class=""question-area"">
                        <p style=""font-size: 20px; font-weight: bold; margin: 0;"">Is there a person in this image?</p>
                    </div>
                </div>","0","main_experiment_trial","3","using_technology_semantic","semantic_sequence","","","","",""
"","","","","","html-keyboard-response","86","394303","0.0-86.0","CE7478C1D1ED4D7FB87B7BD04ECB8FD2","019cf7c1-52a1-767a-b208-09bbb98fbc41","019cf7bd-52b9-7f96-9138-a5960b400b31","","null","
                <div class=""stimulus-container"">
                    <img src=""images/semantic_sequence/using_technology_semantic/using_technology_semantic_4.png"" class=""exp-image"">
                    <div class=""question-area""></div> 
                </div>","null","","","","","","","","",""
"","","","","","html-button-response","87","394760","0.0-87.0","CE7478C1D1ED4D7FB87B7BD04ECB8FD2","019cf7c1-52a1-767a-b208-09bbb98fbc41","019cf7bd-52b9-7f96-9138-a5960b400b31","","455","
                <div class=""stimulus-container"">
                    <img src=""images/semantic_sequence/using_technology_semantic/using_technology_semantic_4.png"" class=""exp-image"">
                    <div class=""question-area"">
                        <p style=""font-size: 20px; font-weight: bold; margin: 0;"">Is there a person in this image?</p>
                    </div>
                </div>","0","main_experiment_trial","4","using_technology_semantic","semantic_sequence","","","","",""
"","","","","","html-keyboard-response","88","399762","0.0-88.0","CE7478C1D1ED4D7FB87B7BD04ECB8FD2","019cf7c1-52a1-767a-b208-09bbb98fbc41","019cf7bd-52b9-7f96-9138-a5960b400b31","","null","
                <div class=""stimulus-container"">
                    <img src=""images/semantic_sequence/using_technology_semantic/using_technology_semantic_5.png"" class=""exp-image"">
                    <div class=""question-area""></div> 
                </div>","null","","","","","","","","",""
"","","","","","html-button-response","89","400596","0.0-89.0","CE7478C1D1ED4D7FB87B7BD04ECB8FD2","019cf7c1-52a1-767a-b208-09bbb98fbc41","019cf7bd-52b9-7f96-9138-a5960b400b31","","832","
                <div class=""stimulus-container"">
                    <img src=""images/semantic_sequence/using_technology_semantic/using_technology_semantic_5.png"" class=""exp-image"">
                    <div class=""question-area"">
                        <p style=""font-size: 20px; font-weight: bold; margin: 0;"">Is there a person in this image?</p>
                    </div>
                </div>","0","main_experiment_trial","5","using_technology_semantic","semantic_sequence","","","","",""
"","","","","","html-keyboard-response","90","405599","0.0-90.0","CE7478C1D1ED4D7FB87B7BD04ECB8FD2","019cf7c1-52a1-767a-b208-09bbb98fbc41","019cf7bd-52b9-7f96-9138-a5960b400b31","","null","
                <div class=""stimulus-container"">
                    <img src=""images/semantic_sequence/using_technology_semantic/using_technology_semantic_6.png"" class=""exp-image"">
                    <div class=""question-area""></div> 
                </div>","null","","","","","","","","",""
"","","","","","html-button-response","91","406180","0.0-91.0","CE7478C1D1ED4D7FB87B7BD04ECB8FD2","019cf7c1-52a1-767a-b208-09bbb98fbc41","019cf7bd-52b9-7f96-9138-a5960b400b31","","579","
                <div class=""stimulus-container"">
                    <img src=""images/semantic_sequence/using_technology_semantic/using_technology_semantic_6.png"" class=""exp-image"">
                    <div class=""question-area"">
                        <p style=""font-size: 20px; font-weight: bold; margin: 0;"">Is there a person in this image?</p>
                    </div>
                </div>","0","main_experiment_trial","6","using_technology_semantic","semantic_sequence","","","","",""
"","","","","","html-keyboard-response","92","411183","0.0-92.0","CE7478C1D1ED4D7FB87B7BD04ECB8FD2","019cf7c1-52a1-767a-b208-09bbb98fbc41","019cf7bd-52b9-7f96-9138-a5960b400b31","","null","
                <div class=""stimulus-container"">
                    <img src=""images/semantic_sequence/using_technology_semantic/using_technology_semantic_7.png"" class=""exp-image"">
                    <div class=""question-area""></div> 
                </div>","null","","","","","","","","",""
"","","","","","html-button-response","93","411665","0.0-93.0","CE7478C1D1ED4D7FB87B7BD04ECB8FD2","019cf7c1-52a1-767a-b208-09bbb98fbc41","019cf7bd-52b9-7f96-9138-a5960b400b31","","480","
                <div class=""stimulus-container"">
                    <img src=""images/semantic_sequence/using_technology_semantic/using_technology_semantic_7.png"" class=""exp-image"">
                    <div class=""question-area"">
                        <p style=""font-size: 20px; font-weight: bold; margin: 0;"">Is there a person in this image?</p>
                    </div>
                </div>","0","main_experiment_trial","7","using_technology_semantic","semantic_sequence","","","","",""
"","","","","","html-keyboard-response","94","416669","0.0-94.0","CE7478C1D1ED4D7FB87B7BD04ECB8FD2","019cf7c1-52a1-767a-b208-09bbb98fbc41","019cf7bd-52b9-7f96-9138-a5960b400b31","","null","
                <div class=""stimulus-container"">
                    <img src=""images/semantic_sequence/using_technology_semantic/using_technology_semantic_8.png"" class=""exp-image"">
                    <div class=""question-area""></div> 
                </div>","null","","","","","","","","",""
"","","","","","html-button-response","95","418042","0.0-95.0","CE7478C1D1ED4D7FB87B7BD04ECB8FD2","019cf7c1-52a1-767a-b208-09bbb98fbc41","019cf7bd-52b9-7f96-9138-a5960b400b31","","1371","
                <div class=""stimulus-container"">
                    <img src=""images/semantic_sequence/using_technology_semantic/using_technology_semantic_8.png"" class=""exp-image"">
                    <div class=""question-area"">
                        <p style=""font-size: 20px; font-weight: bold; margin: 0;"">Is there a person in this image?</p>
                    </div>
                </div>","0","main_experiment_trial","8","using_technology_semantic","semantic_sequence","","","","",""
"","","","","","html-keyboard-response","96","423046","0.0-96.0","CE7478C1D1ED4D7FB87B7BD04ECB8FD2","019cf7c1-52a1-767a-b208-09bbb98fbc41","019cf7bd-52b9-7f96-9138-a5960b400b31","","null","
                <div class=""stimulus-container"">
                    <img src=""images/semantic_sequence/using_technology_semantic/using_technology_semantic_9.png"" class=""exp-image"">
                    <div class=""question-area""></div> 
                </div>","null","","","","","","","","",""
"","","","","","html-button-response","97","424598","0.0-97.0","CE7478C1D1ED4D7FB87B7BD04ECB8FD2","019cf7c1-52a1-767a-b208-09bbb98fbc41","019cf7bd-52b9-7f96-9138-a5960b400b31","","1550","
                <div class=""stimulus-container"">
                    <img src=""images/semantic_sequence/using_technology_semantic/using_technology_semantic_9.png"" class=""exp-image"">
                    <div class=""question-area"">
                        <p style=""font-size: 20px; font-weight: bold; margin: 0;"">Is there a person in this image?</p>
                    </div>
                </div>","0","main_experiment_trial","9","using_technology_semantic","semantic_sequence","","","","",""
"","","","","","html-keyboard-response","98","429600","0.0-98.0","CE7478C1D1ED4D7FB87B7BD04ECB8FD2","019cf7c1-52a1-767a-b208-09bbb98fbc41","019cf7bd-52b9-7f96-9138-a5960b400b31","","null","
                <div class=""stimulus-container"">
                    <img src=""images/semantic_sequence/using_technology_semantic/using_technology_semantic_ten.png"" class=""exp-image"">
                    <div class=""question-area""></div> 
                </div>","null","","","","","","","","",""
"","","","","","html-button-response","99","430204","0.0-99.0","CE7478C1D1ED4D7FB87B7BD04ECB8FD2","019cf7c1-52a1-767a-b208-09bbb98fbc41","019cf7bd-52b9-7f96-9138-a5960b400b31","","600","
                <div class=""stimulus-container"">
                    <img src=""images/semantic_sequence/using_technology_semantic/using_technology_semantic_ten.png"" class=""exp-image"">
                    <div class=""question-area"">
                        <p style=""font-size: 20px; font-weight: bold; margin: 0;"">Is there a person in this image?</p>
                    </div>
                </div>","0","main_experiment_trial","ten","using_technology_semantic","semantic_sequence","","","","",""
"","","","","","html-keyboard-response","100","431207","0.0-100.0","CE7478C1D1ED4D7FB87B7BD04ECB8FD2","019cf7c1-52a1-767a-b208-09bbb98fbc41","019cf7bd-52b9-7f96-9138-a5960b400b31","","null","<div style=""background-color: white; width: 100vw; height: 100vh;""></div>","null","","","","","","","","",""
"","","","","","html-keyboard-response","101","436209","0.0-101.0","CE7478C1D1ED4D7FB87B7BD04ECB8FD2","019cf7c1-52a1-767a-b208-09bbb98fbc41","019cf7bd-52b9-7f96-9138-a5960b400b31","","null","
                <div class=""stimulus-container"">
                    <img src=""images/schematic_sequence/dinner_party_scheme/dinner_party_scheme_1.png"" class=""exp-image"">
                    <div class=""question-area""></div> 
                </div>","null","","","","","","","","",""
"","","","","","html-button-response","102","437502","0.0-102.0","CE7478C1D1ED4D7FB87B7BD04ECB8FD2","019cf7c1-52a1-767a-b208-09bbb98fbc41","019cf7bd-52b9-7f96-9138-a5960b400b31","","1290","
                <div class=""stimulus-container"">
                    <img src=""images/schematic_sequence/dinner_party_scheme/dinner_party_scheme_1.png"" class=""exp-image"">
                    <div class=""question-area"">
                        <p style=""font-size: 20px; font-weight: bold; margin: 0;"">Is there a person in this image?</p>
                    </div>
                </div>","1","main_experiment_trial","1","dinner_party_scheme","schematic_sequence","","","","",""
"","","","","","html-keyboard-response","103","442505","0.0-103.0","CE7478C1D1ED4D7FB87B7BD04ECB8FD2","019cf7c1-52a1-767a-b208-09bbb98fbc41","019cf7bd-52b9-7f96-9138-a5960b400b31","","null","
                <div class=""stimulus-container"">
                    <img src=""images/schematic_sequence/dinner_party_scheme/dinner_party_scheme_2.png"" class=""exp-image"">
                    <div class=""question-area""></div> 
                </div>","null","","","","","","","","",""
"","","","","","html-button-response","104","443775","0.0-104.0","CE7478C1D1ED4D7FB87B7BD04ECB8FD2","019cf7c1-52a1-767a-b208-09bbb98fbc41","019cf7bd-52b9-7f96-9138-a5960b400b31","","1268","
                <div class=""stimulus-container"">
                    <img src=""images/schematic_sequence/dinner_party_scheme/dinner_party_scheme_2.png"" class=""exp-image"">
                    <div class=""question-area"">
                        <p style=""font-size: 20px; font-weight: bold; margin: 0;"">Is there a person in this image?</p>
                    </div>
                </div>","1","main_experiment_trial","2","dinner_party_scheme","schematic_sequence","","","","",""
"","","","","","html-keyboard-response","105","448779","0.0-105.0","CE7478C1D1ED4D7FB87B7BD04ECB8FD2","019cf7c1-52a1-767a-b208-09bbb98fbc41","019cf7bd-52b9-7f96-9138-a5960b400b31","","null","
                <div class=""stimulus-container"">
                    <img src=""images/schematic_sequence/dinner_party_scheme/dinner_party_scheme_3.png"" class=""exp-image"">
                    <div class=""question-area""></div> 
                </div>","null","","","","","","","","",""
"","","","","","html-button-response","106","449841","0.0-106.0","CE7478C1D1ED4D7FB87B7BD04ECB8FD2","019cf7c1-52a1-767a-b208-09bbb98fbc41","019cf7bd-52b9-7f96-9138-a5960b400b31","","1060","
                <div class=""stimulus-container"">
                    <img src=""images/schematic_sequence/dinner_party_scheme/dinner_party_scheme_3.png"" class=""exp-image"">
                    <div class=""question-area"">
                        <p style=""font-size: 20px; font-weight: bold; margin: 0;"">Is there a person in this image?</p>
                    </div>
                </div>","0","main_experiment_trial","3","dinner_party_scheme","schematic_sequence","","","","",""
"","","","","","html-keyboard-response","107","454844","0.0-107.0","CE7478C1D1ED4D7FB87B7BD04ECB8FD2","019cf7c1-52a1-767a-b208-09bbb98fbc41","019cf7bd-52b9-7f96-9138-a5960b400b31","","null","
                <div class=""stimulus-container"">
                    <img src=""images/schematic_sequence/dinner_party_scheme/dinner_party_scheme_4.png"" class=""exp-image"">
                    <div class=""question-area""></div> 
                </div>","null","","","","","","","","",""
"","","","","","html-button-response","108","455869","0.0-108.0","CE7478C1D1ED4D7FB87B7BD04ECB8FD2","019cf7c1-52a1-767a-b208-09bbb98fbc41","019cf7bd-52b9-7f96-9138-a5960b400b31","","1023","
                <div class=""stimulus-container"">
                    <img src=""images/schematic_sequence/dinner_party_scheme/dinner_party_scheme_4.png"" class=""exp-image"">
                    <div class=""question-area"">
                        <p style=""font-size: 20px; font-weight: bold; margin: 0;"">Is there a person in this image?</p>
                    </div>
                </div>","0","main_experiment_trial","4","dinner_party_scheme","schematic_sequence","","","","",""
"","","","","","html-keyboard-response","109","460871","0.0-109.0","CE7478C1D1ED4D7FB87B7BD04ECB8FD2","019cf7c1-52a1-767a-b208-09bbb98fbc41","019cf7bd-52b9-7f96-9138-a5960b400b31","","null","
                <div class=""stimulus-container"">
                    <img src=""images/schematic_sequence/dinner_party_scheme/dinner_party_scheme_5.png"" class=""exp-image"">
                    <div class=""question-area""></div> 
                </div>","null","","","","","","","","",""
"","","","","","html-button-response","110","462877","0.0-110.0","CE7478C1D1ED4D7FB87B7BD04ECB8FD2","019cf7c1-52a1-767a-b208-09bbb98fbc41","019cf7bd-52b9-7f96-9138-a5960b400b31","","2005","
                <div class=""stimulus-container"">
                    <img src=""images/schematic_sequence/dinner_party_scheme/dinner_party_scheme_5.png"" class=""exp-image"">
                    <div class=""question-area"">
                        <p style=""font-size: 20px; font-weight: bold; margin: 0;"">Is there a person in this image?</p>
                    </div>
                </div>","1","main_experiment_trial","5","dinner_party_scheme","schematic_sequence","","","","",""
"","","","","","html-keyboard-response","111","467879","0.0-111.0","CE7478C1D1ED4D7FB87B7BD04ECB8FD2","019cf7c1-52a1-767a-b208-09bbb98fbc41","019cf7bd-52b9-7f96-9138-a5960b400b31","","null","
                <div class=""stimulus-container"">
                    <img src=""images/schematic_sequence/dinner_party_scheme/dinner_party_scheme_6.png"" class=""exp-image"">
                    <div class=""question-area""></div> 
                </div>","null","","","","","","","","",""
"","","","","","html-button-response","112","468587","0.0-112.0","CE7478C1D1ED4D7FB87B7BD04ECB8FD2","019cf7c1-52a1-767a-b208-09bbb98fbc41","019cf7bd-52b9-7f96-9138-a5960b400b31","","706","
                <div class=""stimulus-container"">
                    <img src=""images/schematic_sequence/dinner_party_scheme/dinner_party_scheme_6.png"" class=""exp-image"">
                    <div class=""question-area"">
                        <p style=""font-size: 20px; font-weight: bold; margin: 0;"">Is there a person in this image?</p>
                    </div>
                </div>","0","main_experiment_trial","6","dinner_party_scheme","schematic_sequence","","","","",""
"","","","","","html-keyboard-response","113","473591","0.0-113.0","CE7478C1D1ED4D7FB87B7BD04ECB8FD2","019cf7c1-52a1-767a-b208-09bbb98fbc41","019cf7bd-52b9-7f96-9138-a5960b400b31","","null","
                <div class=""stimulus-container"">
                    <img src=""images/schematic_sequence/dinner_party_scheme/dinner_party_scheme_7.png"" class=""exp-image"">
                    <div class=""question-area""></div> 
                </div>","null","","","","","","","","",""
"","","","","","html-button-response","114","475309","0.0-114.0","CE7478C1D1ED4D7FB87B7BD04ECB8FD2","019cf7c1-52a1-767a-b208-09bbb98fbc41","019cf7bd-52b9-7f96-9138-a5960b400b31","","1716","
                <div class=""stimulus-container"">
                    <img src=""images/schematic_sequence/dinner_party_scheme/dinner_party_scheme_7.png"" class=""exp-image"">
                    <div class=""question-area"">
                        <p style=""font-size: 20px; font-weight: bold; margin: 0;"">Is there a person in this image?</p>
                    </div>
                </div>","0","main_experiment_trial","7","dinner_party_scheme","schematic_sequence","","","","",""
"","","","","","html-keyboard-response","115","480312","0.0-115.0","CE7478C1D1ED4D7FB87B7BD04ECB8FD2","019cf7c1-52a1-767a-b208-09bbb98fbc41","019cf7bd-52b9-7f96-9138-a5960b400b31","","null","
                <div class=""stimulus-container"">
                    <img src=""images/schematic_sequence/dinner_party_scheme/dinner_party_scheme_8.png"" class=""exp-image"">
                    <div class=""question-area""></div> 
                </div>","null","","","","","","","","",""
"","","","","","html-button-response","116","480832","0.0-116.0","CE7478C1D1ED4D7FB87B7BD04ECB8FD2","019cf7c1-52a1-767a-b208-09bbb98fbc41","019cf7bd-52b9-7f96-9138-a5960b400b31","","518","
                <div class=""stimulus-container"">
                    <img src=""images/schematic_sequence/dinner_party_scheme/dinner_party_scheme_8.png"" class=""exp-image"">
                    <div class=""question-area"">
                        <p style=""font-size: 20px; font-weight: bold; margin: 0;"">Is there a person in this image?</p>
                    </div>
                </div>","0","main_experiment_trial","8","dinner_party_scheme","schematic_sequence","","","","",""
"","","","","","html-keyboard-response","117","485834","0.0-117.0","CE7478C1D1ED4D7FB87B7BD04ECB8FD2","019cf7c1-52a1-767a-b208-09bbb98fbc41","019cf7bd-52b9-7f96-9138-a5960b400b31","","null","
                <div class=""stimulus-container"">
                    <img src=""images/schematic_sequence/dinner_party_scheme/dinner_party_scheme_9.png"" class=""exp-image"">
                    <div class=""question-area""></div> 
                </div>","null","","","","","","","","",""
"","","","","","html-button-response","118","488035","0.0-118.0","CE7478C1D1ED4D7FB87B7BD04ECB8FD2","019cf7c1-52a1-767a-b208-09bbb98fbc41","019cf7bd-52b9-7f96-9138-a5960b400b31","","2199","
                <div class=""stimulus-container"">
                    <img src=""images/schematic_sequence/dinner_party_scheme/dinner_party_scheme_9.png"" class=""exp-image"">
                    <div class=""question-area"">
                        <p style=""font-size: 20px; font-weight: bold; margin: 0;"">Is there a person in this image?</p>
                    </div>
                </div>","0","main_experiment_trial","9","dinner_party_scheme","schematic_sequence","","","","",""
"","","","","","html-keyboard-response","119","493039","0.0-119.0","CE7478C1D1ED4D7FB87B7BD04ECB8FD2","019cf7c1-52a1-767a-b208-09bbb98fbc41","019cf7bd-52b9-7f96-9138-a5960b400b31","","null","
                <div class=""stimulus-container"">
                    <img src=""images/schematic_sequence/dinner_party_scheme/dinner_party_scheme_ten.png"" class=""exp-image"">
                    <div class=""question-area""></div> 
                </div>","null","","","","","","","","",""
"","","","","","html-button-response","120","494298","0.0-120.0","CE7478C1D1ED4D7FB87B7BD04ECB8FD2","019cf7c1-52a1-767a-b208-09bbb98fbc41","019cf7bd-52b9-7f96-9138-a5960b400b31","","1257","
                <div class=""stimulus-container"">
                    <img src=""images/schematic_sequence/dinner_party_scheme/dinner_party_scheme_ten.png"" class=""exp-image"">
                    <div class=""question-area"">
                        <p style=""font-size: 20px; font-weight: bold; margin: 0;"">Is there a person in this image?</p>
                    </div>
                </div>","0","main_experiment_trial","ten","dinner_party_scheme","schematic_sequence","","","","",""
"","","","","","html-keyboard-response","121","495300","0.0-121.0","CE7478C1D1ED4D7FB87B7BD04ECB8FD2","019cf7c1-52a1-767a-b208-09bbb98fbc41","019cf7bd-52b9-7f96-9138-a5960b400b31","","null","<div style=""background-color: white; width: 100vw; height: 100vh;""></div>","null","","","","","","","","",""
"","","","","","html-keyboard-response","122","500303","0.0-122.0","CE7478C1D1ED4D7FB87B7BD04ECB8FD2","019cf7c1-52a1-767a-b208-09bbb98fbc41","019cf7bd-52b9-7f96-9138-a5960b400b31","","null","
                <div class=""stimulus-container"">
                    <img src=""images/schematic_sequence/flight_scheme/flight_scheme_1.png"" class=""exp-image"">
                    <div class=""question-area""></div> 
                </div>","null","","","","","","","","",""
"","","","","","html-button-response","123","500890","0.0-123.0","CE7478C1D1ED4D7FB87B7BD04ECB8FD2","019cf7c1-52a1-767a-b208-09bbb98fbc41","019cf7bd-52b9-7f96-9138-a5960b400b31","","585","
                <div class=""stimulus-container"">
                    <img src=""images/schematic_sequence/flight_scheme/flight_scheme_1.png"" class=""exp-image"">
                    <div class=""question-area"">
                        <p style=""font-size: 20px; font-weight: bold; margin: 0;"">Is there a person in this image?</p>
                    </div>
                </div>","1","main_experiment_trial","1","flight_scheme","schematic_sequence","","","","",""
"","","","","","html-keyboard-response","124","505894","0.0-124.0","CE7478C1D1ED4D7FB87B7BD04ECB8FD2","019cf7c1-52a1-767a-b208-09bbb98fbc41","019cf7bd-52b9-7f96-9138-a5960b400b31","","null","
                <div class=""stimulus-container"">
                    <img src=""images/schematic_sequence/flight_scheme/flight_scheme_2.png"" class=""exp-image"">
                    <div class=""question-area""></div> 
                </div>","null","","","","","","","","",""
"","","","","","html-button-response","125","506576","0.0-125.0","CE7478C1D1ED4D7FB87B7BD04ECB8FD2","019cf7c1-52a1-767a-b208-09bbb98fbc41","019cf7bd-52b9-7f96-9138-a5960b400b31","","680","
                <div class=""stimulus-container"">
                    <img src=""images/schematic_sequence/flight_scheme/flight_scheme_2.png"" class=""exp-image"">
                    <div class=""question-area"">
                        <p style=""font-size: 20px; font-weight: bold; margin: 0;"">Is there a person in this image?</p>
                    </div>
                </div>","1","main_experiment_trial","2","flight_scheme","schematic_sequence","","","","",""
"","","","","","html-keyboard-response","126","511579","0.0-126.0","CE7478C1D1ED4D7FB87B7BD04ECB8FD2","019cf7c1-52a1-767a-b208-09bbb98fbc41","019cf7bd-52b9-7f96-9138-a5960b400b31","","null","
                <div class=""stimulus-container"">
                    <img src=""images/schematic_sequence/flight_scheme/flight_scheme_3.png"" class=""exp-image"">
                    <div class=""question-area""></div> 
                </div>","null","","","","","","","","",""
"","","","","","html-button-response","127","512478","0.0-127.0","CE7478C1D1ED4D7FB87B7BD04ECB8FD2","019cf7c1-52a1-767a-b208-09bbb98fbc41","019cf7bd-52b9-7f96-9138-a5960b400b31","","898","
                <div class=""stimulus-container"">
                    <img src=""images/schematic_sequence/flight_scheme/flight_scheme_3.png"" class=""exp-image"">
                    <div class=""question-area"">
                        <p style=""font-size: 20px; font-weight: bold; margin: 0;"">Is there a person in this image?</p>
                    </div>
                </div>","0","main_experiment_trial","3","flight_scheme","schematic_sequence","","","","",""
"","","","","","html-keyboard-response","128","517481","0.0-128.0","CE7478C1D1ED4D7FB87B7BD04ECB8FD2","019cf7c1-52a1-767a-b208-09bbb98fbc41","019cf7bd-52b9-7f96-9138-a5960b400b31","","null","
                <div class=""stimulus-container"">
                    <img src=""images/schematic_sequence/flight_scheme/flight_scheme_4.png"" class=""exp-image"">
                    <div class=""question-area""></div> 
                </div>","null","","","","","","","","",""
"","","","","","html-button-response","129","520345","0.0-129.0","CE7478C1D1ED4D7FB87B7BD04ECB8FD2","019cf7c1-52a1-767a-b208-09bbb98fbc41","019cf7bd-52b9-7f96-9138-a5960b400b31","","2863","
                <div class=""stimulus-container"">
                    <img src=""images/schematic_sequence/flight_scheme/flight_scheme_4.png"" class=""exp-image"">
                    <div class=""question-area"">
                        <p style=""font-size: 20px; font-weight: bold; margin: 0;"">Is there a person in this image?</p>
                    </div>
                </div>","0","main_experiment_trial","4","flight_scheme","schematic_sequence","","","","",""
"","","","","","html-keyboard-response","130","525349","0.0-130.0","CE7478C1D1ED4D7FB87B7BD04ECB8FD2","019cf7c1-52a1-767a-b208-09bbb98fbc41","019cf7bd-52b9-7f96-9138-a5960b400b31","","null","
                <div class=""stimulus-container"">
                    <img src=""images/schematic_sequence/flight_scheme/flight_scheme_5.png"" class=""exp-image"">
                    <div class=""question-area""></div> 
                </div>","null","","","","","","","","",""
"","","","","","html-button-response","131","528351","0.0-131.0","CE7478C1D1ED4D7FB87B7BD04ECB8FD2","019cf7c1-52a1-767a-b208-09bbb98fbc41","019cf7bd-52b9-7f96-9138-a5960b400b31","","null","
                <div class=""stimulus-container"">
                    <img src=""images/schematic_sequence/flight_scheme/flight_scheme_5.png"" class=""exp-image"">
                    <div class=""question-area"">
                        <p style=""font-size: 20px; font-weight: bold; margin: 0;"">Is there a person in this image?</p>
                    </div>
                </div>","null","main_experiment_trial","5","flight_scheme","schematic_sequence","","","","",""
"","","","","","html-keyboard-response","132","533353","0.0-132.0","CE7478C1D1ED4D7FB87B7BD04ECB8FD2","019cf7c1-52a1-767a-b208-09bbb98fbc41","019cf7bd-52b9-7f96-9138-a5960b400b31","","null","
                <div class=""stimulus-container"">
                    <img src=""images/schematic_sequence/flight_scheme/flight_scheme_6.png"" class=""exp-image"">
                    <div class=""question-area""></div> 
                </div>","null","","","","","","","","",""
"","","","","","html-button-response","133","534582","0.0-133.0","CE7478C1D1ED4D7FB87B7BD04ECB8FD2","019cf7c1-52a1-767a-b208-09bbb98fbc41","019cf7bd-52b9-7f96-9138-a5960b400b31","","1224","
                <div class=""stimulus-container"">
                    <img src=""images/schematic_sequence/flight_scheme/flight_scheme_6.png"" class=""exp-image"">
                    <div class=""question-area"">
                        <p style=""font-size: 20px; font-weight: bold; margin: 0;"">Is there a person in this image?</p>
                    </div>
                </div>","1","main_experiment_trial","6","flight_scheme","schematic_sequence","","","","",""
"","","","","","html-keyboard-response","134","539586","0.0-134.0","CE7478C1D1ED4D7FB87B7BD04ECB8FD2","019cf7c1-52a1-767a-b208-09bbb98fbc41","019cf7bd-52b9-7f96-9138-a5960b400b31","","null","
                <div class=""stimulus-container"">
                    <img src=""images/schematic_sequence/flight_scheme/flight_scheme_7.png"" class=""exp-image"">
                    <div class=""question-area""></div> 
                </div>","null","","","","","","","","",""
"","","","","","html-button-response","135","540981","0.0-135.0","CE7478C1D1ED4D7FB87B7BD04ECB8FD2","019cf7c1-52a1-767a-b208-09bbb98fbc41","019cf7bd-52b9-7f96-9138-a5960b400b31","","1393","
                <div class=""stimulus-container"">
                    <img src=""images/schematic_sequence/flight_scheme/flight_scheme_7.png"" class=""exp-image"">
                    <div class=""question-area"">
                        <p style=""font-size: 20px; font-weight: bold; margin: 0;"">Is there a person in this image?</p>
                    </div>
                </div>","1","main_experiment_trial","7","flight_scheme","schematic_sequence","","","","",""
"","","","","","html-keyboard-response","136","545984","0.0-136.0","CE7478C1D1ED4D7FB87B7BD04ECB8FD2","019cf7c1-52a1-767a-b208-09bbb98fbc41","019cf7bd-52b9-7f96-9138-a5960b400b31","","null","
                <div class=""stimulus-container"">
                    <img src=""images/schematic_sequence/flight_scheme/flight_scheme_8.png"" class=""exp-image"">
                    <div class=""question-area""></div> 
                </div>","null","","","","","","","","",""
"","","","","","html-button-response","137","548139","0.0-137.0","CE7478C1D1ED4D7FB87B7BD04ECB8FD2","019cf7c1-52a1-767a-b208-09bbb98fbc41","019cf7bd-52b9-7f96-9138-a5960b400b31","","2153","
                <div class=""stimulus-container"">
                    <img src=""images/schematic_sequence/flight_scheme/flight_scheme_8.png"" class=""exp-image"">
                    <div class=""question-area"">
                        <p style=""font-size: 20px; font-weight: bold; margin: 0;"">Is there a person in this image?</p>
                    </div>
                </div>","1","main_experiment_trial","8","flight_scheme","schematic_sequence","","","","",""
"","","","","","html-keyboard-response","138","553141","0.0-138.0","CE7478C1D1ED4D7FB87B7BD04ECB8FD2","019cf7c1-52a1-767a-b208-09bbb98fbc41","019cf7bd-52b9-7f96-9138-a5960b400b31","","null","
                <div class=""stimulus-container"">
                    <img src=""images/schematic_sequence/flight_scheme/flight_scheme_9.png"" class=""exp-image"">
                    <div class=""question-area""></div> 
                </div>","null","","","","","","","","",""
"","","","","","html-button-response","139","554047","0.0-139.0","CE7478C1D1ED4D7FB87B7BD04ECB8FD2","019cf7c1-52a1-767a-b208-09bbb98fbc41","019cf7bd-52b9-7f96-9138-a5960b400b31","","904","
                <div class=""stimulus-container"">
                    <img src=""images/schematic_sequence/flight_scheme/flight_scheme_9.png"" class=""exp-image"">
                    <div class=""question-area"">
                        <p style=""font-size: 20px; font-weight: bold; margin: 0;"">Is there a person in this image?</p>
                    </div>
                </div>","0","main_experiment_trial","9","flight_scheme","schematic_sequence","","","","",""
"","","","","","html-keyboard-response","140","559050","0.0-140.0","CE7478C1D1ED4D7FB87B7BD04ECB8FD2","019cf7c1-52a1-767a-b208-09bbb98fbc41","019cf7bd-52b9-7f96-9138-a5960b400b31","","null","
                <div class=""stimulus-container"">
                    <img src=""images/schematic_sequence/flight_scheme/flight_scheme_ten.png"" class=""exp-image"">
                    <div class=""question-area""></div> 
                </div>","null","","","","","","","","",""
"","","","","","html-button-response","141","561260","0.0-141.0","CE7478C1D1ED4D7FB87B7BD04ECB8FD2","019cf7c1-52a1-767a-b208-09bbb98fbc41","019cf7bd-52b9-7f96-9138-a5960b400b31","","2208","
                <div class=""stimulus-container"">
                    <img src=""images/schematic_sequence/flight_scheme/flight_scheme_ten.png"" class=""exp-image"">
                    <div class=""question-area"">
                        <p style=""font-size: 20px; font-weight: bold; margin: 0;"">Is there a person in this image?</p>
                    </div>
                </div>","0","main_experiment_trial","ten","flight_scheme","schematic_sequence","","","","",""
"","","","","","html-keyboard-response","142","562263","0.0-142.0","CE7478C1D1ED4D7FB87B7BD04ECB8FD2","019cf7c1-52a1-767a-b208-09bbb98fbc41","019cf7bd-52b9-7f96-9138-a5960b400b31","","null","<div style=""background-color: white; width: 100vw; height: 100vh;""></div>","null","","","","","","","","",""
"","","","","","html-keyboard-response","143","567264","0.0-143.0","CE7478C1D1ED4D7FB87B7BD04ECB8FD2","019cf7c1-52a1-767a-b208-09bbb98fbc41","019cf7bd-52b9-7f96-9138-a5960b400b31","","null","
                <div class=""stimulus-container"">
                    <img src=""images/semantic_sequence/kitchen_operations_semantic/kitchen_operations_semantic_1.png"" class=""exp-image"">
                    <div class=""question-area""></div> 
                </div>","null","","","","","","","","",""
"","","","","","html-button-response","144","567833","0.0-144.0","CE7478C1D1ED4D7FB87B7BD04ECB8FD2","019cf7c1-52a1-767a-b208-09bbb98fbc41","019cf7bd-52b9-7f96-9138-a5960b400b31","","567","
                <div class=""stimulus-container"">
                    <img src=""images/semantic_sequence/kitchen_operations_semantic/kitchen_operations_semantic_1.png"" class=""exp-image"">
                    <div class=""question-area"">
                        <p style=""font-size: 20px; font-weight: bold; margin: 0;"">Is there a person in this image?</p>
                    </div>
                </div>","0","main_experiment_trial","1","kitchen_operations_semantic","semantic_sequence","","","","",""
"","","","","","html-keyboard-response","145","572836","0.0-145.0","CE7478C1D1ED4D7FB87B7BD04ECB8FD2","019cf7c1-52a1-767a-b208-09bbb98fbc41","019cf7bd-52b9-7f96-9138-a5960b400b31","","null","
                <div class=""stimulus-container"">
                    <img src=""images/semantic_sequence/kitchen_operations_semantic/kitchen_operations_semantic_2.png"" class=""exp-image"">
                    <div class=""question-area""></div> 
                </div>","null","","","","","","","","",""
"","","","","","html-button-response","146","573562","0.0-146.0","CE7478C1D1ED4D7FB87B7BD04ECB8FD2","019cf7c1-52a1-767a-b208-09bbb98fbc41","019cf7bd-52b9-7f96-9138-a5960b400b31","","724","
                <div class=""stimulus-container"">
                    <img src=""images/semantic_sequence/kitchen_operations_semantic/kitchen_operations_semantic_2.png"" class=""exp-image"">
                    <div class=""question-area"">
                        <p style=""font-size: 20px; font-weight: bold; margin: 0;"">Is there a person in this image?</p>
                    </div>
                </div>","0","main_experiment_trial","2","kitchen_operations_semantic","semantic_sequence","","","","",""
"","","","","","html-keyboard-response","147","578566","0.0-147.0","CE7478C1D1ED4D7FB87B7BD04ECB8FD2","019cf7c1-52a1-767a-b208-09bbb98fbc41","019cf7bd-52b9-7f96-9138-a5960b400b31","","null","
                <div class=""stimulus-container"">
                    <img src=""images/semantic_sequence/kitchen_operations_semantic/kitchen_operations_semantic_3.png"" class=""exp-image"">
                    <div class=""question-area""></div> 
                </div>","null","","","","","","","","",""
"","","","","","html-button-response","148","580256","0.0-148.0","CE7478C1D1ED4D7FB87B7BD04ECB8FD2","019cf7c1-52a1-767a-b208-09bbb98fbc41","019cf7bd-52b9-7f96-9138-a5960b400b31","","1688","
                <div class=""stimulus-container"">
                    <img src=""images/semantic_sequence/kitchen_operations_semantic/kitchen_operations_semantic_3.png"" class=""exp-image"">
                    <div class=""question-area"">
                        <p style=""font-size: 20px; font-weight: bold; margin: 0;"">Is there a person in this image?</p>
                    </div>
                </div>","0","main_experiment_trial","3","kitchen_operations_semantic","semantic_sequence","","","","",""
"","","","","","html-keyboard-response","149","585260","0.0-149.0","CE7478C1D1ED4D7FB87B7BD04ECB8FD2","019cf7c1-52a1-767a-b208-09bbb98fbc41","019cf7bd-52b9-7f96-9138-a5960b400b31","","null","
                <div class=""stimulus-container"">
                    <img src=""images/semantic_sequence/kitchen_operations_semantic/kitchen_operations_semantic_4.png"" class=""exp-image"">
                    <div class=""question-area""></div> 
                </div>","null","","","","","","","","",""
"","","","","","html-button-response","150","587959","0.0-150.0","CE7478C1D1ED4D7FB87B7BD04ECB8FD2","019cf7c1-52a1-767a-b208-09bbb98fbc41","019cf7bd-52b9-7f96-9138-a5960b400b31","","2696","
                <div class=""stimulus-container"">
                    <img src=""images/semantic_sequence/kitchen_operations_semantic/kitchen_operations_semantic_4.png"" class=""exp-image"">
                    <div class=""question-area"">
                        <p style=""font-size: 20px; font-weight: bold; margin: 0;"">Is there a person in this image?</p>
                    </div>
                </div>","0","main_experiment_trial","4","kitchen_operations_semantic","semantic_sequence","","","","",""
"","","","","","html-keyboard-response","151","592962","0.0-151.0","CE7478C1D1ED4D7FB87B7BD04ECB8FD2","019cf7c1-52a1-767a-b208-09bbb98fbc41","019cf7bd-52b9-7f96-9138-a5960b400b31","","null","
                <div class=""stimulus-container"">
                    <img src=""images/semantic_sequence/kitchen_operations_semantic/kitchen_operations_semantic_5.png"" class=""exp-image"">
                    <div class=""question-area""></div> 
                </div>","null","","","","","","","","",""
"","","","","","html-button-response","152","593535","0.0-152.0","CE7478C1D1ED4D7FB87B7BD04ECB8FD2","019cf7c1-52a1-767a-b208-09bbb98fbc41","019cf7bd-52b9-7f96-9138-a5960b400b31","","571","
                <div class=""stimulus-container"">
                    <img src=""images/semantic_sequence/kitchen_operations_semantic/kitchen_operations_semantic_5.png"" class=""exp-image"">
                    <div class=""question-area"">
                        <p style=""font-size: 20px; font-weight: bold; margin: 0;"">Is there a person in this image?</p>
                    </div>
                </div>","0","main_experiment_trial","5","kitchen_operations_semantic","semantic_sequence","","","","",""
"","","","","","html-keyboard-response","153","598537","0.0-153.0","CE7478C1D1ED4D7FB87B7BD04ECB8FD2","019cf7c1-52a1-767a-b208-09bbb98fbc41","019cf7bd-52b9-7f96-9138-a5960b400b31","","null","
                <div class=""stimulus-container"">
                    <img src=""images/semantic_sequence/kitchen_operations_semantic/kitchen_operations_semantic_6.png"" class=""exp-image"">
                    <div class=""question-area""></div> 
                </div>","null","","","","","","","","",""
"","","","","","html-button-response","154","600502","0.0-154.0","CE7478C1D1ED4D7FB87B7BD04ECB8FD2","019cf7c1-52a1-767a-b208-09bbb98fbc41","019cf7bd-52b9-7f96-9138-a5960b400b31","","1962","
                <div class=""stimulus-container"">
                    <img src=""images/semantic_sequence/kitchen_operations_semantic/kitchen_operations_semantic_6.png"" class=""exp-image"">
                    <div class=""question-area"">
                        <p style=""font-size: 20px; font-weight: bold; margin: 0;"">Is there a person in this image?</p>
                    </div>
                </div>","0","main_experiment_trial","6","kitchen_operations_semantic","semantic_sequence","","","","",""
"","","","","","html-keyboard-response","155","605505","0.0-155.0","CE7478C1D1ED4D7FB87B7BD04ECB8FD2","019cf7c1-52a1-767a-b208-09bbb98fbc41","019cf7bd-52b9-7f96-9138-a5960b400b31","","null","
                <div class=""stimulus-container"">
                    <img src=""images/semantic_sequence/kitchen_operations_semantic/kitchen_operations_semantic_7.png"" class=""exp-image"">
                    <div class=""question-area""></div> 
                </div>","null","","","","","","","","",""
"","","","","","html-button-response","156","607030","0.0-156.0","CE7478C1D1ED4D7FB87B7BD04ECB8FD2","019cf7c1-52a1-767a-b208-09bbb98fbc41","019cf7bd-52b9-7f96-9138-a5960b400b31","","1522","
                <div class=""stimulus-container"">
                    <img src=""images/semantic_sequence/kitchen_operations_semantic/kitchen_operations_semantic_7.png"" class=""exp-image"">
                    <div class=""question-area"">
                        <p style=""font-size: 20px; font-weight: bold; margin: 0;"">Is there a person in this image?</p>
                    </div>
                </div>","0","main_experiment_trial","7","kitchen_operations_semantic","semantic_sequence","","","","",""
"","","","","","html-keyboard-response","157","612033","0.0-157.0","CE7478C1D1ED4D7FB87B7BD04ECB8FD2","019cf7c1-52a1-767a-b208-09bbb98fbc41","019cf7bd-52b9-7f96-9138-a5960b400b31","","null","
                <div class=""stimulus-container"">
                    <img src=""images/semantic_sequence/kitchen_operations_semantic/kitchen_operations_semantic_8.png"" class=""exp-image"">
                    <div class=""question-area""></div> 
                </div>","null","","","","","","","","",""
"","","","","","html-button-response","158","612743","0.0-158.0","CE7478C1D1ED4D7FB87B7BD04ECB8FD2","019cf7c1-52a1-767a-b208-09bbb98fbc41","019cf7bd-52b9-7f96-9138-a5960b400b31","","708","
                <div class=""stimulus-container"">
                    <img src=""images/semantic_sequence/kitchen_operations_semantic/kitchen_operations_semantic_8.png"" class=""exp-image"">
                    <div class=""question-area"">
                        <p style=""font-size: 20px; font-weight: bold; margin: 0;"">Is there a person in this image?</p>
                    </div>
                </div>","0","main_experiment_trial","8","kitchen_operations_semantic","semantic_sequence","","","","",""
"","","","","","html-keyboard-response","159","617746","0.0-159.0","CE7478C1D1ED4D7FB87B7BD04ECB8FD2","019cf7c1-52a1-767a-b208-09bbb98fbc41","019cf7bd-52b9-7f96-9138-a5960b400b31","","null","
                <div class=""stimulus-container"">
                    <img src=""images/semantic_sequence/kitchen_operations_semantic/kitchen_operations_semantic_9.png"" class=""exp-image"">
                    <div class=""question-area""></div> 
                </div>","null","","","","","","","","",""
"","","","","","html-button-response","160","618561","0.0-160.0","CE7478C1D1ED4D7FB87B7BD04ECB8FD2","019cf7c1-52a1-767a-b208-09bbb98fbc41","019cf7bd-52b9-7f96-9138-a5960b400b31","","811","
                <div class=""stimulus-container"">
                    <img src=""images/semantic_sequence/kitchen_operations_semantic/kitchen_operations_semantic_9.png"" class=""exp-image"">
                    <div class=""question-area"">
                        <p style=""font-size: 20px; font-weight: bold; margin: 0;"">Is there a person in this image?</p>
                    </div>
                </div>","1","main_experiment_trial","9","kitchen_operations_semantic","semantic_sequence","","","","",""
"","","","","","html-keyboard-response","161","623563","0.0-161.0","CE7478C1D1ED4D7FB87B7BD04ECB8FD2","019cf7c1-52a1-767a-b208-09bbb98fbc41","019cf7bd-52b9-7f96-9138-a5960b400b31","","null","
                <div class=""stimulus-container"">
                    <img src=""images/semantic_sequence/kitchen_operations_semantic/kitchen_operations_semantic_ten.png"" class=""exp-image"">
                    <div class=""question-area""></div> 
                </div>","null","","","","","","","","",""
"","","","","","html-button-response","162","624199","0.0-162.0","CE7478C1D1ED4D7FB87B7BD04ECB8FD2","019cf7c1-52a1-767a-b208-09bbb98fbc41","019cf7bd-52b9-7f96-9138-a5960b400b31","","635","
                <div class=""stimulus-container"">
                    <img src=""images/semantic_sequence/kitchen_operations_semantic/kitchen_operations_semantic_ten.png"" class=""exp-image"">
                    <div class=""question-area"">
                        <p style=""font-size: 20px; font-weight: bold; margin: 0;"">Is there a person in this image?</p>
                    </div>
                </div>","0","main_experiment_trial","ten","kitchen_operations_semantic","semantic_sequence","","","","",""
"","","","","","html-keyboard-response","163","625202","0.0-163.0","CE7478C1D1ED4D7FB87B7BD04ECB8FD2","019cf7c1-52a1-767a-b208-09bbb98fbc41","019cf7bd-52b9-7f96-9138-a5960b400b31","","null","<div style=""background-color: white; width: 100vw; height: 100vh;""></div>","null","","","","","","","","",""
"","","","","","html-keyboard-response","164","630204","0.0-164.0","CE7478C1D1ED4D7FB87B7BD04ECB8FD2","019cf7c1-52a1-767a-b208-09bbb98fbc41","019cf7bd-52b9-7f96-9138-a5960b400b31","","null","
                <div class=""stimulus-container"">
                    <img src=""images/schematic_sequence/interview_scheme/interview_scheme_1.png"" class=""exp-image"">
                    <div class=""question-area""></div> 
                </div>","null","","","","","","","","",""
"","","","","","html-button-response","165","631190","0.0-165.0","CE7478C1D1ED4D7FB87B7BD04ECB8FD2","019cf7c1-52a1-767a-b208-09bbb98fbc41","019cf7bd-52b9-7f96-9138-a5960b400b31","","983","
                <div class=""stimulus-container"">
                    <img src=""images/schematic_sequence/interview_scheme/interview_scheme_1.png"" class=""exp-image"">
                    <div class=""question-area"">
                        <p style=""font-size: 20px; font-weight: bold; margin: 0;"">Is there a person in this image?</p>
                    </div>
                </div>","1","main_experiment_trial","1","interview_scheme","schematic_sequence","","","","",""
"","","","","","html-keyboard-response","166","636193","0.0-166.0","CE7478C1D1ED4D7FB87B7BD04ECB8FD2","019cf7c1-52a1-767a-b208-09bbb98fbc41","019cf7bd-52b9-7f96-9138-a5960b400b31","","null","
                <div class=""stimulus-container"">
                    <img src=""images/schematic_sequence/interview_scheme/interview_scheme_2.png"" class=""exp-image"">
                    <div class=""question-area""></div> 
                </div>","null","","","","","","","","",""
"","","","","","html-button-response","167","637495","0.0-167.0","CE7478C1D1ED4D7FB87B7BD04ECB8FD2","019cf7c1-52a1-767a-b208-09bbb98fbc41","019cf7bd-52b9-7f96-9138-a5960b400b31","","1300","
                <div class=""stimulus-container"">
                    <img src=""images/schematic_sequence/interview_scheme/interview_scheme_2.png"" class=""exp-image"">
                    <div class=""question-area"">
                        <p style=""font-size: 20px; font-weight: bold; margin: 0;"">Is there a person in this image?</p>
                    </div>
                </div>","1","main_experiment_trial","2","interview_scheme","schematic_sequence","","","","",""
"","","","","","html-keyboard-response","168","642498","0.0-168.0","CE7478C1D1ED4D7FB87B7BD04ECB8FD2","019cf7c1-52a1-767a-b208-09bbb98fbc41","019cf7bd-52b9-7f96-9138-a5960b400b31","","null","
                <div class=""stimulus-container"">
                    <img src=""images/schematic_sequence/interview_scheme/interview_scheme_3.png"" class=""exp-image"">
                    <div class=""question-area""></div> 
                </div>","null","","","","","","","","",""
"","","","","","html-button-response","169","644034","0.0-169.0","CE7478C1D1ED4D7FB87B7BD04ECB8FD2","019cf7c1-52a1-767a-b208-09bbb98fbc41","019cf7bd-52b9-7f96-9138-a5960b400b31","","1533","
                <div class=""stimulus-container"">
                    <img src=""images/schematic_sequence/interview_scheme/interview_scheme_3.png"" class=""exp-image"">
                    <div class=""question-area"">
                        <p style=""font-size: 20px; font-weight: bold; margin: 0;"">Is there a person in this image?</p>
                    </div>
                </div>","1","main_experiment_trial","3","interview_scheme","schematic_sequence","","","","",""
"","","","","","html-keyboard-response","170","649036","0.0-170.0","CE7478C1D1ED4D7FB87B7BD04ECB8FD2","019cf7c1-52a1-767a-b208-09bbb98fbc41","019cf7bd-52b9-7f96-9138-a5960b400b31","","null","
                <div class=""stimulus-container"">
                    <img src=""images/schematic_sequence/interview_scheme/interview_scheme_4.png"" class=""exp-image"">
                    <div class=""question-area""></div> 
                </div>","null","","","","","","","","",""
"","","","","","html-button-response","171","649704","0.0-171.0","CE7478C1D1ED4D7FB87B7BD04ECB8FD2","019cf7c1-52a1-767a-b208-09bbb98fbc41","019cf7bd-52b9-7f96-9138-a5960b400b31","","665","
                <div class=""stimulus-container"">
                    <img src=""images/schematic_sequence/interview_scheme/interview_scheme_4.png"" class=""exp-image"">
                    <div class=""question-area"">
                        <p style=""font-size: 20px; font-weight: bold; margin: 0;"">Is there a person in this image?</p>
                    </div>
                </div>","1","main_experiment_trial","4","interview_scheme","schematic_sequence","","","","",""
"","","","","","html-keyboard-response","172","654707","0.0-172.0","CE7478C1D1ED4D7FB87B7BD04ECB8FD2","019cf7c1-52a1-767a-b208-09bbb98fbc41","019cf7bd-52b9-7f96-9138-a5960b400b31","","null","
                <div class=""stimulus-container"">
                    <img src=""images/schematic_sequence/interview_scheme/interview_scheme_5.png"" class=""exp-image"">
                    <div class=""question-area""></div> 
                </div>","null","","","","","","","","",""
"","","","","","html-button-response","173","655381","0.0-173.0","CE7478C1D1ED4D7FB87B7BD04ECB8FD2","019cf7c1-52a1-767a-b208-09bbb98fbc41","019cf7bd-52b9-7f96-9138-a5960b400b31","","672","
                <div class=""stimulus-container"">
                    <img src=""images/schematic_sequence/interview_scheme/interview_scheme_5.png"" class=""exp-image"">
                    <div class=""question-area"">
                        <p style=""font-size: 20px; font-weight: bold; margin: 0;"">Is there a person in this image?</p>
                    </div>
                </div>","1","main_experiment_trial","5","interview_scheme","schematic_sequence","","","","",""
"","","","","","html-keyboard-response","174","660383","0.0-174.0","CE7478C1D1ED4D7FB87B7BD04ECB8FD2","019cf7c1-52a1-767a-b208-09bbb98fbc41","019cf7bd-52b9-7f96-9138-a5960b400b31","","null","
                <div class=""stimulus-container"">
                    <img src=""images/schematic_sequence/interview_scheme/interview_scheme_6.png"" class=""exp-image"">
                    <div class=""question-area""></div> 
                </div>","null","","","","","","","","",""
"","","","","","html-button-response","175","661492","0.0-175.0","CE7478C1D1ED4D7FB87B7BD04ECB8FD2","019cf7c1-52a1-767a-b208-09bbb98fbc41","019cf7bd-52b9-7f96-9138-a5960b400b31","","1107","
                <div class=""stimulus-container"">
                    <img src=""images/schematic_sequence/interview_scheme/interview_scheme_6.png"" class=""exp-image"">
                    <div class=""question-area"">
                        <p style=""font-size: 20px; font-weight: bold; margin: 0;"">Is there a person in this image?</p>
                    </div>
                </div>","0","main_experiment_trial","6","interview_scheme","schematic_sequence","","","","",""
"","","","","","html-keyboard-response","176","666494","0.0-176.0","CE7478C1D1ED4D7FB87B7BD04ECB8FD2","019cf7c1-52a1-767a-b208-09bbb98fbc41","019cf7bd-52b9-7f96-9138-a5960b400b31","","null","
                <div class=""stimulus-container"">
                    <img src=""images/schematic_sequence/interview_scheme/interview_scheme_7.png"" class=""exp-image"">
                    <div class=""question-area""></div> 
                </div>","null","","","","","","","","",""
"","","","","","html-button-response","177","666988","0.0-177.0","CE7478C1D1ED4D7FB87B7BD04ECB8FD2","019cf7c1-52a1-767a-b208-09bbb98fbc41","019cf7bd-52b9-7f96-9138-a5960b400b31","","493","
                <div class=""stimulus-container"">
                    <img src=""images/schematic_sequence/interview_scheme/interview_scheme_7.png"" class=""exp-image"">
                    <div class=""question-area"">
                        <p style=""font-size: 20px; font-weight: bold; margin: 0;"">Is there a person in this image?</p>
                    </div>
                </div>","0","main_experiment_trial","7","interview_scheme","schematic_sequence","","","","",""
"","","","","","html-keyboard-response","178","671990","0.0-178.0","CE7478C1D1ED4D7FB87B7BD04ECB8FD2","019cf7c1-52a1-767a-b208-09bbb98fbc41","019cf7bd-52b9-7f96-9138-a5960b400b31","","null","
                <div class=""stimulus-container"">
                    <img src=""images/schematic_sequence/interview_scheme/interview_scheme_8.png"" class=""exp-image"">
                    <div class=""question-area""></div> 
                </div>","null","","","","","","","","",""
"","","","","","html-button-response","179","672539","0.0-179.0","CE7478C1D1ED4D7FB87B7BD04ECB8FD2","019cf7c1-52a1-767a-b208-09bbb98fbc41","019cf7bd-52b9-7f96-9138-a5960b400b31","","547","
                <div class=""stimulus-container"">
                    <img src=""images/schematic_sequence/interview_scheme/interview_scheme_8.png"" class=""exp-image"">
                    <div class=""question-area"">
                        <p style=""font-size: 20px; font-weight: bold; margin: 0;"">Is there a person in this image?</p>
                    </div>
                </div>","0","main_experiment_trial","8","interview_scheme","schematic_sequence","","","","",""
"","","","","","html-keyboard-response","180","677542","0.0-180.0","CE7478C1D1ED4D7FB87B7BD04ECB8FD2","019cf7c1-52a1-767a-b208-09bbb98fbc41","019cf7bd-52b9-7f96-9138-a5960b400b31","","null","
                <div class=""stimulus-container"">
                    <img src=""images/schematic_sequence/interview_scheme/interview_scheme_9.png"" class=""exp-image"">
                    <div class=""question-area""></div> 
                </div>","null","","","","","","","","",""
"","","","","","html-button-response","181","678175","0.0-181.0","CE7478C1D1ED4D7FB87B7BD04ECB8FD2","019cf7c1-52a1-767a-b208-09bbb98fbc41","019cf7bd-52b9-7f96-9138-a5960b400b31","","631","
                <div class=""stimulus-container"">
