"success","timeout","failed_images","failed_audio","failed_video","trial_type","trial_index","time_elapsed","internal_node_id","subject_id","study_id","session_id","view_history","rt","stimulus","response","task","image_index","folder","sequence_type","valuable_image_index","reward_type","chosen_image_index","correct_choice"
"true","false","[]","[]","[]","preload","0","15698","0.0-0.0","1307AA19383640F8B89EAC9734D7B3EA","019cee76-658b-766c-aa96-8cb001549570","019cee5f-9f1f-7e58-80c1-9ba679249cc3","","","","","","","","","","","",""
"","","","","","instructions","1","18392","0.0-1.0","1307AA19383640F8B89EAC9734D7B3EA","019cee76-658b-766c-aa96-8cb001549570","019cee5f-9f1f-7e58-80c1-9ba679249cc3","[{""page_index"":0,""viewing_time"":2692}]","2693","","","","","","","","","",""
"","","","","","instructions","2","24330","0.0-2.0","1307AA19383640F8B89EAC9734D7B3EA","019cee76-658b-766c-aa96-8cb001549570","019cee5f-9f1f-7e58-80c1-9ba679249cc3","[{""page_index"":0,""viewing_time"":5933}]","5938","","","","","","","","","",""
"true","","","","","fullscreen","3","27227","0.0-3.0","1307AA19383640F8B89EAC9734D7B3EA","019cee76-658b-766c-aa96-8cb001549570","019cee5f-9f1f-7e58-80c1-9ba679249cc3","","1891","","","","","","","","","",""
"","","","","","instructions","4","28856","0.0-4.0","1307AA19383640F8B89EAC9734D7B3EA","019cee76-658b-766c-aa96-8cb001549570","019cee5f-9f1f-7e58-80c1-9ba679249cc3","[{""page_index"":0,""viewing_time"":1626}]","1627","","","","","","","","","",""
"","","","","","instructions","5","47122","0.0-5.0","1307AA19383640F8B89EAC9734D7B3EA","019cee76-658b-766c-aa96-8cb001549570","019cee5f-9f1f-7e58-80c1-9ba679249cc3","[{""page_index"":0,""viewing_time"":18264}]","18264","","","","","","","","","",""
"","","","","","html-keyboard-response","6","51142","0.0-6.0","1307AA19383640F8B89EAC9734D7B3EA","019cee76-658b-766c-aa96-8cb001549570","019cee5f-9f1f-7e58-80c1-9ba679249cc3","","null","
                <div class=""stimulus-container"">
                    <img src=""images/instructions/movie_1.png"" class=""exp-image"">
                    <div class=""question-area""></div> 
                </div>","null","","","","","","","",""
"","","","","","html-button-response","7","54115","0.0-7.0","1307AA19383640F8B89EAC9734D7B3EA","019cee76-658b-766c-aa96-8cb001549570","019cee5f-9f1f-7e58-80c1-9ba679249cc3","","2959","
                <div class=""stimulus-container"">
                    <img src=""images/instructions/movie_1.png"" class=""exp-image"">
                    <div class=""question-area"">
                        <p style=""font-size: 20px; font-weight: bold; margin: 0;"">Was there a person in this image?</p>
                    </div>
                </div>","0","example_question","1","","","","","",""
"","","","","","html-keyboard-response","8","58119","0.0-8.0","1307AA19383640F8B89EAC9734D7B3EA","019cee76-658b-766c-aa96-8cb001549570","019cee5f-9f1f-7e58-80c1-9ba679249cc3","","null","
                <div class=""stimulus-container"">
                    <img src=""images/instructions/movie_2.png"" class=""exp-image"">
                    <div class=""question-area""></div> 
                </div>","null","","","","","","","",""
"","","","","","html-button-response","9","58958","0.0-9.0","1307AA19383640F8B89EAC9734D7B3EA","019cee76-658b-766c-aa96-8cb001549570","019cee5f-9f1f-7e58-80c1-9ba679249cc3","","835","
                <div class=""stimulus-container"">
                    <img src=""images/instructions/movie_2.png"" class=""exp-image"">
                    <div class=""question-area"">
                        <p style=""font-size: 20px; font-weight: bold; margin: 0;"">Was there a person in this image?</p>
                    </div>
                </div>","0","example_question","2","","","","","",""
"","","","","","html-keyboard-response","10","62960","0.0-10.0","1307AA19383640F8B89EAC9734D7B3EA","019cee76-658b-766c-aa96-8cb001549570","019cee5f-9f1f-7e58-80c1-9ba679249cc3","","null","
                <div class=""stimulus-container"">
                    <img src=""images/instructions/movie_3.png"" class=""exp-image"">
                    <div class=""question-area""></div> 
                </div>","null","","","","","","","",""
"","","","","","html-button-response","11","64485","0.0-11.0","1307AA19383640F8B89EAC9734D7B3EA","019cee76-658b-766c-aa96-8cb001549570","019cee5f-9f1f-7e58-80c1-9ba679249cc3","","1522","
                <div class=""stimulus-container"">
                    <img src=""images/instructions/movie_3.png"" class=""exp-image"">
                    <div class=""question-area"">
                        <p style=""font-size: 20px; font-weight: bold; margin: 0;"">Was there a person in this image?</p>
                    </div>
                </div>","0","example_question","3","","","","","",""
"","","","","","html-keyboard-response","12","68492","0.0-12.0","1307AA19383640F8B89EAC9734D7B3EA","019cee76-658b-766c-aa96-8cb001549570","019cee5f-9f1f-7e58-80c1-9ba679249cc3","","null","
                <div class=""stimulus-container"">
                    <img src=""images/instructions/movie_4.png"" class=""exp-image"">
                    <div class=""question-area""></div> 
                </div>","null","","","","","","","",""
"","","","","","html-button-response","13","68943","0.0-13.0","1307AA19383640F8B89EAC9734D7B3EA","019cee76-658b-766c-aa96-8cb001549570","019cee5f-9f1f-7e58-80c1-9ba679249cc3","","440","
                <div class=""stimulus-container"">
                    <img src=""images/instructions/movie_4.png"" class=""exp-image"">
                    <div class=""question-area"">
                        <p style=""font-size: 20px; font-weight: bold; margin: 0;"">Was there a person in this image?</p>
                    </div>
                </div>","0","example_question","4","","","","","",""
"","","","","","instructions","14","70722","0.0-14.0","1307AA19383640F8B89EAC9734D7B3EA","019cee76-658b-766c-aa96-8cb001549570","019cee5f-9f1f-7e58-80c1-9ba679249cc3","[{""page_index"":0,""viewing_time"":1775}]","1776","","","","","","","","","",""
"","","","","","instructions","15","74056","0.0-15.0","1307AA19383640F8B89EAC9734D7B3EA","019cee76-658b-766c-aa96-8cb001549570","019cee5f-9f1f-7e58-80c1-9ba679249cc3","[{""page_index"":0,""viewing_time"":3333}]","3334","","","","","","","","","",""
"","","","","","html-keyboard-response","16","75058","0.0-16.0","1307AA19383640F8B89EAC9734D7B3EA","019cee76-658b-766c-aa96-8cb001549570","019cee5f-9f1f-7e58-80c1-9ba679249cc3","","null","<div style=""background-color: white; width: 100vw; height: 100vh;""></div>","null","","","","","","","",""
"","","","","","html-keyboard-response","17","80061","0.0-17.0","1307AA19383640F8B89EAC9734D7B3EA","019cee76-658b-766c-aa96-8cb001549570","019cee5f-9f1f-7e58-80c1-9ba679249cc3","","null","
                <div class=""stimulus-container"">
                    <img src=""images/schematic_sequence/hotel_scheme/hotel_scheme_1.png"" class=""exp-image"">
                    <div class=""question-area""></div> 
                </div>","null","","","","","","","",""
"","","","","","html-button-response","18","82373","0.0-18.0","1307AA19383640F8B89EAC9734D7B3EA","019cee76-658b-766c-aa96-8cb001549570","019cee5f-9f1f-7e58-80c1-9ba679249cc3","","2310","
                <div class=""stimulus-container"">
                    <img src=""images/schematic_sequence/hotel_scheme/hotel_scheme_1.png"" class=""exp-image"">
                    <div class=""question-area"">
                        <p style=""font-size: 20px; font-weight: bold; margin: 0;"">Is there a person in this image?</p>
                    </div>
                </div>","1","main_experiment_trial","1","hotel_scheme","schematic_sequence","","","",""
"","","","","","html-keyboard-response","19","87374","0.0-19.0","1307AA19383640F8B89EAC9734D7B3EA","019cee76-658b-766c-aa96-8cb001549570","019cee5f-9f1f-7e58-80c1-9ba679249cc3","","null","
                <div class=""stimulus-container"">
                    <img src=""images/schematic_sequence/hotel_scheme/hotel_scheme_2.png"" class=""exp-image"">
                    <div class=""question-area""></div> 
                </div>","null","","","","","","","",""
"","","","","","html-button-response","20","88027","0.0-20.0","1307AA19383640F8B89EAC9734D7B3EA","019cee76-658b-766c-aa96-8cb001549570","019cee5f-9f1f-7e58-80c1-9ba679249cc3","","649","
                <div class=""stimulus-container"">
                    <img src=""images/schematic_sequence/hotel_scheme/hotel_scheme_2.png"" class=""exp-image"">
                    <div class=""question-area"">
                        <p style=""font-size: 20px; font-weight: bold; margin: 0;"">Is there a person in this image?</p>
                    </div>
                </div>","0","main_experiment_trial","2","hotel_scheme","schematic_sequence","","","",""
"","","","","","html-keyboard-response","21","93033","0.0-21.0","1307AA19383640F8B89EAC9734D7B3EA","019cee76-658b-766c-aa96-8cb001549570","019cee5f-9f1f-7e58-80c1-9ba679249cc3","","null","
                <div class=""stimulus-container"">
                    <img src=""images/schematic_sequence/hotel_scheme/hotel_scheme_3.png"" class=""exp-image"">
                    <div class=""question-area""></div> 
                </div>","null","","","","","","","",""
"","","","","","html-button-response","22","93587","0.0-22.0","1307AA19383640F8B89EAC9734D7B3EA","019cee76-658b-766c-aa96-8cb001549570","019cee5f-9f1f-7e58-80c1-9ba679249cc3","","550","
                <div class=""stimulus-container"">
                    <img src=""images/schematic_sequence/hotel_scheme/hotel_scheme_3.png"" class=""exp-image"">
                    <div class=""question-area"">
                        <p style=""font-size: 20px; font-weight: bold; margin: 0;"">Is there a person in this image?</p>
                    </div>
                </div>","0","main_experiment_trial","3","hotel_scheme","schematic_sequence","","","",""
"","","","","","html-keyboard-response","23","98589","0.0-23.0","1307AA19383640F8B89EAC9734D7B3EA","019cee76-658b-766c-aa96-8cb001549570","019cee5f-9f1f-7e58-80c1-9ba679249cc3","","null","
                <div class=""stimulus-container"">
                    <img src=""images/schematic_sequence/hotel_scheme/hotel_scheme_4.png"" class=""exp-image"">
                    <div class=""question-area""></div> 
                </div>","null","","","","","","","",""
"","","","","","html-button-response","24","99382","0.0-24.0","1307AA19383640F8B89EAC9734D7B3EA","019cee76-658b-766c-aa96-8cb001549570","019cee5f-9f1f-7e58-80c1-9ba679249cc3","","789","
                <div class=""stimulus-container"">
                    <img src=""images/schematic_sequence/hotel_scheme/hotel_scheme_4.png"" class=""exp-image"">
                    <div class=""question-area"">
                        <p style=""font-size: 20px; font-weight: bold; margin: 0;"">Is there a person in this image?</p>
                    </div>
                </div>","1","main_experiment_trial","4","hotel_scheme","schematic_sequence","","","",""
"","","","","","html-keyboard-response","25","104383","0.0-25.0","1307AA19383640F8B89EAC9734D7B3EA","019cee76-658b-766c-aa96-8cb001549570","019cee5f-9f1f-7e58-80c1-9ba679249cc3","","null","
                <div class=""stimulus-container"">
                    <img src=""images/schematic_sequence/hotel_scheme/hotel_scheme_5.png"" class=""exp-image"">
                    <div class=""question-area""></div> 
                </div>","null","","","","","","","",""
"","","","","","html-button-response","26","105297","0.0-26.0","1307AA19383640F8B89EAC9734D7B3EA","019cee76-658b-766c-aa96-8cb001549570","019cee5f-9f1f-7e58-80c1-9ba679249cc3","","912","
                <div class=""stimulus-container"">
                    <img src=""images/schematic_sequence/hotel_scheme/hotel_scheme_5.png"" class=""exp-image"">
                    <div class=""question-area"">
                        <p style=""font-size: 20px; font-weight: bold; margin: 0;"">Is there a person in this image?</p>
                    </div>
                </div>","0","main_experiment_trial","5","hotel_scheme","schematic_sequence","","","",""
"","","","","","html-keyboard-response","27","110299","0.0-27.0","1307AA19383640F8B89EAC9734D7B3EA","019cee76-658b-766c-aa96-8cb001549570","019cee5f-9f1f-7e58-80c1-9ba679249cc3","","null","
                <div class=""stimulus-container"">
                    <img src=""images/schematic_sequence/hotel_scheme/hotel_scheme_6.png"" class=""exp-image"">
                    <div class=""question-area""></div> 
                </div>","null","","","","","","","",""
"","","","","","html-button-response","28","111063","0.0-28.0","1307AA19383640F8B89EAC9734D7B3EA","019cee76-658b-766c-aa96-8cb001549570","019cee5f-9f1f-7e58-80c1-9ba679249cc3","","759","
                <div class=""stimulus-container"">
                    <img src=""images/schematic_sequence/hotel_scheme/hotel_scheme_6.png"" class=""exp-image"">
                    <div class=""question-area"">
                        <p style=""font-size: 20px; font-weight: bold; margin: 0;"">Is there a person in this image?</p>
                    </div>
                </div>","0","main_experiment_trial","6","hotel_scheme","schematic_sequence","","","",""
"","","","","","html-keyboard-response","29","116064","0.0-29.0","1307AA19383640F8B89EAC9734D7B3EA","019cee76-658b-766c-aa96-8cb001549570","019cee5f-9f1f-7e58-80c1-9ba679249cc3","","null","
                <div class=""stimulus-container"">
                    <img src=""images/schematic_sequence/hotel_scheme/hotel_scheme_7.png"" class=""exp-image"">
                    <div class=""question-area""></div> 
                </div>","null","","","","","","","",""
"","","","","","html-button-response","30","116482","0.0-30.0","1307AA19383640F8B89EAC9734D7B3EA","019cee76-658b-766c-aa96-8cb001549570","019cee5f-9f1f-7e58-80c1-9ba679249cc3","","417","
                <div class=""stimulus-container"">
                    <img src=""images/schematic_sequence/hotel_scheme/hotel_scheme_7.png"" class=""exp-image"">
                    <div class=""question-area"">
                        <p style=""font-size: 20px; font-weight: bold; margin: 0;"">Is there a person in this image?</p>
                    </div>
                </div>","0","main_experiment_trial","7","hotel_scheme","schematic_sequence","","","",""
"","","","","","html-keyboard-response","31","121484","0.0-31.0","1307AA19383640F8B89EAC9734D7B3EA","019cee76-658b-766c-aa96-8cb001549570","019cee5f-9f1f-7e58-80c1-9ba679249cc3","","null","
                <div class=""stimulus-container"">
                    <img src=""images/schematic_sequence/hotel_scheme/hotel_scheme_8.png"" class=""exp-image"">
                    <div class=""question-area""></div> 
                </div>","null","","","","","","","",""
"","","","","","html-button-response","32","122395","0.0-32.0","1307AA19383640F8B89EAC9734D7B3EA","019cee76-658b-766c-aa96-8cb001549570","019cee5f-9f1f-7e58-80c1-9ba679249cc3","","909","
                <div class=""stimulus-container"">
                    <img src=""images/schematic_sequence/hotel_scheme/hotel_scheme_8.png"" class=""exp-image"">
                    <div class=""question-area"">
                        <p style=""font-size: 20px; font-weight: bold; margin: 0;"">Is there a person in this image?</p>
                    </div>
                </div>","0","main_experiment_trial","8","hotel_scheme","schematic_sequence","","","",""
"","","","","","html-keyboard-response","33","127397","0.0-33.0","1307AA19383640F8B89EAC9734D7B3EA","019cee76-658b-766c-aa96-8cb001549570","019cee5f-9f1f-7e58-80c1-9ba679249cc3","","null","
                <div class=""stimulus-container"">
                    <img src=""images/schematic_sequence/hotel_scheme/hotel_scheme_9.png"" class=""exp-image"">
                    <div class=""question-area""></div> 
                </div>","null","","","","","","","",""
"","","","","","html-button-response","34","128803","0.0-34.0","1307AA19383640F8B89EAC9734D7B3EA","019cee76-658b-766c-aa96-8cb001549570","019cee5f-9f1f-7e58-80c1-9ba679249cc3","","1405","
                <div class=""stimulus-container"">
                    <img src=""images/schematic_sequence/hotel_scheme/hotel_scheme_9.png"" class=""exp-image"">
                    <div class=""question-area"">
                        <p style=""font-size: 20px; font-weight: bold; margin: 0;"">Is there a person in this image?</p>
                    </div>
                </div>","0","main_experiment_trial","9","hotel_scheme","schematic_sequence","","","",""
"","","","","","html-keyboard-response","35","133806","0.0-35.0","1307AA19383640F8B89EAC9734D7B3EA","019cee76-658b-766c-aa96-8cb001549570","019cee5f-9f1f-7e58-80c1-9ba679249cc3","","null","
                <div class=""stimulus-container"">
                    <img src=""images/schematic_sequence/hotel_scheme/hotel_scheme_ten.png"" class=""exp-image"">
                    <div class=""question-area""></div> 
                </div>","null","","","","","","","",""
"","","","","","html-button-response","36","134704","0.0-36.0","1307AA19383640F8B89EAC9734D7B3EA","019cee76-658b-766c-aa96-8cb001549570","019cee5f-9f1f-7e58-80c1-9ba679249cc3","","897","
                <div class=""stimulus-container"">
                    <img src=""images/schematic_sequence/hotel_scheme/hotel_scheme_ten.png"" class=""exp-image"">
                    <div class=""question-area"">
                        <p style=""font-size: 20px; font-weight: bold; margin: 0;"">Is there a person in this image?</p>
                    </div>
                </div>","0","main_experiment_trial","ten","hotel_scheme","schematic_sequence","","","",""
"","","","","","html-keyboard-response","37","135705","0.0-37.0","1307AA19383640F8B89EAC9734D7B3EA","019cee76-658b-766c-aa96-8cb001549570","019cee5f-9f1f-7e58-80c1-9ba679249cc3","","null","<div style=""background-color: white; width: 100vw; height: 100vh;""></div>","null","","","","","","","",""
"","","","","","html-keyboard-response","38","140708","0.0-38.0","1307AA19383640F8B89EAC9734D7B3EA","019cee76-658b-766c-aa96-8cb001549570","019cee5f-9f1f-7e58-80c1-9ba679249cc3","","null","
                <div class=""stimulus-container"">
                    <img src=""images/schematic_sequence/interview_scheme/interview_scheme_1.png"" class=""exp-image"">
                    <div class=""question-area""></div> 
                </div>","null","","","","","","","",""
"","","","","","html-button-response","39","141394","0.0-39.0","1307AA19383640F8B89EAC9734D7B3EA","019cee76-658b-766c-aa96-8cb001549570","019cee5f-9f1f-7e58-80c1-9ba679249cc3","","679","
                <div class=""stimulus-container"">
                    <img src=""images/schematic_sequence/interview_scheme/interview_scheme_1.png"" class=""exp-image"">
                    <div class=""question-area"">
                        <p style=""font-size: 20px; font-weight: bold; margin: 0;"">Is there a person in this image?</p>
                    </div>
                </div>","1","main_experiment_trial","1","interview_scheme","schematic_sequence","","","",""
"","","","","","html-keyboard-response","40","146398","0.0-40.0","1307AA19383640F8B89EAC9734D7B3EA","019cee76-658b-766c-aa96-8cb001549570","019cee5f-9f1f-7e58-80c1-9ba679249cc3","","null","
                <div class=""stimulus-container"">
                    <img src=""images/schematic_sequence/interview_scheme/interview_scheme_2.png"" class=""exp-image"">
                    <div class=""question-area""></div> 
                </div>","null","","","","","","","",""
"","","","","","html-button-response","41","146814","0.0-41.0","1307AA19383640F8B89EAC9734D7B3EA","019cee76-658b-766c-aa96-8cb001549570","019cee5f-9f1f-7e58-80c1-9ba679249cc3","","413","
                <div class=""stimulus-container"">
                    <img src=""images/schematic_sequence/interview_scheme/interview_scheme_2.png"" class=""exp-image"">
                    <div class=""question-area"">
                        <p style=""font-size: 20px; font-weight: bold; margin: 0;"">Is there a person in this image?</p>
                    </div>
                </div>","1","main_experiment_trial","2","interview_scheme","schematic_sequence","","","",""
"","","","","","html-keyboard-response","42","151817","0.0-42.0","1307AA19383640F8B89EAC9734D7B3EA","019cee76-658b-766c-aa96-8cb001549570","019cee5f-9f1f-7e58-80c1-9ba679249cc3","","null","
                <div class=""stimulus-container"">
                    <img src=""images/schematic_sequence/interview_scheme/interview_scheme_3.png"" class=""exp-image"">
                    <div class=""question-area""></div> 
                </div>","null","","","","","","","",""
"","","","","","html-button-response","43","152487","0.0-43.0","1307AA19383640F8B89EAC9734D7B3EA","019cee76-658b-766c-aa96-8cb001549570","019cee5f-9f1f-7e58-80c1-9ba679249cc3","","668","
                <div class=""stimulus-container"">
                    <img src=""images/schematic_sequence/interview_scheme/interview_scheme_3.png"" class=""exp-image"">
                    <div class=""question-area"">
                        <p style=""font-size: 20px; font-weight: bold; margin: 0;"">Is there a person in this image?</p>
                    </div>
                </div>","1","main_experiment_trial","3","interview_scheme","schematic_sequence","","","",""
"","","","","","html-keyboard-response","44","157489","0.0-44.0","1307AA19383640F8B89EAC9734D7B3EA","019cee76-658b-766c-aa96-8cb001549570","019cee5f-9f1f-7e58-80c1-9ba679249cc3","","null","
                <div class=""stimulus-container"">
                    <img src=""images/schematic_sequence/interview_scheme/interview_scheme_4.png"" class=""exp-image"">
                    <div class=""question-area""></div> 
                </div>","null","","","","","","","",""
"","","","","","html-button-response","45","159004","0.0-45.0","1307AA19383640F8B89EAC9734D7B3EA","019cee76-658b-766c-aa96-8cb001549570","019cee5f-9f1f-7e58-80c1-9ba679249cc3","","1514","
                <div class=""stimulus-container"">
                    <img src=""images/schematic_sequence/interview_scheme/interview_scheme_4.png"" class=""exp-image"">
                    <div class=""question-area"">
                        <p style=""font-size: 20px; font-weight: bold; margin: 0;"">Is there a person in this image?</p>
                    </div>
                </div>","1","main_experiment_trial","4","interview_scheme","schematic_sequence","","","",""
"","","","","","html-keyboard-response","46","164006","0.0-46.0","1307AA19383640F8B89EAC9734D7B3EA","019cee76-658b-766c-aa96-8cb001549570","019cee5f-9f1f-7e58-80c1-9ba679249cc3","","null","
                <div class=""stimulus-container"">
                    <img src=""images/schematic_sequence/interview_scheme/interview_scheme_5.png"" class=""exp-image"">
                    <div class=""question-area""></div> 
                </div>","null","","","","","","","",""
"","","","","","html-button-response","47","164580","0.0-47.0","1307AA19383640F8B89EAC9734D7B3EA","019cee76-658b-766c-aa96-8cb001549570","019cee5f-9f1f-7e58-80c1-9ba679249cc3","","572","
                <div class=""stimulus-container"">
                    <img src=""images/schematic_sequence/interview_scheme/interview_scheme_5.png"" class=""exp-image"">
                    <div class=""question-area"">
                        <p style=""font-size: 20px; font-weight: bold; margin: 0;"">Is there a person in this image?</p>
                    </div>
                </div>","0","main_experiment_trial","5","interview_scheme","schematic_sequence","","","",""
"","","","","","html-keyboard-response","48","169583","0.0-48.0","1307AA19383640F8B89EAC9734D7B3EA","019cee76-658b-766c-aa96-8cb001549570","019cee5f-9f1f-7e58-80c1-9ba679249cc3","","null","
                <div class=""stimulus-container"">
                    <img src=""images/schematic_sequence/interview_scheme/interview_scheme_6.png"" class=""exp-image"">
                    <div class=""question-area""></div> 
                </div>","null","","","","","","","",""
"","","","","","html-button-response","49","170041","0.0-49.0","1307AA19383640F8B89EAC9734D7B3EA","019cee76-658b-766c-aa96-8cb001549570","019cee5f-9f1f-7e58-80c1-9ba679249cc3","","457","
                <div class=""stimulus-container"">
                    <img src=""images/schematic_sequence/interview_scheme/interview_scheme_6.png"" class=""exp-image"">
                    <div class=""question-area"">
                        <p style=""font-size: 20px; font-weight: bold; margin: 0;"">Is there a person in this image?</p>
                    </div>
                </div>","0","main_experiment_trial","6","interview_scheme","schematic_sequence","","","",""
"","","","","","html-keyboard-response","50","175044","0.0-50.0","1307AA19383640F8B89EAC9734D7B3EA","019cee76-658b-766c-aa96-8cb001549570","019cee5f-9f1f-7e58-80c1-9ba679249cc3","","null","
                <div class=""stimulus-container"">
                    <img src=""images/schematic_sequence/interview_scheme/interview_scheme_7.png"" class=""exp-image"">
                    <div class=""question-area""></div> 
                </div>","null","","","","","","","",""
"","","","","","html-button-response","51","175475","0.0-51.0","1307AA19383640F8B89EAC9734D7B3EA","019cee76-658b-766c-aa96-8cb001549570","019cee5f-9f1f-7e58-80c1-9ba679249cc3","","430","
                <div class=""stimulus-container"">
                    <img src=""images/schematic_sequence/interview_scheme/interview_scheme_7.png"" class=""exp-image"">
                    <div class=""question-area"">
                        <p style=""font-size: 20px; font-weight: bold; margin: 0;"">Is there a person in this image?</p>
                    </div>
                </div>","0","main_experiment_trial","7","interview_scheme","schematic_sequence","","","",""
"","","","","","html-keyboard-response","52","180477","0.0-52.0","1307AA19383640F8B89EAC9734D7B3EA","019cee76-658b-766c-aa96-8cb001549570","019cee5f-9f1f-7e58-80c1-9ba679249cc3","","null","
                <div class=""stimulus-container"">
                    <img src=""images/schematic_sequence/interview_scheme/interview_scheme_8.png"" class=""exp-image"">
                    <div class=""question-area""></div> 
                </div>","null","","","","","","","",""
"","","","","","html-button-response","53","181082","0.0-53.0","1307AA19383640F8B89EAC9734D7B3EA","019cee76-658b-766c-aa96-8cb001549570","019cee5f-9f1f-7e58-80c1-9ba679249cc3","","603","
                <div class=""stimulus-container"">
                    <img src=""images/schematic_sequence/interview_scheme/interview_scheme_8.png"" class=""exp-image"">
                    <div class=""question-area"">
                        <p style=""font-size: 20px; font-weight: bold; margin: 0;"">Is there a person in this image?</p>
                    </div>
                </div>","0","main_experiment_trial","8","interview_scheme","schematic_sequence","","","",""
"","","","","","html-keyboard-response","54","186086","0.0-54.0","1307AA19383640F8B89EAC9734D7B3EA","019cee76-658b-766c-aa96-8cb001549570","019cee5f-9f1f-7e58-80c1-9ba679249cc3","","null","
                <div class=""stimulus-container"">
                    <img src=""images/schematic_sequence/interview_scheme/interview_scheme_9.png"" class=""exp-image"">
                    <div class=""question-area""></div> 
                </div>","null","","","","","","","",""
"","","","","","html-button-response","55","186518","0.0-55.0","1307AA19383640F8B89EAC9734D7B3EA","019cee76-658b-766c-aa96-8cb001549570","019cee5f-9f1f-7e58-80c1-9ba679249cc3","","429","
                <div class=""stimulus-container"">
                    <img src=""images/schematic_sequence/interview_scheme/interview_scheme_9.png"" class=""exp-image"">
                    <div class=""question-area"">
                        <p style=""font-size: 20px; font-weight: bold; margin: 0;"">Is there a person in this image?</p>
                    </div>
                </div>","0","main_experiment_trial","9","interview_scheme","schematic_sequence","","","",""
"","","","","","html-keyboard-response","56","191521","0.0-56.0","1307AA19383640F8B89EAC9734D7B3EA","019cee76-658b-766c-aa96-8cb001549570","019cee5f-9f1f-7e58-80c1-9ba679249cc3","","null","
                <div class=""stimulus-container"">
                    <img src=""images/schematic_sequence/interview_scheme/interview_scheme_ten.png"" class=""exp-image"">
                    <div class=""question-area""></div> 
                </div>","null","","","","","","","",""
"","","","","","html-button-response","57","192002","0.0-57.0","1307AA19383640F8B89EAC9734D7B3EA","019cee76-658b-766c-aa96-8cb001549570","019cee5f-9f1f-7e58-80c1-9ba679249cc3","","480","
                <div class=""stimulus-container"">
                    <img src=""images/schematic_sequence/interview_scheme/interview_scheme_ten.png"" class=""exp-image"">
                    <div class=""question-area"">
                        <p style=""font-size: 20px; font-weight: bold; margin: 0;"">Is there a person in this image?</p>
                    </div>
                </div>","0","main_experiment_trial","ten","interview_scheme","schematic_sequence","","","",""
"","","","","","html-keyboard-response","58","193004","0.0-58.0","1307AA19383640F8B89EAC9734D7B3EA","019cee76-658b-766c-aa96-8cb001549570","019cee5f-9f1f-7e58-80c1-9ba679249cc3","","null","<div style=""background-color: white; width: 100vw; height: 100vh;""></div>","null","","","","","","","",""
"","","","","","html-keyboard-response","59","198007","0.0-59.0","1307AA19383640F8B89EAC9734D7B3EA","019cee76-658b-766c-aa96-8cb001549570","019cee5f-9f1f-7e58-80c1-9ba679249cc3","","null","
                <div class=""stimulus-container"">
                    <img src=""images/causal_sequence/the_performance_causal/the_performance_causal_1.png"" class=""exp-image"">
                    <div class=""question-area""></div> 
                </div>","null","","","","","","","",""
"","","","","","html-button-response","60","198451","0.0-60.0","1307AA19383640F8B89EAC9734D7B3EA","019cee76-658b-766c-aa96-8cb001549570","019cee5f-9f1f-7e58-80c1-9ba679249cc3","","443","
                <div class=""stimulus-container"">
                    <img src=""images/causal_sequence/the_performance_causal/the_performance_causal_1.png"" class=""exp-image"">
                    <div class=""question-area"">
                        <p style=""font-size: 20px; font-weight: bold; margin: 0;"">Is there a person in this image?</p>
                    </div>
                </div>","0","main_experiment_trial","1","the_performance_causal","causal_sequence","","","",""
"","","","","","html-keyboard-response","61","203454","0.0-61.0","1307AA19383640F8B89EAC9734D7B3EA","019cee76-658b-766c-aa96-8cb001549570","019cee5f-9f1f-7e58-80c1-9ba679249cc3","","null","
                <div class=""stimulus-container"">
                    <img src=""images/causal_sequence/the_performance_causal/the_performance_causal_2.png"" class=""exp-image"">
                    <div class=""question-area""></div> 
                </div>","null","","","","","","","",""
"","","","","","html-button-response","62","204006","0.0-62.0","1307AA19383640F8B89EAC9734D7B3EA","019cee76-658b-766c-aa96-8cb001549570","019cee5f-9f1f-7e58-80c1-9ba679249cc3","","551","
                <div class=""stimulus-container"">
                    <img src=""images/causal_sequence/the_performance_causal/the_performance_causal_2.png"" class=""exp-image"">
                    <div class=""question-area"">
                        <p style=""font-size: 20px; font-weight: bold; margin: 0;"">Is there a person in this image?</p>
                    </div>
                </div>","0","main_experiment_trial","2","the_performance_causal","causal_sequence","","","",""
"","","","","","html-keyboard-response","63","209007","0.0-63.0","1307AA19383640F8B89EAC9734D7B3EA","019cee76-658b-766c-aa96-8cb001549570","019cee5f-9f1f-7e58-80c1-9ba679249cc3","","null","
                <div class=""stimulus-container"">
                    <img src=""images/causal_sequence/the_performance_causal/the_performance_causal_3.png"" class=""exp-image"">
                    <div class=""question-area""></div> 
                </div>","null","","","","","","","",""
"","","","","","html-button-response","64","209958","0.0-64.0","1307AA19383640F8B89EAC9734D7B3EA","019cee76-658b-766c-aa96-8cb001549570","019cee5f-9f1f-7e58-80c1-9ba679249cc3","","949","
                <div class=""stimulus-container"">
                    <img src=""images/causal_sequence/the_performance_causal/the_performance_causal_3.png"" class=""exp-image"">
                    <div class=""question-area"">
                        <p style=""font-size: 20px; font-weight: bold; margin: 0;"">Is there a person in this image?</p>
                    </div>
                </div>","0","main_experiment_trial","3","the_performance_causal","causal_sequence","","","",""
"","","","","","html-keyboard-response","65","214961","0.0-65.0","1307AA19383640F8B89EAC9734D7B3EA","019cee76-658b-766c-aa96-8cb001549570","019cee5f-9f1f-7e58-80c1-9ba679249cc3","","null","
                <div class=""stimulus-container"">
                    <img src=""images/causal_sequence/the_performance_causal/the_performance_causal_4.png"" class=""exp-image"">
                    <div class=""question-area""></div> 
                </div>","null","","","","","","","",""
"","","","","","html-button-response","66","215431","0.0-66.0","1307AA19383640F8B89EAC9734D7B3EA","019cee76-658b-766c-aa96-8cb001549570","019cee5f-9f1f-7e58-80c1-9ba679249cc3","","469","
                <div class=""stimulus-container"">
                    <img src=""images/causal_sequence/the_performance_causal/the_performance_causal_4.png"" class=""exp-image"">
                    <div class=""question-area"">
                        <p style=""font-size: 20px; font-weight: bold; margin: 0;"">Is there a person in this image?</p>
                    </div>
                </div>","0","main_experiment_trial","4","the_performance_causal","causal_sequence","","","",""
"","","","","","html-keyboard-response","67","220432","0.0-67.0","1307AA19383640F8B89EAC9734D7B3EA","019cee76-658b-766c-aa96-8cb001549570","019cee5f-9f1f-7e58-80c1-9ba679249cc3","","null","
                <div class=""stimulus-container"">
                    <img src=""images/causal_sequence/the_performance_causal/the_performance_causal_5.png"" class=""exp-image"">
                    <div class=""question-area""></div> 
                </div>","null","","","","","","","",""
"","","","","","html-button-response","68","221602","0.0-68.0","1307AA19383640F8B89EAC9734D7B3EA","019cee76-658b-766c-aa96-8cb001549570","019cee5f-9f1f-7e58-80c1-9ba679249cc3","","1167","
                <div class=""stimulus-container"">
                    <img src=""images/causal_sequence/the_performance_causal/the_performance_causal_5.png"" class=""exp-image"">
                    <div class=""question-area"">
                        <p style=""font-size: 20px; font-weight: bold; margin: 0;"">Is there a person in this image?</p>
                    </div>
                </div>","0","main_experiment_trial","5","the_performance_causal","causal_sequence","","","",""
"","","","","","html-keyboard-response","69","226604","0.0-69.0","1307AA19383640F8B89EAC9734D7B3EA","019cee76-658b-766c-aa96-8cb001549570","019cee5f-9f1f-7e58-80c1-9ba679249cc3","","null","
                <div class=""stimulus-container"">
                    <img src=""images/causal_sequence/the_performance_causal/the_performance_causal_6.png"" class=""exp-image"">
                    <div class=""question-area""></div> 
                </div>","null","","","","","","","",""
"","","","","","html-button-response","70","229344","0.0-70.0","1307AA19383640F8B89EAC9734D7B3EA","019cee76-658b-766c-aa96-8cb001549570","019cee5f-9f1f-7e58-80c1-9ba679249cc3","","2737","
                <div class=""stimulus-container"">
                    <img src=""images/causal_sequence/the_performance_causal/the_performance_causal_6.png"" class=""exp-image"">
                    <div class=""question-area"">
                        <p style=""font-size: 20px; font-weight: bold; margin: 0;"">Is there a person in this image?</p>
                    </div>
                </div>","0","main_experiment_trial","6","the_performance_causal","causal_sequence","","","",""
"","","","","","html-keyboard-response","71","234346","0.0-71.0","1307AA19383640F8B89EAC9734D7B3EA","019cee76-658b-766c-aa96-8cb001549570","019cee5f-9f1f-7e58-80c1-9ba679249cc3","","null","
                <div class=""stimulus-container"">
                    <img src=""images/causal_sequence/the_performance_causal/the_performance_causal_7.png"" class=""exp-image"">
                    <div class=""question-area""></div> 
                </div>","null","","","","","","","",""
"","","","","","html-button-response","72","235192","0.0-72.0","1307AA19383640F8B89EAC9734D7B3EA","019cee76-658b-766c-aa96-8cb001549570","019cee5f-9f1f-7e58-80c1-9ba679249cc3","","843","
                <div class=""stimulus-container"">
                    <img src=""images/causal_sequence/the_performance_causal/the_performance_causal_7.png"" class=""exp-image"">
                    <div class=""question-area"">
                        <p style=""font-size: 20px; font-weight: bold; margin: 0;"">Is there a person in this image?</p>
                    </div>
                </div>","0","main_experiment_trial","7","the_performance_causal","causal_sequence","","","",""
"","","","","","html-keyboard-response","73","240194","0.0-73.0","1307AA19383640F8B89EAC9734D7B3EA","019cee76-658b-766c-aa96-8cb001549570","019cee5f-9f1f-7e58-80c1-9ba679249cc3","","null","
                <div class=""stimulus-container"">
                    <img src=""images/causal_sequence/the_performance_causal/the_performance_causal_8.png"" class=""exp-image"">
                    <div class=""question-area""></div> 
                </div>","null","","","","","","","",""
"","","","","","html-button-response","74","242199","0.0-74.0","1307AA19383640F8B89EAC9734D7B3EA","019cee76-658b-766c-aa96-8cb001549570","019cee5f-9f1f-7e58-80c1-9ba679249cc3","","2002","
                <div class=""stimulus-container"">
                    <img src=""images/causal_sequence/the_performance_causal/the_performance_causal_8.png"" class=""exp-image"">
                    <div class=""question-area"">
                        <p style=""font-size: 20px; font-weight: bold; margin: 0;"">Is there a person in this image?</p>
                    </div>
                </div>","0","main_experiment_trial","8","the_performance_causal","causal_sequence","","","",""
"","","","","","html-keyboard-response","75","247201","0.0-75.0","1307AA19383640F8B89EAC9734D7B3EA","019cee76-658b-766c-aa96-8cb001549570","019cee5f-9f1f-7e58-80c1-9ba679249cc3","","null","
                <div class=""stimulus-container"">
                    <img src=""images/causal_sequence/the_performance_causal/the_performance_causal_9.png"" class=""exp-image"">
                    <div class=""question-area""></div> 
                </div>","null","","","","","","","",""
"","","","","","html-button-response","76","247727","0.0-76.0","1307AA19383640F8B89EAC9734D7B3EA","019cee76-658b-766c-aa96-8cb001549570","019cee5f-9f1f-7e58-80c1-9ba679249cc3","","524","
                <div class=""stimulus-container"">
                    <img src=""images/causal_sequence/the_performance_causal/the_performance_causal_9.png"" class=""exp-image"">
                    <div class=""question-area"">
                        <p style=""font-size: 20px; font-weight: bold; margin: 0;"">Is there a person in this image?</p>
                    </div>
                </div>","0","main_experiment_trial","9","the_performance_causal","causal_sequence","","","",""
"","","","","","html-keyboard-response","77","252728","0.0-77.0","1307AA19383640F8B89EAC9734D7B3EA","019cee76-658b-766c-aa96-8cb001549570","019cee5f-9f1f-7e58-80c1-9ba679249cc3","","null","
                <div class=""stimulus-container"">
                    <img src=""images/causal_sequence/the_performance_causal/the_performance_causal_ten.png"" class=""exp-image"">
                    <div class=""question-area""></div> 
                </div>","null","","","","","","","",""
"","","","","","html-button-response","78","254562","0.0-78.0","1307AA19383640F8B89EAC9734D7B3EA","019cee76-658b-766c-aa96-8cb001549570","019cee5f-9f1f-7e58-80c1-9ba679249cc3","","1831","
                <div class=""stimulus-container"">
                    <img src=""images/causal_sequence/the_performance_causal/the_performance_causal_ten.png"" class=""exp-image"">
                    <div class=""question-area"">
                        <p style=""font-size: 20px; font-weight: bold; margin: 0;"">Is there a person in this image?</p>
                    </div>
                </div>","0","main_experiment_trial","ten","the_performance_causal","causal_sequence","","","",""
"","","","","","html-keyboard-response","79","255564","0.0-79.0","1307AA19383640F8B89EAC9734D7B3EA","019cee76-658b-766c-aa96-8cb001549570","019cee5f-9f1f-7e58-80c1-9ba679249cc3","","null","<div style=""background-color: white; width: 100vw; height: 100vh;""></div>","null","","","","","","","",""
"","","","","","html-keyboard-response","80","260566","0.0-80.0","1307AA19383640F8B89EAC9734D7B3EA","019cee76-658b-766c-aa96-8cb001549570","019cee5f-9f1f-7e58-80c1-9ba679249cc3","","null","
                <div class=""stimulus-container"">
                    <img src=""images/schematic_sequence/restaurant_scheme/restaurant_scheme_1.png"" class=""exp-image"">
                    <div class=""question-area""></div> 
                </div>","null","","","","","","","",""
"","","","","","html-button-response","81","261076","0.0-81.0","1307AA19383640F8B89EAC9734D7B3EA","019cee76-658b-766c-aa96-8cb001549570","019cee5f-9f1f-7e58-80c1-9ba679249cc3","","509","
                <div class=""stimulus-container"">
                    <img src=""images/schematic_sequence/restaurant_scheme/restaurant_scheme_1.png"" class=""exp-image"">
                    <div class=""question-area"">
                        <p style=""font-size: 20px; font-weight: bold; margin: 0;"">Is there a person in this image?</p>
                    </div>
                </div>","0","main_experiment_trial","1","restaurant_scheme","schematic_sequence","","","",""
"","","","","","html-keyboard-response","82","266079","0.0-82.0","1307AA19383640F8B89EAC9734D7B3EA","019cee76-658b-766c-aa96-8cb001549570","019cee5f-9f1f-7e58-80c1-9ba679249cc3","","null","
                <div class=""stimulus-container"">
                    <img src=""images/schematic_sequence/restaurant_scheme/restaurant_scheme_2.png"" class=""exp-image"">
                    <div class=""question-area""></div> 
                </div>","null","","","","","","","",""
"","","","","","html-button-response","83","267364","0.0-83.0","1307AA19383640F8B89EAC9734D7B3EA","019cee76-658b-766c-aa96-8cb001549570","019cee5f-9f1f-7e58-80c1-9ba679249cc3","","1284","
                <div class=""stimulus-container"">
                    <img src=""images/schematic_sequence/restaurant_scheme/restaurant_scheme_2.png"" class=""exp-image"">
                    <div class=""question-area"">
                        <p style=""font-size: 20px; font-weight: bold; margin: 0;"">Is there a person in this image?</p>
                    </div>
                </div>","1","main_experiment_trial","2","restaurant_scheme","schematic_sequence","","","",""
"","","","","","html-keyboard-response","84","272368","0.0-84.0","1307AA19383640F8B89EAC9734D7B3EA","019cee76-658b-766c-aa96-8cb001549570","019cee5f-9f1f-7e58-80c1-9ba679249cc3","","null","
                <div class=""stimulus-container"">
                    <img src=""images/schematic_sequence/restaurant_scheme/restaurant_scheme_3.png"" class=""exp-image"">
                    <div class=""question-area""></div> 
                </div>","null","","","","","","","",""
"","","","","","html-button-response","85","274067","0.0-85.0","1307AA19383640F8B89EAC9734D7B3EA","019cee76-658b-766c-aa96-8cb001549570","019cee5f-9f1f-7e58-80c1-9ba679249cc3","","1695","
                <div class=""stimulus-container"">
                    <img src=""images/schematic_sequence/restaurant_scheme/restaurant_scheme_3.png"" class=""exp-image"">
                    <div class=""question-area"">
                        <p style=""font-size: 20px; font-weight: bold; margin: 0;"">Is there a person in this image?</p>
                    </div>
                </div>","1","main_experiment_trial","3","restaurant_scheme","schematic_sequence","","","",""
"","","","","","html-keyboard-response","86","279071","0.0-86.0","1307AA19383640F8B89EAC9734D7B3EA","019cee76-658b-766c-aa96-8cb001549570","019cee5f-9f1f-7e58-80c1-9ba679249cc3","","null","
                <div class=""stimulus-container"">
                    <img src=""images/schematic_sequence/restaurant_scheme/restaurant_scheme_4.png"" class=""exp-image"">
                    <div class=""question-area""></div> 
                </div>","null","","","","","","","",""
"","","","","","html-button-response","87","279635","0.0-87.0","1307AA19383640F8B89EAC9734D7B3EA","019cee76-658b-766c-aa96-8cb001549570","019cee5f-9f1f-7e58-80c1-9ba679249cc3","","561","
                <div class=""stimulus-container"">
                    <img src=""images/schematic_sequence/restaurant_scheme/restaurant_scheme_4.png"" class=""exp-image"">
                    <div class=""question-area"">
                        <p style=""font-size: 20px; font-weight: bold; margin: 0;"">Is there a person in this image?</p>
                    </div>
                </div>","0","main_experiment_trial","4","restaurant_scheme","schematic_sequence","","","",""
"","","","","","html-keyboard-response","88","284637","0.0-88.0","1307AA19383640F8B89EAC9734D7B3EA","019cee76-658b-766c-aa96-8cb001549570","019cee5f-9f1f-7e58-80c1-9ba679249cc3","","null","
                <div class=""stimulus-container"">
                    <img src=""images/schematic_sequence/restaurant_scheme/restaurant_scheme_5.png"" class=""exp-image"">
                    <div class=""question-area""></div> 
                </div>","null","","","","","","","",""
"","","","","","html-button-response","89","285106","0.0-89.0","1307AA19383640F8B89EAC9734D7B3EA","019cee76-658b-766c-aa96-8cb001549570","019cee5f-9f1f-7e58-80c1-9ba679249cc3","","467","
                <div class=""stimulus-container"">
                    <img src=""images/schematic_sequence/restaurant_scheme/restaurant_scheme_5.png"" class=""exp-image"">
                    <div class=""question-area"">
                        <p style=""font-size: 20px; font-weight: bold; margin: 0;"">Is there a person in this image?</p>
                    </div>
                </div>","0","main_experiment_trial","5","restaurant_scheme","schematic_sequence","","","",""
"","","","","","html-keyboard-response","90","290108","0.0-90.0","1307AA19383640F8B89EAC9734D7B3EA","019cee76-658b-766c-aa96-8cb001549570","019cee5f-9f1f-7e58-80c1-9ba679249cc3","","null","
                <div class=""stimulus-container"">
                    <img src=""images/schematic_sequence/restaurant_scheme/restaurant_scheme_6.png"" class=""exp-image"">
                    <div class=""question-area""></div> 
                </div>","null","","","","","","","",""
"","","","","","html-button-response","91","290792","0.0-91.0","1307AA19383640F8B89EAC9734D7B3EA","019cee76-658b-766c-aa96-8cb001549570","019cee5f-9f1f-7e58-80c1-9ba679249cc3","","683","
                <div class=""stimulus-container"">
                    <img src=""images/schematic_sequence/restaurant_scheme/restaurant_scheme_6.png"" class=""exp-image"">
                    <div class=""question-area"">
                        <p style=""font-size: 20px; font-weight: bold; margin: 0;"">Is there a person in this image?</p>
                    </div>
                </div>","1","main_experiment_trial","6","restaurant_scheme","schematic_sequence","","","",""
"","","","","","html-keyboard-response","92","295795","0.0-92.0","1307AA19383640F8B89EAC9734D7B3EA","019cee76-658b-766c-aa96-8cb001549570","019cee5f-9f1f-7e58-80c1-9ba679249cc3","","null","
                <div class=""stimulus-container"">
                    <img src=""images/schematic_sequence/restaurant_scheme/restaurant_scheme_7.png"" class=""exp-image"">
                    <div class=""question-area""></div> 
                </div>","null","","","","","","","",""
"","","","","","html-button-response","93","296947","0.0-93.0","1307AA19383640F8B89EAC9734D7B3EA","019cee76-658b-766c-aa96-8cb001549570","019cee5f-9f1f-7e58-80c1-9ba679249cc3","","1151","
                <div class=""stimulus-container"">
                    <img src=""images/schematic_sequence/restaurant_scheme/restaurant_scheme_7.png"" class=""exp-image"">
                    <div class=""question-area"">
                        <p style=""font-size: 20px; font-weight: bold; margin: 0;"">Is there a person in this image?</p>
                    </div>
                </div>","1","main_experiment_trial","7","restaurant_scheme","schematic_sequence","","","",""
"","","","","","html-keyboard-response","94","301951","0.0-94.0","1307AA19383640F8B89EAC9734D7B3EA","019cee76-658b-766c-aa96-8cb001549570","019cee5f-9f1f-7e58-80c1-9ba679249cc3","","null","
                <div class=""stimulus-container"">
                    <img src=""images/schematic_sequence/restaurant_scheme/restaurant_scheme_8.png"" class=""exp-image"">
                    <div class=""question-area""></div> 
                </div>","null","","","","","","","",""
"","","","","","html-button-response","95","302636","0.0-95.0","1307AA19383640F8B89EAC9734D7B3EA","019cee76-658b-766c-aa96-8cb001549570","019cee5f-9f1f-7e58-80c1-9ba679249cc3","","680","
                <div class=""stimulus-container"">
                    <img src=""images/schematic_sequence/restaurant_scheme/restaurant_scheme_8.png"" class=""exp-image"">
                    <div class=""question-area"">
                        <p style=""font-size: 20px; font-weight: bold; margin: 0;"">Is there a person in this image?</p>
                    </div>
                </div>","1","main_experiment_trial","8","restaurant_scheme","schematic_sequence","","","",""
"","","","","","html-keyboard-response","96","307640","0.0-96.0","1307AA19383640F8B89EAC9734D7B3EA","019cee76-658b-766c-aa96-8cb001549570","019cee5f-9f1f-7e58-80c1-9ba679249cc3","","null","
                <div class=""stimulus-container"">
                    <img src=""images/schematic_sequence/restaurant_scheme/restaurant_scheme_9.png"" class=""exp-image"">
                    <div class=""question-area""></div> 
                </div>","null","","","","","","","",""
"","","","","","html-button-response","97","308376","0.0-97.0","1307AA19383640F8B89EAC9734D7B3EA","019cee76-658b-766c-aa96-8cb001549570","019cee5f-9f1f-7e58-80c1-9ba679249cc3","","733","
                <div class=""stimulus-container"">
                    <img src=""images/schematic_sequence/restaurant_scheme/restaurant_scheme_9.png"" class=""exp-image"">
                    <div class=""question-area"">
                        <p style=""font-size: 20px; font-weight: bold; margin: 0;"">Is there a person in this image?</p>
                    </div>
                </div>","0","main_experiment_trial","9","restaurant_scheme","schematic_sequence","","","",""
"","","","","","html-keyboard-response","98","313379","0.0-98.0","1307AA19383640F8B89EAC9734D7B3EA","019cee76-658b-766c-aa96-8cb001549570","019cee5f-9f1f-7e58-80c1-9ba679249cc3","","null","
                <div class=""stimulus-container"">
                    <img src=""images/schematic_sequence/restaurant_scheme/restaurant_scheme_ten.png"" class=""exp-image"">
                    <div class=""question-area""></div> 
                </div>","null","","","","","","","",""
"","","","","","html-button-response","99","315641","0.0-99.0","1307AA19383640F8B89EAC9734D7B3EA","019cee76-658b-766c-aa96-8cb001549570","019cee5f-9f1f-7e58-80c1-9ba679249cc3","","2258","
                <div class=""stimulus-container"">
                    <img src=""images/schematic_sequence/restaurant_scheme/restaurant_scheme_ten.png"" class=""exp-image"">
                    <div class=""question-area"">
                        <p style=""font-size: 20px; font-weight: bold; margin: 0;"">Is there a person in this image?</p>
                    </div>
                </div>","0","main_experiment_trial","ten","restaurant_scheme","schematic_sequence","","","",""
"","","","","","html-keyboard-response","100","316643","0.0-100.0","1307AA19383640F8B89EAC9734D7B3EA","019cee76-658b-766c-aa96-8cb001549570","019cee5f-9f1f-7e58-80c1-9ba679249cc3","","null","<div style=""background-color: white; width: 100vw; height: 100vh;""></div>","null","","","","","","","",""
"","","","","","html-keyboard-response","101","321646","0.0-101.0","1307AA19383640F8B89EAC9734D7B3EA","019cee76-658b-766c-aa96-8cb001549570","019cee5f-9f1f-7e58-80c1-9ba679249cc3","","null","
                <div class=""stimulus-container"">
                    <img src=""images/causal_sequence/dog_causal/dog_causal_1.png"" class=""exp-image"">
                    <div class=""question-area""></div> 
                </div>","null","","","","","","","",""
"","","","","","html-button-response","102","322141","0.0-102.0","1307AA19383640F8B89EAC9734D7B3EA","019cee76-658b-766c-aa96-8cb001549570","019cee5f-9f1f-7e58-80c1-9ba679249cc3","","493","
                <div class=""stimulus-container"">
                    <img src=""images/causal_sequence/dog_causal/dog_causal_1.png"" class=""exp-image"">
                    <div class=""question-area"">
                        <p style=""font-size: 20px; font-weight: bold; margin: 0;"">Is there a person in this image?</p>
                    </div>
                </div>","0","main_experiment_trial","1","dog_causal","causal_sequence","","","",""
"","","","","","html-keyboard-response","103","327143","0.0-103.0","1307AA19383640F8B89EAC9734D7B3EA","019cee76-658b-766c-aa96-8cb001549570","019cee5f-9f1f-7e58-80c1-9ba679249cc3","","null","
                <div class=""stimulus-container"">
                    <img src=""images/causal_sequence/dog_causal/dog_causal_2.png"" class=""exp-image"">
                    <div class=""question-area""></div> 
                </div>","null","","","","","","","",""
"","","","","","html-button-response","104","330148","0.0-104.0","1307AA19383640F8B89EAC9734D7B3EA","019cee76-658b-766c-aa96-8cb001549570","019cee5f-9f1f-7e58-80c1-9ba679249cc3","","null","
                <div class=""stimulus-container"">
                    <img src=""images/causal_sequence/dog_causal/dog_causal_2.png"" class=""exp-image"">
                    <div class=""question-area"">
                        <p style=""font-size: 20px; font-weight: bold; margin: 0;"">Is there a person in this image?</p>
                    </div>
                </div>","null","main_experiment_trial","2","dog_causal","causal_sequence","","","",""
"","","","","","html-keyboard-response","105","335155","0.0-105.0","1307AA19383640F8B89EAC9734D7B3EA","019cee76-658b-766c-aa96-8cb001549570","019cee5f-9f1f-7e58-80c1-9ba679249cc3","","null","
                <div class=""stimulus-container"">
                    <img src=""images/causal_sequence/dog_causal/dog_causal_3.png"" class=""exp-image"">
                    <div class=""question-area""></div> 
                </div>","null","","","","","","","",""
"","","","","","html-button-response","106","335608","0.0-106.0","1307AA19383640F8B89EAC9734D7B3EA","019cee76-658b-766c-aa96-8cb001549570","019cee5f-9f1f-7e58-80c1-9ba679249cc3","","451","
                <div class=""stimulus-container"">
                    <img src=""images/causal_sequence/dog_causal/dog_causal_3.png"" class=""exp-image"">
                    <div class=""question-area"">
                        <p style=""font-size: 20px; font-weight: bold; margin: 0;"">Is there a person in this image?</p>
                    </div>
                </div>","0","main_experiment_trial","3","dog_causal","causal_sequence","","","",""
"","","","","","html-keyboard-response","107","340612","0.0-107.0","1307AA19383640F8B89EAC9734D7B3EA","019cee76-658b-766c-aa96-8cb001549570","019cee5f-9f1f-7e58-80c1-9ba679249cc3","","null","
                <div class=""stimulus-container"">
                    <img src=""images/causal_sequence/dog_causal/dog_causal_4.png"" class=""exp-image"">
                    <div class=""question-area""></div> 
                </div>","null","","","","","","","",""
"","","","","","html-button-response","108","341123","0.0-108.0","1307AA19383640F8B89EAC9734D7B3EA","019cee76-658b-766c-aa96-8cb001549570","019cee5f-9f1f-7e58-80c1-9ba679249cc3","","507","
                <div class=""stimulus-container"">
                    <img src=""images/causal_sequence/dog_causal/dog_causal_4.png"" class=""exp-image"">
                    <div class=""question-area"">
                        <p style=""font-size: 20px; font-weight: bold; margin: 0;"">Is there a person in this image?</p>
                    </div>
                </div>","0","main_experiment_trial","4","dog_causal","causal_sequence","","","",""
"","","","","","html-keyboard-response","109","346125","0.0-109.0","1307AA19383640F8B89EAC9734D7B3EA","019cee76-658b-766c-aa96-8cb001549570","019cee5f-9f1f-7e58-80c1-9ba679249cc3","","null","
                <div class=""stimulus-container"">
                    <img src=""images/causal_sequence/dog_causal/dog_causal_5.png"" class=""exp-image"">
                    <div class=""question-area""></div> 
                </div>","null","","","","","","","",""
"","","","","","html-button-response","110","347025","0.0-110.0","1307AA19383640F8B89EAC9734D7B3EA","019cee76-658b-766c-aa96-8cb001549570","019cee5f-9f1f-7e58-80c1-9ba679249cc3","","897","
                <div class=""stimulus-container"">
                    <img src=""images/causal_sequence/dog_causal/dog_causal_5.png"" class=""exp-image"">
                    <div class=""question-area"">
                        <p style=""font-size: 20px; font-weight: bold; margin: 0;"">Is there a person in this image?</p>
                    </div>
                </div>","0","main_experiment_trial","5","dog_causal","causal_sequence","","","",""
"","","","","","html-keyboard-response","111","352027","0.0-111.0","1307AA19383640F8B89EAC9734D7B3EA","019cee76-658b-766c-aa96-8cb001549570","019cee5f-9f1f-7e58-80c1-9ba679249cc3","","null","
                <div class=""stimulus-container"">
                    <img src=""images/causal_sequence/dog_causal/dog_causal_6.png"" class=""exp-image"">
                    <div class=""question-area""></div> 
                </div>","null","","","","","","","",""
"","","","","","html-button-response","112","352457","0.0-112.0","1307AA19383640F8B89EAC9734D7B3EA","019cee76-658b-766c-aa96-8cb001549570","019cee5f-9f1f-7e58-80c1-9ba679249cc3","","429","
                <div class=""stimulus-container"">
                    <img src=""images/causal_sequence/dog_causal/dog_causal_6.png"" class=""exp-image"">
                    <div class=""question-area"">
                        <p style=""font-size: 20px; font-weight: bold; margin: 0;"">Is there a person in this image?</p>
                    </div>
                </div>","0","main_experiment_trial","6","dog_causal","causal_sequence","","","",""
"","","","","","html-keyboard-response","113","357459","0.0-113.0","1307AA19383640F8B89EAC9734D7B3EA","019cee76-658b-766c-aa96-8cb001549570","019cee5f-9f1f-7e58-80c1-9ba679249cc3","","null","
                <div class=""stimulus-container"">
                    <img src=""images/causal_sequence/dog_causal/dog_causal_7.png"" class=""exp-image"">
                    <div class=""question-area""></div> 
                </div>","null","","","","","","","",""
"","","","","","html-button-response","114","357890","0.0-114.0","1307AA19383640F8B89EAC9734D7B3EA","019cee76-658b-766c-aa96-8cb001549570","019cee5f-9f1f-7e58-80c1-9ba679249cc3","","428","
                <div class=""stimulus-container"">
                    <img src=""images/causal_sequence/dog_causal/dog_causal_7.png"" class=""exp-image"">
                    <div class=""question-area"">
                        <p style=""font-size: 20px; font-weight: bold; margin: 0;"">Is there a person in this image?</p>
                    </div>
                </div>","0","main_experiment_trial","7","dog_causal","causal_sequence","","","",""
"","","","","","html-keyboard-response","115","362898","0.0-115.0","1307AA19383640F8B89EAC9734D7B3EA","019cee76-658b-766c-aa96-8cb001549570","019cee5f-9f1f-7e58-80c1-9ba679249cc3","","null","
                <div class=""stimulus-container"">
                    <img src=""images/causal_sequence/dog_causal/dog_causal_8.png"" class=""exp-image"">
                    <div class=""question-area""></div> 
                </div>","null","","","","","","","",""
"","","","","","html-button-response","116","363416","0.0-116.0","1307AA19383640F8B89EAC9734D7B3EA","019cee76-658b-766c-aa96-8cb001549570","019cee5f-9f1f-7e58-80c1-9ba679249cc3","","512","
                <div class=""stimulus-container"">
                    <img src=""images/causal_sequence/dog_causal/dog_causal_8.png"" class=""exp-image"">
                    <div class=""question-area"">
                        <p style=""font-size: 20px; font-weight: bold; margin: 0;"">Is there a person in this image?</p>
                    </div>
                </div>","0","main_experiment_trial","8","dog_causal","causal_sequence","","","",""
"","","","","","html-keyboard-response","117","368420","0.0-117.0","1307AA19383640F8B89EAC9734D7B3EA","019cee76-658b-766c-aa96-8cb001549570","019cee5f-9f1f-7e58-80c1-9ba679249cc3","","null","
                <div class=""stimulus-container"">
                    <img src=""images/causal_sequence/dog_causal/dog_causal_9.png"" class=""exp-image"">
                    <div class=""question-area""></div> 
                </div>","null","","","","","","","",""
"","","","","","html-button-response","118","368946","0.0-118.0","1307AA19383640F8B89EAC9734D7B3EA","019cee76-658b-766c-aa96-8cb001549570","019cee5f-9f1f-7e58-80c1-9ba679249cc3","","520","
                <div class=""stimulus-container"">
                    <img src=""images/causal_sequence/dog_causal/dog_causal_9.png"" class=""exp-image"">
                    <div class=""question-area"">
                        <p style=""font-size: 20px; font-weight: bold; margin: 0;"">Is there a person in this image?</p>
                    </div>
                </div>","0","main_experiment_trial","9","dog_causal","causal_sequence","","","",""
"","","","","","html-keyboard-response","119","373948","0.0-119.0","1307AA19383640F8B89EAC9734D7B3EA","019cee76-658b-766c-aa96-8cb001549570","019cee5f-9f1f-7e58-80c1-9ba679249cc3","","null","
                <div class=""stimulus-container"">
                    <img src=""images/causal_sequence/dog_causal/dog_causal_ten.png"" class=""exp-image"">
                    <div class=""question-area""></div> 
                </div>","null","","","","","","","",""
"","","","","","html-button-response","120","374406","0.0-120.0","1307AA19383640F8B89EAC9734D7B3EA","019cee76-658b-766c-aa96-8cb001549570","019cee5f-9f1f-7e58-80c1-9ba679249cc3","","455","
                <div class=""stimulus-container"">
                    <img src=""images/causal_sequence/dog_causal/dog_causal_ten.png"" class=""exp-image"">
                    <div class=""question-area"">
                        <p style=""font-size: 20px; font-weight: bold; margin: 0;"">Is there a person in this image?</p>
                    </div>
                </div>","0","main_experiment_trial","ten","dog_causal","causal_sequence","","","",""
"","","","","","html-keyboard-response","121","375408","0.0-121.0","1307AA19383640F8B89EAC9734D7B3EA","019cee76-658b-766c-aa96-8cb001549570","019cee5f-9f1f-7e58-80c1-9ba679249cc3","","null","<div style=""background-color: white; width: 100vw; height: 100vh;""></div>","null","","","","","","","",""
"","","","","","html-keyboard-response","122","380411","0.0-122.0","1307AA19383640F8B89EAC9734D7B3EA","019cee76-658b-766c-aa96-8cb001549570","019cee5f-9f1f-7e58-80c1-9ba679249cc3","","null","
                <div class=""stimulus-container"">
                    <img src=""images/schematic_sequence/dinner_party_scheme/dinner_party_scheme_1.png"" class=""exp-image"">
                    <div class=""question-area""></div> 
                </div>","null","","","","","","","",""
"","","","","","html-button-response","123","381518","0.0-123.0","1307AA19383640F8B89EAC9734D7B3EA","019cee76-658b-766c-aa96-8cb001549570","019cee5f-9f1f-7e58-80c1-9ba679249cc3","","1102","
                <div class=""stimulus-container"">
                    <img src=""images/schematic_sequence/dinner_party_scheme/dinner_party_scheme_1.png"" class=""exp-image"">
                    <div class=""question-area"">
                        <p style=""font-size: 20px; font-weight: bold; margin: 0;"">Is there a person in this image?</p>
                    </div>
                </div>","1","main_experiment_trial","1","dinner_party_scheme","schematic_sequence","","","",""
"","","","","","html-keyboard-response","124","386527","0.0-124.0","1307AA19383640F8B89EAC9734D7B3EA","019cee76-658b-766c-aa96-8cb001549570","019cee5f-9f1f-7e58-80c1-9ba679249cc3","","null","
                <div class=""stimulus-container"">
                    <img src=""images/schematic_sequence/dinner_party_scheme/dinner_party_scheme_2.png"" class=""exp-image"">
                    <div class=""question-area""></div> 
                </div>","null","","","","","","","",""
"","","","","","html-button-response","125","387189","0.0-125.0","1307AA19383640F8B89EAC9734D7B3EA","019cee76-658b-766c-aa96-8cb001549570","019cee5f-9f1f-7e58-80c1-9ba679249cc3","","655","
                <div class=""stimulus-container"">
                    <img src=""images/schematic_sequence/dinner_party_scheme/dinner_party_scheme_2.png"" class=""exp-image"">
                    <div class=""question-area"">
                        <p style=""font-size: 20px; font-weight: bold; margin: 0;"">Is there a person in this image?</p>
                    </div>
                </div>","1","main_experiment_trial","2","dinner_party_scheme","schematic_sequence","","","",""
"","","","","","html-keyboard-response","126","392191","0.0-126.0","1307AA19383640F8B89EAC9734D7B3EA","019cee76-658b-766c-aa96-8cb001549570","019cee5f-9f1f-7e58-80c1-9ba679249cc3","","null","
                <div class=""stimulus-container"">
                    <img src=""images/schematic_sequence/dinner_party_scheme/dinner_party_scheme_3.png"" class=""exp-image"">
                    <div class=""question-area""></div> 
                </div>","null","","","","","","","",""
"","","","","","html-button-response","127","392883","0.0-127.0","1307AA19383640F8B89EAC9734D7B3EA","019cee76-658b-766c-aa96-8cb001549570","019cee5f-9f1f-7e58-80c1-9ba679249cc3","","689","
                <div class=""stimulus-container"">
                    <img src=""images/schematic_sequence/dinner_party_scheme/dinner_party_scheme_3.png"" class=""exp-image"">
                    <div class=""question-area"">
                        <p style=""font-size: 20px; font-weight: bold; margin: 0;"">Is there a person in this image?</p>
                    </div>
                </div>","0","main_experiment_trial","3","dinner_party_scheme","schematic_sequence","","","",""
"","","","","","html-keyboard-response","128","397885","0.0-128.0","1307AA19383640F8B89EAC9734D7B3EA","019cee76-658b-766c-aa96-8cb001549570","019cee5f-9f1f-7e58-80c1-9ba679249cc3","","null","
                <div class=""stimulus-container"">
                    <img src=""images/schematic_sequence/dinner_party_scheme/dinner_party_scheme_4.png"" class=""exp-image"">
                    <div class=""question-area""></div> 
                </div>","null","","","","","","","",""
"","","","","","html-button-response","129","400888","0.0-129.0","1307AA19383640F8B89EAC9734D7B3EA","019cee76-658b-766c-aa96-8cb001549570","019cee5f-9f1f-7e58-80c1-9ba679249cc3","","null","
                <div class=""stimulus-container"">
                    <img src=""images/schematic_sequence/dinner_party_scheme/dinner_party_scheme_4.png"" class=""exp-image"">
                    <div class=""question-area"">
                        <p style=""font-size: 20px; font-weight: bold; margin: 0;"">Is there a person in this image?</p>
                    </div>
                </div>","null","main_experiment_trial","4","dinner_party_scheme","schematic_sequence","","","",""
"","","","","","html-keyboard-response","130","405889","0.0-130.0","1307AA19383640F8B89EAC9734D7B3EA","019cee76-658b-766c-aa96-8cb001549570","019cee5f-9f1f-7e58-80c1-9ba679249cc3","","null","
                <div class=""stimulus-container"">
                    <img src=""images/schematic_sequence/dinner_party_scheme/dinner_party_scheme_5.png"" class=""exp-image"">
                    <div class=""question-area""></div> 
                </div>","null","","","","","","","",""
"","","","","","html-button-response","131","406565","0.0-131.0","1307AA19383640F8B89EAC9734D7B3EA","019cee76-658b-766c-aa96-8cb001549570","019cee5f-9f1f-7e58-80c1-9ba679249cc3","","674","
                <div class=""stimulus-container"">
                    <img src=""images/schematic_sequence/dinner_party_scheme/dinner_party_scheme_5.png"" class=""exp-image"">
                    <div class=""question-area"">
                        <p style=""font-size: 20px; font-weight: bold; margin: 0;"">Is there a person in this image?</p>
                    </div>
                </div>","1","main_experiment_trial","5","dinner_party_scheme","schematic_sequence","","","",""
"","","","","","html-keyboard-response","132","411567","0.0-132.0","1307AA19383640F8B89EAC9734D7B3EA","019cee76-658b-766c-aa96-8cb001549570","019cee5f-9f1f-7e58-80c1-9ba679249cc3","","null","
                <div class=""stimulus-container"">
                    <img src=""images/schematic_sequence/dinner_party_scheme/dinner_party_scheme_6.png"" class=""exp-image"">
                    <div class=""question-area""></div> 
                </div>","null","","","","","","","",""
"","","","","","html-button-response","133","413561","0.0-133.0","1307AA19383640F8B89EAC9734D7B3EA","019cee76-658b-766c-aa96-8cb001549570","019cee5f-9f1f-7e58-80c1-9ba679249cc3","","1993","
                <div class=""stimulus-container"">
                    <img src=""images/schematic_sequence/dinner_party_scheme/dinner_party_scheme_6.png"" class=""exp-image"">
                    <div class=""question-area"">
                        <p style=""font-size: 20px; font-weight: bold; margin: 0;"">Is there a person in this image?</p>
                    </div>
                </div>","0","main_experiment_trial","6","dinner_party_scheme","schematic_sequence","","","",""
"","","","","","html-keyboard-response","134","418563","0.0-134.0","1307AA19383640F8B89EAC9734D7B3EA","019cee76-658b-766c-aa96-8cb001549570","019cee5f-9f1f-7e58-80c1-9ba679249cc3","","null","
                <div class=""stimulus-container"">
                    <img src=""images/schematic_sequence/dinner_party_scheme/dinner_party_scheme_7.png"" class=""exp-image"">
                    <div class=""question-area""></div> 
                </div>","null","","","","","","","",""
"","","","","","html-button-response","135","419129","0.0-135.0","1307AA19383640F8B89EAC9734D7B3EA","019cee76-658b-766c-aa96-8cb001549570","019cee5f-9f1f-7e58-80c1-9ba679249cc3","","564","
                <div class=""stimulus-container"">
                    <img src=""images/schematic_sequence/dinner_party_scheme/dinner_party_scheme_7.png"" class=""exp-image"">
                    <div class=""question-area"">
                        <p style=""font-size: 20px; font-weight: bold; margin: 0;"">Is there a person in this image?</p>
                    </div>
                </div>","0","main_experiment_trial","7","dinner_party_scheme","schematic_sequence","","","",""
"","","","","","html-keyboard-response","136","424132","0.0-136.0","1307AA19383640F8B89EAC9734D7B3EA","019cee76-658b-766c-aa96-8cb001549570","019cee5f-9f1f-7e58-80c1-9ba679249cc3","","null","
                <div class=""stimulus-container"">
                    <img src=""images/schematic_sequence/dinner_party_scheme/dinner_party_scheme_8.png"" class=""exp-image"">
                    <div class=""question-area""></div> 
                </div>","null","","","","","","","",""
"","","","","","html-button-response","137","424615","0.0-137.0","1307AA19383640F8B89EAC9734D7B3EA","019cee76-658b-766c-aa96-8cb001549570","019cee5f-9f1f-7e58-80c1-9ba679249cc3","","482","
                <div class=""stimulus-container"">
                    <img src=""images/schematic_sequence/dinner_party_scheme/dinner_party_scheme_8.png"" class=""exp-image"">
                    <div class=""question-area"">
                        <p style=""font-size: 20px; font-weight: bold; margin: 0;"">Is there a person in this image?</p>
                    </div>
                </div>","0","main_experiment_trial","8","dinner_party_scheme","schematic_sequence","","","",""
"","","","","","html-keyboard-response","138","429617","0.0-138.0","1307AA19383640F8B89EAC9734D7B3EA","019cee76-658b-766c-aa96-8cb001549570","019cee5f-9f1f-7e58-80c1-9ba679249cc3","","null","
                <div class=""stimulus-container"">
                    <img src=""images/schematic_sequence/dinner_party_scheme/dinner_party_scheme_9.png"" class=""exp-image"">
                    <div class=""question-area""></div> 
                </div>","null","","","","","","","",""
"","","","","","html-button-response","139","430062","0.0-139.0","1307AA19383640F8B89EAC9734D7B3EA","019cee76-658b-766c-aa96-8cb001549570","019cee5f-9f1f-7e58-80c1-9ba679249cc3","","444","
                <div class=""stimulus-container"">
                    <img src=""images/schematic_sequence/dinner_party_scheme/dinner_party_scheme_9.png"" class=""exp-image"">
                    <div class=""question-area"">
                        <p style=""font-size: 20px; font-weight: bold; margin: 0;"">Is there a person in this image?</p>
                    </div>
                </div>","0","main_experiment_trial","9","dinner_party_scheme","schematic_sequence","","","",""
"","","","","","html-keyboard-response","140","435064","0.0-140.0","1307AA19383640F8B89EAC9734D7B3EA","019cee76-658b-766c-aa96-8cb001549570","019cee5f-9f1f-7e58-80c1-9ba679249cc3","","null","
                <div class=""stimulus-container"">
                    <img src=""images/schematic_sequence/dinner_party_scheme/dinner_party_scheme_ten.png"" class=""exp-image"">
                    <div class=""question-area""></div> 
                </div>","null","","","","","","","",""
"","","","","","html-button-response","141","436885","0.0-141.0","1307AA19383640F8B89EAC9734D7B3EA","019cee76-658b-766c-aa96-8cb001549570","019cee5f-9f1f-7e58-80c1-9ba679249cc3","","1820","
                <div class=""stimulus-container"">
                    <img src=""images/schematic_sequence/dinner_party_scheme/dinner_party_scheme_ten.png"" class=""exp-image"">
                    <div class=""question-area"">
                        <p style=""font-size: 20px; font-weight: bold; margin: 0;"">Is there a person in this image?</p>
                    </div>
                </div>","0","main_experiment_trial","ten","dinner_party_scheme","schematic_sequence","","","",""
"","","","","","html-keyboard-response","142","437887","0.0-142.0","1307AA19383640F8B89EAC9734D7B3EA","019cee76-658b-766c-aa96-8cb001549570","019cee5f-9f1f-7e58-80c1-9ba679249cc3","","null","<div style=""background-color: white; width: 100vw; height: 100vh;""></div>","null","","","","","","","",""
"","","","","","html-keyboard-response","143","442889","0.0-143.0","1307AA19383640F8B89EAC9734D7B3EA","019cee76-658b-766c-aa96-8cb001549570","019cee5f-9f1f-7e58-80c1-9ba679249cc3","","null","
                <div class=""stimulus-container"">
                    <img src=""images/causal_sequence/museum_causal/museum_causal_1.png"" class=""exp-image"">
                    <div class=""question-area""></div> 
                </div>","null","","","","","","","",""
"","","","","","html-button-response","144","443745","0.0-144.0","1307AA19383640F8B89EAC9734D7B3EA","019cee76-658b-766c-aa96-8cb001549570","019cee5f-9f1f-7e58-80c1-9ba679249cc3","","854","
                <div class=""stimulus-container"">
                    <img src=""images/causal_sequence/museum_causal/museum_causal_1.png"" class=""exp-image"">
                    <div class=""question-area"">
                        <p style=""font-size: 20px; font-weight: bold; margin: 0;"">Is there a person in this image?</p>
                    </div>
                </div>","0","main_experiment_trial","1","museum_causal","causal_sequence","","","",""
"","","","","","html-keyboard-response","145","448747","0.0-145.0","1307AA19383640F8B89EAC9734D7B3EA","019cee76-658b-766c-aa96-8cb001549570","019cee5f-9f1f-7e58-80c1-9ba679249cc3","","null","
                <div class=""stimulus-container"">
                    <img src=""images/causal_sequence/museum_causal/museum_causal_2.png"" class=""exp-image"">
                    <div class=""question-area""></div> 
                </div>","null","","","","","","","",""
"","","","","","html-button-response","146","451569","0.0-146.0","1307AA19383640F8B89EAC9734D7B3EA","019cee76-658b-766c-aa96-8cb001549570","019cee5f-9f1f-7e58-80c1-9ba679249cc3","","2820","
                <div class=""stimulus-container"">
                    <img src=""images/causal_sequence/museum_causal/museum_causal_2.png"" class=""exp-image"">
                    <div class=""question-area"">
                        <p style=""font-size: 20px; font-weight: bold; margin: 0;"">Is there a person in this image?</p>
                    </div>
                </div>","0","main_experiment_trial","2","museum_causal","causal_sequence","","","",""
"","","","","","html-keyboard-response","147","456572","0.0-147.0","1307AA19383640F8B89EAC9734D7B3EA","019cee76-658b-766c-aa96-8cb001549570","019cee5f-9f1f-7e58-80c1-9ba679249cc3","","null","
                <div class=""stimulus-container"">
                    <img src=""images/causal_sequence/museum_causal/museum_causal_3.png"" class=""exp-image"">
                    <div class=""question-area""></div> 
                </div>","null","","","","","","","",""
"","","","","","html-button-response","148","457711","0.0-148.0","1307AA19383640F8B89EAC9734D7B3EA","019cee76-658b-766c-aa96-8cb001549570","019cee5f-9f1f-7e58-80c1-9ba679249cc3","","1138","
                <div class=""stimulus-container"">
                    <img src=""images/causal_sequence/museum_causal/museum_causal_3.png"" class=""exp-image"">
                    <div class=""question-area"">
                        <p style=""font-size: 20px; font-weight: bold; margin: 0;"">Is there a person in this image?</p>
                    </div>
                </div>","0","main_experiment_trial","3","museum_causal","causal_sequence","","","",""
"","","","","","html-keyboard-response","149","462714","0.0-149.0","1307AA19383640F8B89EAC9734D7B3EA","019cee76-658b-766c-aa96-8cb001549570","019cee5f-9f1f-7e58-80c1-9ba679249cc3","","null","
                <div class=""stimulus-container"">
                    <img src=""images/causal_sequence/museum_causal/museum_causal_4.png"" class=""exp-image"">
                    <div class=""question-area""></div> 
                </div>","null","","","","","","","",""
"","","","","","html-button-response","150","463357","0.0-150.0","1307AA19383640F8B89EAC9734D7B3EA","019cee76-658b-766c-aa96-8cb001549570","019cee5f-9f1f-7e58-80c1-9ba679249cc3","","642","
                <div class=""stimulus-container"">
                    <img src=""images/causal_sequence/museum_causal/museum_causal_4.png"" class=""exp-image"">
                    <div class=""question-area"">
                        <p style=""font-size: 20px; font-weight: bold; margin: 0;"">Is there a person in this image?</p>
                    </div>
                </div>","1","main_experiment_trial","4","museum_causal","causal_sequence","","","",""
"","","","","","html-keyboard-response","151","468360","0.0-151.0","1307AA19383640F8B89EAC9734D7B3EA","019cee76-658b-766c-aa96-8cb001549570","019cee5f-9f1f-7e58-80c1-9ba679249cc3","","null","
                <div class=""stimulus-container"">
                    <img src=""images/causal_sequence/museum_causal/museum_causal_5.png"" class=""exp-image"">
                    <div class=""question-area""></div> 
                </div>","null","","","","","","","",""
"","","","","","html-button-response","152","469593","0.0-152.0","1307AA19383640F8B89EAC9734D7B3EA","019cee76-658b-766c-aa96-8cb001549570","019cee5f-9f1f-7e58-80c1-9ba679249cc3","","1230","
                <div class=""stimulus-container"">
                    <img src=""images/causal_sequence/museum_causal/museum_causal_5.png"" class=""exp-image"">
                    <div class=""question-area"">
                        <p style=""font-size: 20px; font-weight: bold; margin: 0;"">Is there a person in this image?</p>
                    </div>
                </div>","0","main_experiment_trial","5","museum_causal","causal_sequence","","","",""
"","","","","","html-keyboard-response","153","474595","0.0-153.0","1307AA19383640F8B89EAC9734D7B3EA","019cee76-658b-766c-aa96-8cb001549570","019cee5f-9f1f-7e58-80c1-9ba679249cc3","","null","
                <div class=""stimulus-container"">
                    <img src=""images/causal_sequence/museum_causal/museum_causal_6.png"" class=""exp-image"">
                    <div class=""question-area""></div> 
                </div>","null","","","","","","","",""
"","","","","","html-button-response","154","476215","0.0-154.0","1307AA19383640F8B89EAC9734D7B3EA","019cee76-658b-766c-aa96-8cb001549570","019cee5f-9f1f-7e58-80c1-9ba679249cc3","","1617","
                <div class=""stimulus-container"">
                    <img src=""images/causal_sequence/museum_causal/museum_causal_6.png"" class=""exp-image"">
                    <div class=""question-area"">
                        <p style=""font-size: 20px; font-weight: bold; margin: 0;"">Is there a person in this image?</p>
                    </div>
                </div>","0","main_experiment_trial","6","museum_causal","causal_sequence","","","",""
"","","","","","html-keyboard-response","155","481218","0.0-155.0","1307AA19383640F8B89EAC9734D7B3EA","019cee76-658b-766c-aa96-8cb001549570","019cee5f-9f1f-7e58-80c1-9ba679249cc3","","null","
                <div class=""stimulus-container"">
                    <img src=""images/causal_sequence/museum_causal/museum_causal_7.png"" class=""exp-image"">
                    <div class=""question-area""></div> 
                </div>","null","","","","","","","",""
"","","","","","html-button-response","156","482168","0.0-156.0","1307AA19383640F8B89EAC9734D7B3EA","019cee76-658b-766c-aa96-8cb001549570","019cee5f-9f1f-7e58-80c1-9ba679249cc3","","948","
                <div class=""stimulus-container"">
                    <img src=""images/causal_sequence/museum_causal/museum_causal_7.png"" class=""exp-image"">
                    <div class=""question-area"">
                        <p style=""font-size: 20px; font-weight: bold; margin: 0;"">Is there a person in this image?</p>
                    </div>
                </div>","1","main_experiment_trial","7","museum_causal","causal_sequence","","","",""
"","","","","","html-keyboard-response","157","487170","0.0-157.0","1307AA19383640F8B89EAC9734D7B3EA","019cee76-658b-766c-aa96-8cb001549570","019cee5f-9f1f-7e58-80c1-9ba679249cc3","","null","
                <div class=""stimulus-container"">
                    <img src=""images/causal_sequence/museum_causal/museum_causal_8.png"" class=""exp-image"">
                    <div class=""question-area""></div> 
                </div>","null","","","","","","","",""
"","","","","","html-button-response","158","488096","0.0-158.0","1307AA19383640F8B89EAC9734D7B3EA","019cee76-658b-766c-aa96-8cb001549570","019cee5f-9f1f-7e58-80c1-9ba679249cc3","","925","
                <div class=""stimulus-container"">
                    <img src=""images/causal_sequence/museum_causal/museum_causal_8.png"" class=""exp-image"">
                    <div class=""question-area"">
                        <p style=""font-size: 20px; font-weight: bold; margin: 0;"">Is there a person in this image?</p>
                    </div>
                </div>","0","main_experiment_trial","8","museum_causal","causal_sequence","","","",""
"","","","","","html-keyboard-response","159","493097","0.0-159.0","1307AA19383640F8B89EAC9734D7B3EA","019cee76-658b-766c-aa96-8cb001549570","019cee5f-9f1f-7e58-80c1-9ba679249cc3","","null","
                <div class=""stimulus-container"">
                    <img src=""images/causal_sequence/museum_causal/museum_causal_9.png"" class=""exp-image"">
                    <div class=""question-area""></div> 
                </div>","null","","","","","","","",""
"","","","","","html-button-response","160","493621","0.0-160.0","1307AA19383640F8B89EAC9734D7B3EA","019cee76-658b-766c-aa96-8cb001549570","019cee5f-9f1f-7e58-80c1-9ba679249cc3","","523","
                <div class=""stimulus-container"">
                    <img src=""images/causal_sequence/museum_causal/museum_causal_9.png"" class=""exp-image"">
                    <div class=""question-area"">
                        <p style=""font-size: 20px; font-weight: bold; margin: 0;"">Is there a person in this image?</p>
                    </div>
                </div>","1","main_experiment_trial","9","museum_causal","causal_sequence","","","",""
"","","","","","html-keyboard-response","161","498624","0.0-161.0","1307AA19383640F8B89EAC9734D7B3EA","019cee76-658b-766c-aa96-8cb001549570","019cee5f-9f1f-7e58-80c1-9ba679249cc3","","null","
                <div class=""stimulus-container"">
                    <img src=""images/causal_sequence/museum_causal/museum_causal_ten.png"" class=""exp-image"">
                    <div class=""question-area""></div> 
                </div>","null","","","","","","","",""
"","","","","","html-button-response","162","499444","0.0-162.0","1307AA19383640F8B89EAC9734D7B3EA","019cee76-658b-766c-aa96-8cb001549570","019cee5f-9f1f-7e58-80c1-9ba679249cc3","","819","
                <div class=""stimulus-container"">
                    <img src=""images/causal_sequence/museum_causal/museum_causal_ten.png"" class=""exp-image"">
                    <div class=""question-area"">
                        <p style=""font-size: 20px; font-weight: bold; margin: 0;"">Is there a person in this image?</p>
                    </div>
                </div>","0","main_experiment_trial","ten","museum_causal","causal_sequence","","","",""
"","","","","","html-keyboard-response","163","500445","0.0-163.0","1307AA19383640F8B89EAC9734D7B3EA","019cee76-658b-766c-aa96-8cb001549570","019cee5f-9f1f-7e58-80c1-9ba679249cc3","","null","<div style=""background-color: white; width: 100vw; height: 100vh;""></div>","null","","","","","","","",""
"","","","","","html-keyboard-response","164","505448","0.0-164.0","1307AA19383640F8B89EAC9734D7B3EA","019cee76-658b-766c-aa96-8cb001549570","019cee5f-9f1f-7e58-80c1-9ba679249cc3","","null","
                <div class=""stimulus-container"">
                    <img src=""images/schematic_sequence/flight_scheme/flight_scheme_1.png"" class=""exp-image"">
                    <div class=""question-area""></div> 
                </div>","null","","","","","","","",""
"","","","","","html-button-response","165","506504","0.0-165.0","1307AA19383640F8B89EAC9734D7B3EA","019cee76-658b-766c-aa96-8cb001549570","019cee5f-9f1f-7e58-80c1-9ba679249cc3","","1054","
                <div class=""stimulus-container"">
                    <img src=""images/schematic_sequence/flight_scheme/flight_scheme_1.png"" class=""exp-image"">
                    <div class=""question-area"">
                        <p style=""font-size: 20px; font-weight: bold; margin: 0;"">Is there a person in this image?</p>
                    </div>
                </div>","1","main_experiment_trial","1","flight_scheme","schematic_sequence","","","",""
"","","","","","html-keyboard-response","166","511506","0.0-166.0","1307AA19383640F8B89EAC9734D7B3EA","019cee76-658b-766c-aa96-8cb001549570","019cee5f-9f1f-7e58-80c1-9ba679249cc3","","null","
                <div class=""stimulus-container"">
                    <img src=""images/schematic_sequence/flight_scheme/flight_scheme_2.png"" class=""exp-image"">
                    <div class=""question-area""></div> 
                </div>","null","","","","","","","",""
"","","","","","html-button-response","167","512473","0.0-167.0","1307AA19383640F8B89EAC9734D7B3EA","019cee76-658b-766c-aa96-8cb001549570","019cee5f-9f1f-7e58-80c1-9ba679249cc3","","964","
                <div class=""stimulus-container"">
                    <img src=""images/schematic_sequence/flight_scheme/flight_scheme_2.png"" class=""exp-image"">
                    <div class=""question-area"">
                        <p style=""font-size: 20px; font-weight: bold; margin: 0;"">Is there a person in this image?</p>
                    </div>
                </div>","1","main_experiment_trial","2","flight_scheme","schematic_sequence","","","",""
"","","","","","html-keyboard-response","168","517475","0.0-168.0","1307AA19383640F8B89EAC9734D7B3EA","019cee76-658b-766c-aa96-8cb001549570","019cee5f-9f1f-7e58-80c1-9ba679249cc3","","null","
                <div class=""stimulus-container"">
                    <img src=""images/schematic_sequence/flight_scheme/flight_scheme_3.png"" class=""exp-image"">
                    <div class=""question-area""></div> 
                </div>","null","","","","","","","",""
"","","","","","html-button-response","169","518653","0.0-169.0","1307AA19383640F8B89EAC9734D7B3EA","019cee76-658b-766c-aa96-8cb001549570","019cee5f-9f1f-7e58-80c1-9ba679249cc3","","1176","
                <div class=""stimulus-container"">
                    <img src=""images/schematic_sequence/flight_scheme/flight_scheme_3.png"" class=""exp-image"">
                    <div class=""question-area"">
                        <p style=""font-size: 20px; font-weight: bold; margin: 0;"">Is there a person in this image?</p>
                    </div>
                </div>","0","main_experiment_trial","3","flight_scheme","schematic_sequence","","","",""
"","","","","","html-keyboard-response","170","523656","0.0-170.0","1307AA19383640F8B89EAC9734D7B3EA","019cee76-658b-766c-aa96-8cb001549570","019cee5f-9f1f-7e58-80c1-9ba679249cc3","","null","
                <div class=""stimulus-container"">
                    <img src=""images/schematic_sequence/flight_scheme/flight_scheme_4.png"" class=""exp-image"">
                    <div class=""question-area""></div> 
                </div>","null","","","","","","","",""
"","","","","","html-button-response","171","525235","0.0-171.0","1307AA19383640F8B89EAC9734D7B3EA","019cee76-658b-766c-aa96-8cb001549570","019cee5f-9f1f-7e58-80c1-9ba679249cc3","","1578","
                <div class=""stimulus-container"">
                    <img src=""images/schematic_sequence/flight_scheme/flight_scheme_4.png"" class=""exp-image"">
                    <div class=""question-area"">
                        <p style=""font-size: 20px; font-weight: bold; margin: 0;"">Is there a person in this image?</p>
                    </div>
                </div>","0","main_experiment_trial","4","flight_scheme","schematic_sequence","","","",""
"","","","","","html-keyboard-response","172","530237","0.0-172.0","1307AA19383640F8B89EAC9734D7B3EA","019cee76-658b-766c-aa96-8cb001549570","019cee5f-9f1f-7e58-80c1-9ba679249cc3","","null","
                <div class=""stimulus-container"">
                    <img src=""images/schematic_sequence/flight_scheme/flight_scheme_5.png"" class=""exp-image"">
                    <div class=""question-area""></div> 
                </div>","null","","","","","","","",""
"","","","","","html-button-response","173","530749","0.0-173.0","1307AA19383640F8B89EAC9734D7B3EA","019cee76-658b-766c-aa96-8cb001549570","019cee5f-9f1f-7e58-80c1-9ba679249cc3","","511","
                <div class=""stimulus-container"">
                    <img src=""images/schematic_sequence/flight_scheme/flight_scheme_5.png"" class=""exp-image"">
                    <div class=""question-area"">
                        <p style=""font-size: 20px; font-weight: bold; margin: 0;"">Is there a person in this image?</p>
                    </div>
                </div>","0","main_experiment_trial","5","flight_scheme","schematic_sequence","","","",""
"","","","","","html-keyboard-response","174","535751","0.0-174.0","1307AA19383640F8B89EAC9734D7B3EA","019cee76-658b-766c-aa96-8cb001549570","019cee5f-9f1f-7e58-80c1-9ba679249cc3","","null","
                <div class=""stimulus-container"">
                    <img src=""images/schematic_sequence/flight_scheme/flight_scheme_6.png"" class=""exp-image"">
                    <div class=""question-area""></div> 
                </div>","null","","","","","","","",""
"","","","","","html-button-response","175","536863","0.0-175.0","1307AA19383640F8B89EAC9734D7B3EA","019cee76-658b-766c-aa96-8cb001549570","019cee5f-9f1f-7e58-80c1-9ba679249cc3","","1111","
                <div class=""stimulus-container"">
                    <img src=""images/schematic_sequence/flight_scheme/flight_scheme_6.png"" class=""exp-image"">
                    <div class=""question-area"">
                        <p style=""font-size: 20px; font-weight: bold; margin: 0;"">Is there a person in this image?</p>
                    </div>
                </div>","1","main_experiment_trial","6","flight_scheme","schematic_sequence","","","",""
"","","","","","html-keyboard-response","176","541866","0.0-176.0","1307AA19383640F8B89EAC9734D7B3EA","019cee76-658b-766c-aa96-8cb001549570","019cee5f-9f1f-7e58-80c1-9ba679249cc3","","null","
                <div class=""stimulus-container"">
                    <img src=""images/schematic_sequence/flight_scheme/flight_scheme_7.png"" class=""exp-image"">
                    <div class=""question-area""></div> 
                </div>","null","","","","","","","",""
"","","","","","html-button-response","177","542405","0.0-177.0","1307AA19383640F8B89EAC9734D7B3EA","019cee76-658b-766c-aa96-8cb001549570","019cee5f-9f1f-7e58-80c1-9ba679249cc3","","536","
                <div class=""stimulus-container"">
                    <img src=""images/schematic_sequence/flight_scheme/flight_scheme_7.png"" class=""exp-image"">
                    <div class=""question-area"">
                        <p style=""font-size: 20px; font-weight: bold; margin: 0;"">Is there a person in this image?</p>
                    </div>
                </div>","1","main_experiment_trial","7","flight_scheme","schematic_sequence","","","",""
"","","","","","html-keyboard-response","178","547407","0.0-178.0","1307AA19383640F8B89EAC9734D7B3EA","019cee76-658b-766c-aa96-8cb001549570","019cee5f-9f1f-7e58-80c1-9ba679249cc3","","null","
                <div class=""stimulus-container"">
                    <img src=""images/schematic_sequence/flight_scheme/flight_scheme_8.png"" class=""exp-image"">
                    <div class=""question-area""></div> 
                </div>","null","","","","","","","",""
"","","","","","html-button-response","179","549481","0.0-179.0","1307AA19383640F8B89EAC9734D7B3EA","019cee76-658b-766c-aa96-8cb001549570","019cee5f-9f1f-7e58-80c1-9ba679249cc3","","2072","
                <div class=""stimulus-container"">
                    <img src=""images/schematic_sequence/flight_scheme/flight_scheme_8.png"" class=""exp-image"">
                    <div class=""question-area"">
                        <p style=""font-size: 20px; font-weight: bold; margin: 0;"">Is there a person in this image?</p>
                    </div>
                </div>","1","main_experiment_trial","8","flight_scheme","schematic_sequence","","","",""
"","","","","","html-keyboard-response","180","554484","0.0-180.0","1307AA19383640F8B89EAC9734D7B3EA","019cee76-658b-766c-aa96-8cb001549570","019cee5f-9f1f-7e58-80c1-9ba679249cc3","","null","
                <div class=""stimulus-container"">
                    <img src=""images/schematic_sequence/flight_scheme/flight_scheme_9.png"" class=""exp-image"">
                    <div class=""question-area""></div> 
                </div>","null","","","","","","","",""
"","","","","","html-button-response","181","555008","0.0-181.0","1307AA19383640F8B89EAC9734D7B3EA","019cee76-658b-766c-aa96-8cb001549570","019cee5f-9f1f-7e58-80c1-9ba679249cc3","","521","
                <div class=""stimulus-container"">
                    <img src=""images/schematic_sequence/flight_scheme/flight_scheme_9.png"" class=""exp-image"">
                    <div class=""question-area"">
                        <p style=""font-size: 20px; font-weight: bold; margin: 0;"">Is there a person in this image?</p>
                    </div>
                </div>","0","main_experiment_trial","9","flight_scheme","schematic_sequence","","","",""
"","","","","","html-keyboard-response","182","560010","0.0-182.0","1307AA19383640F8B89EAC9734D7B3EA","019cee76-658b-766c-aa96-8cb001549570","019cee5f-9f1f-7e58-80c1-9ba679249cc3","","null","
                <div class=""stimulus-container"">
                    <img src=""images/schematic_sequence/flight_scheme/flight_scheme_ten.png"" class=""exp-image"">
                    <div class=""question-area""></div> 
                </div>","null","","","","","","","",""
"","","","","","html-button-response","183","560545","0.0-183.0","1307AA19383640F8B89EAC9734D7B3EA","019cee76-658b-766c-aa96-8cb001549570","019cee5f-9f1f-7e58-80c1-9ba679249cc3","","533","
                <div class=""stimulus-container"">
                    <img src=""images/schematic_sequence/flight_scheme/flight_scheme_ten.png"" class=""exp-image"">
                    <div class=""question-area"">
                        <p style=""font-size: 20px; font-weight: bold; margin: 0;"">Is there a person in this image?</p>
                    </div>
                </div>","0","main_experiment_trial","ten","flight_scheme","schematic_sequence","","","",""
"","","","","","html-keyboard-response","184","561549","0.0-184.0","1307AA19383640F8B89EAC9734D7B3EA","019cee76-658b-766c-aa96-8cb001549570","019cee5f-9f1f-7e58-80c1-9ba679249cc3","","null","<div style=""background-color: white; width: 100vw; height: 100vh;""></div>","null","","","","","","","",""
