"success","timeout","failed_images","failed_audio","failed_video","trial_type","trial_index","time_elapsed","internal_node_id","subject_id","study_id","session_id","view_history","rt","stimulus","response","task","image_index","folder","valuable_image_index","valuable_X","chosen_image_index","distance_from_X"
"false","false","[]","[]","[]","preload","0","3083","0.0-0.0","9060892AED46410BA5A5A42327AB920F","019ce76a-ff02-7d8e-a0ec-deaba026d3ff","019ce768-b048-7627-b827-888248f65c31","","","","","","","","","","",""
"","","","","","instructions","1","13222","0.0-1.0","9060892AED46410BA5A5A42327AB920F","019ce76a-ff02-7d8e-a0ec-deaba026d3ff","019ce768-b048-7627-b827-888248f65c31","[{""page_index"":0,""viewing_time"":10137}]","10138","","","","","","","","",""
"","","","","","instructions","2","295072","0.0-2.0","9060892AED46410BA5A5A42327AB920F","019ce76a-ff02-7d8e-a0ec-deaba026d3ff","019ce768-b048-7627-b827-888248f65c31","[{""page_index"":0,""viewing_time"":281848}]","281849","","","","","","","","",""
"true","","","","","fullscreen","3","299233","0.0-3.0","9060892AED46410BA5A5A42327AB920F","019ce76a-ff02-7d8e-a0ec-deaba026d3ff","019ce768-b048-7627-b827-888248f65c31","","3142","","","","","","","","",""
"","","","","","instructions","4","301537","0.0-4.0","9060892AED46410BA5A5A42327AB920F","019ce76a-ff02-7d8e-a0ec-deaba026d3ff","019ce768-b048-7627-b827-888248f65c31","[{""page_index"":0,""viewing_time"":2303}]","2303","","","","","","","","",""
"","","","","","instructions","5","315426","0.0-5.0","9060892AED46410BA5A5A42327AB920F","019ce76a-ff02-7d8e-a0ec-deaba026d3ff","019ce768-b048-7627-b827-888248f65c31","[{""page_index"":0,""viewing_time"":13888}]","13889","","","","","","","","",""
"","","","","","html-keyboard-response","6","319439","0.0-6.0","9060892AED46410BA5A5A42327AB920F","019ce76a-ff02-7d8e-a0ec-deaba026d3ff","019ce768-b048-7627-b827-888248f65c31","","null","
                <div class=""stimulus-container"">
                    <img src=""images/instructions/movie_1.png"" class=""exp-image"">
                    <div class=""question-area""></div> 
                </div>","null","","","","","","",""
"","","","","","html-button-response","7","321394","0.0-7.0","9060892AED46410BA5A5A42327AB920F","019ce76a-ff02-7d8e-a0ec-deaba026d3ff","019ce768-b048-7627-b827-888248f65c31","","1953","
                <div class=""stimulus-container"">
                    <img src=""images/instructions/movie_1.png"" class=""exp-image"">
                    <div class=""question-area"">
                        <p style=""font-size: 20px; font-weight: bold; margin: 0;"">Was there a person in this image?</p>
                    </div>
                </div>","0","example_question","1","","","","",""
"","","","","","html-keyboard-response","8","325404","0.0-8.0","9060892AED46410BA5A5A42327AB920F","019ce76a-ff02-7d8e-a0ec-deaba026d3ff","019ce768-b048-7627-b827-888248f65c31","","null","
                <div class=""stimulus-container"">
                    <img src=""images/instructions/movie_2.png"" class=""exp-image"">
                    <div class=""question-area""></div> 
                </div>","null","","","","","","",""
"","","","","","html-button-response","9","327371","0.0-9.0","9060892AED46410BA5A5A42327AB920F","019ce76a-ff02-7d8e-a0ec-deaba026d3ff","019ce768-b048-7627-b827-888248f65c31","","1965","
                <div class=""stimulus-container"">
                    <img src=""images/instructions/movie_2.png"" class=""exp-image"">
                    <div class=""question-area"">
                        <p style=""font-size: 20px; font-weight: bold; margin: 0;"">Was there a person in this image?</p>
                    </div>
                </div>","1","example_question","2","","","","",""
"","","","","","html-keyboard-response","10","331386","0.0-10.0","9060892AED46410BA5A5A42327AB920F","019ce76a-ff02-7d8e-a0ec-deaba026d3ff","019ce768-b048-7627-b827-888248f65c31","","null","
                <div class=""stimulus-container"">
                    <img src=""images/instructions/movie_3.png"" class=""exp-image"">
                    <div class=""question-area""></div> 
                </div>","null","","","","","","",""
"","","","","","html-button-response","11","332502","0.0-11.0","9060892AED46410BA5A5A42327AB920F","019ce76a-ff02-7d8e-a0ec-deaba026d3ff","019ce768-b048-7627-b827-888248f65c31","","1114","
                <div class=""stimulus-container"">
                    <img src=""images/instructions/movie_3.png"" class=""exp-image"">
                    <div class=""question-area"">
                        <p style=""font-size: 20px; font-weight: bold; margin: 0;"">Was there a person in this image?</p>
                    </div>
                </div>","0","example_question","3","","","","",""
"","","","","","html-keyboard-response","12","336506","0.0-12.0","9060892AED46410BA5A5A42327AB920F","019ce76a-ff02-7d8e-a0ec-deaba026d3ff","019ce768-b048-7627-b827-888248f65c31","","null","
                <div class=""stimulus-container"">
                    <img src=""images/instructions/movie_4.png"" class=""exp-image"">
                    <div class=""question-area""></div> 
                </div>","null","","","","","","",""
"","","","","","html-button-response","13","337746","0.0-13.0","9060892AED46410BA5A5A42327AB920F","019ce76a-ff02-7d8e-a0ec-deaba026d3ff","019ce768-b048-7627-b827-888248f65c31","","1239","
                <div class=""stimulus-container"">
                    <img src=""images/instructions/movie_4.png"" class=""exp-image"">
                    <div class=""question-area"">
                        <p style=""font-size: 20px; font-weight: bold; margin: 0;"">Was there a person in this image?</p>
                    </div>
                </div>","0","example_question","4","","","","",""
"","","","","","instructions","14","340880","0.0-14.0","9060892AED46410BA5A5A42327AB920F","019ce76a-ff02-7d8e-a0ec-deaba026d3ff","019ce768-b048-7627-b827-888248f65c31","[{""page_index"":0,""viewing_time"":3133}]","3133","","","","","","","","",""
"","","","","","html-keyboard-response","15","341885","0.0-15.0","9060892AED46410BA5A5A42327AB920F","019ce76a-ff02-7d8e-a0ec-deaba026d3ff","019ce768-b048-7627-b827-888248f65c31","","null","<div style=""background-color: gray; width: 100vw; height: 100vh;""></div>","null","","","","","","",""
"","","","","","html-keyboard-response","16","346898","0.0-16.0","9060892AED46410BA5A5A42327AB920F","019ce76a-ff02-7d8e-a0ec-deaba026d3ff","019ce768-b048-7627-b827-888248f65c31","","null","
                    <div class=""stimulus-container"">
                        <img src=""images/causal_sequence/dog_causal/dog_causal_1.png"" class=""exp-image"">
                        <div class=""question-area""></div> 
                    </div>","null","","","","","","",""
"","","","","","html-button-response","17","349096","0.0-17.0","9060892AED46410BA5A5A42327AB920F","019ce76a-ff02-7d8e-a0ec-deaba026d3ff","019ce768-b048-7627-b827-888248f65c31","","2197","
                    <div class=""stimulus-container"">
                        <img src=""images/causal_sequence/dog_causal/dog_causal_1.png"" class=""exp-image"">
                        <div class=""question-area"">
                            <p style=""font-size: 20px; font-weight: bold; margin: 0;"">Is there a person in this image?</p>
                        </div>
                    </div>","0","main_causal_task","1","dog_causal","","","",""
"","","","","","html-keyboard-response","18","354100","0.0-18.0","9060892AED46410BA5A5A42327AB920F","019ce76a-ff02-7d8e-a0ec-deaba026d3ff","019ce768-b048-7627-b827-888248f65c31","","null","
                    <div class=""stimulus-container"">
                        <img src=""images/causal_sequence/dog_causal/dog_causal_2.png"" class=""exp-image"">
                        <div class=""question-area""></div> 
                    </div>","null","","","","","","",""
"","","","","","html-button-response","19","355759","0.0-19.0","9060892AED46410BA5A5A42327AB920F","019ce76a-ff02-7d8e-a0ec-deaba026d3ff","019ce768-b048-7627-b827-888248f65c31","","1658","
                    <div class=""stimulus-container"">
                        <img src=""images/causal_sequence/dog_causal/dog_causal_2.png"" class=""exp-image"">
                        <div class=""question-area"">
                            <p style=""font-size: 20px; font-weight: bold; margin: 0;"">Is there a person in this image?</p>
                        </div>
                    </div>","0","main_causal_task","2","dog_causal","","","",""
"","","","","","html-keyboard-response","20","360774","0.0-20.0","9060892AED46410BA5A5A42327AB920F","019ce76a-ff02-7d8e-a0ec-deaba026d3ff","019ce768-b048-7627-b827-888248f65c31","","null","
                    <div class=""stimulus-container"">
                        <img src=""images/causal_sequence/dog_causal/dog_causal_3.png"" class=""exp-image"">
                        <div class=""question-area""></div> 
                    </div>","null","","","","","","",""
"","","","","","html-button-response","21","362913","0.0-21.0","9060892AED46410BA5A5A42327AB920F","019ce76a-ff02-7d8e-a0ec-deaba026d3ff","019ce768-b048-7627-b827-888248f65c31","","2138","
                    <div class=""stimulus-container"">
                        <img src=""images/causal_sequence/dog_causal/dog_causal_3.png"" class=""exp-image"">
                        <div class=""question-area"">
                            <p style=""font-size: 20px; font-weight: bold; margin: 0;"">Is there a person in this image?</p>
                        </div>
                    </div>","0","main_causal_task","3","dog_causal","","","",""
"","","","","","html-keyboard-response","22","367915","0.0-22.0","9060892AED46410BA5A5A42327AB920F","019ce76a-ff02-7d8e-a0ec-deaba026d3ff","019ce768-b048-7627-b827-888248f65c31","","null","
                    <div class=""stimulus-container"">
                        <img src=""images/causal_sequence/dog_causal/dog_causal_4.png"" class=""exp-image"">
                        <div class=""question-area""></div> 
                    </div>","null","","","","","","",""
"","","","","","html-button-response","23","369720","0.0-23.0","9060892AED46410BA5A5A42327AB920F","019ce76a-ff02-7d8e-a0ec-deaba026d3ff","019ce768-b048-7627-b827-888248f65c31","","1804","
                    <div class=""stimulus-container"">
                        <img src=""images/causal_sequence/dog_causal/dog_causal_4.png"" class=""exp-image"">
                        <div class=""question-area"">
                            <p style=""font-size: 20px; font-weight: bold; margin: 0;"">Is there a person in this image?</p>
                        </div>
                    </div>","0","main_causal_task","4","dog_causal","","","",""
"","","","","","html-keyboard-response","24","374735","0.0-24.0","9060892AED46410BA5A5A42327AB920F","019ce76a-ff02-7d8e-a0ec-deaba026d3ff","019ce768-b048-7627-b827-888248f65c31","","null","
                    <div class=""stimulus-container"">
                        <img src=""images/causal_sequence/dog_causal/dog_causal_5.png"" class=""exp-image"">
                        <div class=""question-area""></div> 
                    </div>","null","","","","","","",""
"","","","","","html-button-response","25","375909","0.0-25.0","9060892AED46410BA5A5A42327AB920F","019ce76a-ff02-7d8e-a0ec-deaba026d3ff","019ce768-b048-7627-b827-888248f65c31","","1173","
                    <div class=""stimulus-container"">
                        <img src=""images/causal_sequence/dog_causal/dog_causal_5.png"" class=""exp-image"">
                        <div class=""question-area"">
                            <p style=""font-size: 20px; font-weight: bold; margin: 0;"">Is there a person in this image?</p>
                        </div>
                    </div>","0","main_causal_task","5","dog_causal","","","",""
"","","","","","html-keyboard-response","26","380912","0.0-26.0","9060892AED46410BA5A5A42327AB920F","019ce76a-ff02-7d8e-a0ec-deaba026d3ff","019ce768-b048-7627-b827-888248f65c31","","null","
                    <div class=""stimulus-container"">
                        <img src=""images/causal_sequence/dog_causal/dog_causal_6.png"" class=""exp-image"">
                        <div class=""question-area""></div> 
                    </div>","null","","","","","","",""
"","","","","","html-button-response","27","382021","0.0-27.0","9060892AED46410BA5A5A42327AB920F","019ce76a-ff02-7d8e-a0ec-deaba026d3ff","019ce768-b048-7627-b827-888248f65c31","","1106","
                    <div class=""stimulus-container"">
                        <img src=""images/causal_sequence/dog_causal/dog_causal_6.png"" class=""exp-image"">
                        <div class=""question-area"">
                            <p style=""font-size: 20px; font-weight: bold; margin: 0;"">Is there a person in this image?</p>
                        </div>
                    </div>","0","main_causal_task","6","dog_causal","","","",""
"","","","","","html-keyboard-response","28","387027","0.0-28.0","9060892AED46410BA5A5A42327AB920F","019ce76a-ff02-7d8e-a0ec-deaba026d3ff","019ce768-b048-7627-b827-888248f65c31","","null","
                    <div class=""stimulus-container"">
                        <img src=""images/causal_sequence/dog_causal/dog_causal_7.png"" class=""exp-image"">
                        <div class=""question-area""></div> 
                    </div>","null","","","","","","",""
"","","","","","html-button-response","29","388287","0.0-29.0","9060892AED46410BA5A5A42327AB920F","019ce76a-ff02-7d8e-a0ec-deaba026d3ff","019ce768-b048-7627-b827-888248f65c31","","1259","
                    <div class=""stimulus-container"">
                        <img src=""images/causal_sequence/dog_causal/dog_causal_7.png"" class=""exp-image"">
                        <div class=""question-area"">
                            <p style=""font-size: 20px; font-weight: bold; margin: 0;"">Is there a person in this image?</p>
                        </div>
                    </div>","0","main_causal_task","7","dog_causal","","","",""
"","","","","","html-keyboard-response","30","393289","0.0-30.0","9060892AED46410BA5A5A42327AB920F","019ce76a-ff02-7d8e-a0ec-deaba026d3ff","019ce768-b048-7627-b827-888248f65c31","","null","
                    <div class=""stimulus-container"">
                        <img src=""images/causal_sequence/dog_causal/dog_causal_8.png"" class=""exp-image"">
                        <div class=""question-area""></div> 
                    </div>","null","","","","","","",""
"","","","","","html-button-response","31","394350","0.0-31.0","9060892AED46410BA5A5A42327AB920F","019ce76a-ff02-7d8e-a0ec-deaba026d3ff","019ce768-b048-7627-b827-888248f65c31","","1060","
                    <div class=""stimulus-container"">
                        <img src=""images/causal_sequence/dog_causal/dog_causal_8.png"" class=""exp-image"">
                        <div class=""question-area"">
                            <p style=""font-size: 20px; font-weight: bold; margin: 0;"">Is there a person in this image?</p>
                        </div>
                    </div>","0","main_causal_task","8","dog_causal","","","",""
"","","","","","html-keyboard-response","32","399355","0.0-32.0","9060892AED46410BA5A5A42327AB920F","019ce76a-ff02-7d8e-a0ec-deaba026d3ff","019ce768-b048-7627-b827-888248f65c31","","null","
                    <div class=""stimulus-container"">
                        <img src=""images/causal_sequence/dog_causal/dog_causal_9.png"" class=""exp-image"">
                        <div class=""question-area""></div> 
                    </div>","null","","","","","","",""
"","","","","","html-button-response","33","401211","0.0-33.0","9060892AED46410BA5A5A42327AB920F","019ce76a-ff02-7d8e-a0ec-deaba026d3ff","019ce768-b048-7627-b827-888248f65c31","","1855","
                    <div class=""stimulus-container"">
                        <img src=""images/causal_sequence/dog_causal/dog_causal_9.png"" class=""exp-image"">
                        <div class=""question-area"">
                            <p style=""font-size: 20px; font-weight: bold; margin: 0;"">Is there a person in this image?</p>
                        </div>
                    </div>","0","main_causal_task","9","dog_causal","","","",""
"","","","","","html-keyboard-response","34","402215","0.0-34.0","9060892AED46410BA5A5A42327AB920F","019ce76a-ff02-7d8e-a0ec-deaba026d3ff","019ce768-b048-7627-b827-888248f65c31","","null","<div style=""background-color: gray; width: 100vw; height: 100vh;""></div>","null","","","","","","",""
"","","","","","html-keyboard-response","35","407221","0.0-35.0","9060892AED46410BA5A5A42327AB920F","019ce76a-ff02-7d8e-a0ec-deaba026d3ff","019ce768-b048-7627-b827-888248f65c31","","null","
                    <div class=""stimulus-container"">
                        <img src=""images/causal_sequence/coin_causal/coin_causal_1.png"" class=""exp-image"">
                        <div class=""question-area""></div> 
                    </div>","null","","","","","","",""
"","","","","","html-button-response","36","409263","0.0-36.0","9060892AED46410BA5A5A42327AB920F","019ce76a-ff02-7d8e-a0ec-deaba026d3ff","019ce768-b048-7627-b827-888248f65c31","","2039","
                    <div class=""stimulus-container"">
                        <img src=""images/causal_sequence/coin_causal/coin_causal_1.png"" class=""exp-image"">
                        <div class=""question-area"">
                            <p style=""font-size: 20px; font-weight: bold; margin: 0;"">Is there a person in this image?</p>
                        </div>
                    </div>","0","main_causal_task","1","coin_causal","","","",""
"","","","","","html-keyboard-response","37","414266","0.0-37.0","9060892AED46410BA5A5A42327AB920F","019ce76a-ff02-7d8e-a0ec-deaba026d3ff","019ce768-b048-7627-b827-888248f65c31","","null","
                    <div class=""stimulus-container"">
                        <img src=""images/causal_sequence/coin_causal/coin_causal_2.png"" class=""exp-image"">
                        <div class=""question-area""></div> 
                    </div>","null","","","","","","",""
"","","","","","html-button-response","38","415728","0.0-38.0","9060892AED46410BA5A5A42327AB920F","019ce76a-ff02-7d8e-a0ec-deaba026d3ff","019ce768-b048-7627-b827-888248f65c31","","1460","
                    <div class=""stimulus-container"">
                        <img src=""images/causal_sequence/coin_causal/coin_causal_2.png"" class=""exp-image"">
                        <div class=""question-area"">
                            <p style=""font-size: 20px; font-weight: bold; margin: 0;"">Is there a person in this image?</p>
                        </div>
                    </div>","0","main_causal_task","2","coin_causal","","","",""
"","","","","","html-keyboard-response","39","420734","0.0-39.0","9060892AED46410BA5A5A42327AB920F","019ce76a-ff02-7d8e-a0ec-deaba026d3ff","019ce768-b048-7627-b827-888248f65c31","","null","
                    <div class=""stimulus-container"">
                        <img src=""images/causal_sequence/coin_causal/coin_causal_3.png"" class=""exp-image"">
                        <div class=""question-area""></div> 
                    </div>","null","","","","","","",""
"","","","","","html-button-response","40","421823","0.0-40.0","9060892AED46410BA5A5A42327AB920F","019ce76a-ff02-7d8e-a0ec-deaba026d3ff","019ce768-b048-7627-b827-888248f65c31","","1087","
                    <div class=""stimulus-container"">
                        <img src=""images/causal_sequence/coin_causal/coin_causal_3.png"" class=""exp-image"">
                        <div class=""question-area"">
                            <p style=""font-size: 20px; font-weight: bold; margin: 0;"">Is there a person in this image?</p>
                        </div>
                    </div>","0","main_causal_task","3","coin_causal","","","",""
"","","","","","html-keyboard-response","41","426830","0.0-41.0","9060892AED46410BA5A5A42327AB920F","019ce76a-ff02-7d8e-a0ec-deaba026d3ff","019ce768-b048-7627-b827-888248f65c31","","null","
                    <div class=""stimulus-container"">
                        <img src=""images/causal_sequence/coin_causal/coin_causal_4.png"" class=""exp-image"">
                        <div class=""question-area""></div> 
                    </div>","null","","","","","","",""
"","","","","","html-button-response","42","427859","0.0-42.0","9060892AED46410BA5A5A42327AB920F","019ce76a-ff02-7d8e-a0ec-deaba026d3ff","019ce768-b048-7627-b827-888248f65c31","","1027","
                    <div class=""stimulus-container"">
                        <img src=""images/causal_sequence/coin_causal/coin_causal_4.png"" class=""exp-image"">
                        <div class=""question-area"">
                            <p style=""font-size: 20px; font-weight: bold; margin: 0;"">Is there a person in this image?</p>
                        </div>
                    </div>","0","main_causal_task","4","coin_causal","","","",""
"","","","","","html-keyboard-response","43","432868","0.0-43.0","9060892AED46410BA5A5A42327AB920F","019ce76a-ff02-7d8e-a0ec-deaba026d3ff","019ce768-b048-7627-b827-888248f65c31","","null","
                    <div class=""stimulus-container"">
                        <img src=""images/causal_sequence/coin_causal/coin_causal_5.png"" class=""exp-image"">
                        <div class=""question-area""></div> 
                    </div>","null","","","","","","",""
"","","","","","html-button-response","44","434241","0.0-44.0","9060892AED46410BA5A5A42327AB920F","019ce76a-ff02-7d8e-a0ec-deaba026d3ff","019ce768-b048-7627-b827-888248f65c31","","1371","
                    <div class=""stimulus-container"">
                        <img src=""images/causal_sequence/coin_causal/coin_causal_5.png"" class=""exp-image"">
                        <div class=""question-area"">
                            <p style=""font-size: 20px; font-weight: bold; margin: 0;"">Is there a person in this image?</p>
                        </div>
                    </div>","0","main_causal_task","5","coin_causal","","","",""
"","","","","","html-keyboard-response","45","439244","0.0-45.0","9060892AED46410BA5A5A42327AB920F","019ce76a-ff02-7d8e-a0ec-deaba026d3ff","019ce768-b048-7627-b827-888248f65c31","","null","
                    <div class=""stimulus-container"">
                        <img src=""images/causal_sequence/coin_causal/coin_causal_6.png"" class=""exp-image"">
                        <div class=""question-area""></div> 
                    </div>","null","","","","","","",""
"","","","","","html-button-response","46","440534","0.0-46.0","9060892AED46410BA5A5A42327AB920F","019ce76a-ff02-7d8e-a0ec-deaba026d3ff","019ce768-b048-7627-b827-888248f65c31","","1289","
                    <div class=""stimulus-container"">
                        <img src=""images/causal_sequence/coin_causal/coin_causal_6.png"" class=""exp-image"">
                        <div class=""question-area"">
                            <p style=""font-size: 20px; font-weight: bold; margin: 0;"">Is there a person in this image?</p>
                        </div>
                    </div>","0","main_causal_task","6","coin_causal","","","",""
"","","","","","html-keyboard-response","47","445538","0.0-47.0","9060892AED46410BA5A5A42327AB920F","019ce76a-ff02-7d8e-a0ec-deaba026d3ff","019ce768-b048-7627-b827-888248f65c31","","null","
                    <div class=""stimulus-container"">
                        <img src=""images/causal_sequence/coin_causal/coin_causal_7.png"" class=""exp-image"">
                        <div class=""question-area""></div> 
                    </div>","null","","","","","","",""
"","","","","","html-button-response","48","448069","0.0-48.0","9060892AED46410BA5A5A42327AB920F","019ce76a-ff02-7d8e-a0ec-deaba026d3ff","019ce768-b048-7627-b827-888248f65c31","","2530","
                    <div class=""stimulus-container"">
                        <img src=""images/causal_sequence/coin_causal/coin_causal_7.png"" class=""exp-image"">
                        <div class=""question-area"">
                            <p style=""font-size: 20px; font-weight: bold; margin: 0;"">Is there a person in this image?</p>
                        </div>
                    </div>","1","main_causal_task","7","coin_causal","","","",""
"","","","","","html-keyboard-response","49","453085","0.0-49.0","9060892AED46410BA5A5A42327AB920F","019ce76a-ff02-7d8e-a0ec-deaba026d3ff","019ce768-b048-7627-b827-888248f65c31","","null","
                    <div class=""stimulus-container"">
                        <img src=""images/causal_sequence/coin_causal/coin_causal_8.png"" class=""exp-image"">
                        <div class=""question-area""></div> 
                    </div>","null","","","","","","",""
"","","","","","html-button-response","50","454957","0.0-50.0","9060892AED46410BA5A5A42327AB920F","019ce76a-ff02-7d8e-a0ec-deaba026d3ff","019ce768-b048-7627-b827-888248f65c31","","1870","
                    <div class=""stimulus-container"">
                        <img src=""images/causal_sequence/coin_causal/coin_causal_8.png"" class=""exp-image"">
                        <div class=""question-area"">
                            <p style=""font-size: 20px; font-weight: bold; margin: 0;"">Is there a person in this image?</p>
                        </div>
                    </div>","0","main_causal_task","8","coin_causal","","","",""
"","","","","","html-keyboard-response","51","459961","0.0-51.0","9060892AED46410BA5A5A42327AB920F","019ce76a-ff02-7d8e-a0ec-deaba026d3ff","019ce768-b048-7627-b827-888248f65c31","","null","
                    <div class=""stimulus-container"">
                        <img src=""images/causal_sequence/coin_causal/coin_causal_9.png"" class=""exp-image"">
                        <div class=""question-area""></div> 
                    </div>","null","","","","","","",""
"","","","","","html-button-response","52","461410","0.0-52.0","9060892AED46410BA5A5A42327AB920F","019ce76a-ff02-7d8e-a0ec-deaba026d3ff","019ce768-b048-7627-b827-888248f65c31","","1447","
                    <div class=""stimulus-container"">
                        <img src=""images/causal_sequence/coin_causal/coin_causal_9.png"" class=""exp-image"">
                        <div class=""question-area"">
                            <p style=""font-size: 20px; font-weight: bold; margin: 0;"">Is there a person in this image?</p>
                        </div>
                    </div>","0","main_causal_task","9","coin_causal","","","",""
"","","","","","html-keyboard-response","53","462427","0.0-53.0","9060892AED46410BA5A5A42327AB920F","019ce76a-ff02-7d8e-a0ec-deaba026d3ff","019ce768-b048-7627-b827-888248f65c31","","null","<div style=""background-color: gray; width: 100vw; height: 100vh;""></div>","null","","","","","","",""
"","","","","","html-keyboard-response","54","467435","0.0-54.0","9060892AED46410BA5A5A42327AB920F","019ce76a-ff02-7d8e-a0ec-deaba026d3ff","019ce768-b048-7627-b827-888248f65c31","","null","
                    <div class=""stimulus-container"">
                        <img src=""images/causal_sequence/the_performance_causal/the_performance_causal_1.png"" class=""exp-image"">
                        <div class=""question-area""></div> 
                    </div>","null","","","","","","",""
"","","","","","html-button-response","55","468555","0.0-55.0","9060892AED46410BA5A5A42327AB920F","019ce76a-ff02-7d8e-a0ec-deaba026d3ff","019ce768-b048-7627-b827-888248f65c31","","1119","
                    <div class=""stimulus-container"">
                        <img src=""images/causal_sequence/the_performance_causal/the_performance_causal_1.png"" class=""exp-image"">
                        <div class=""question-area"">
                            <p style=""font-size: 20px; font-weight: bold; margin: 0;"">Is there a person in this image?</p>
                        </div>
                    </div>","0","main_causal_task","1","the_performance_causal","","","",""
"","","","","","html-keyboard-response","56","473561","0.0-56.0","9060892AED46410BA5A5A42327AB920F","019ce76a-ff02-7d8e-a0ec-deaba026d3ff","019ce768-b048-7627-b827-888248f65c31","","null","
                    <div class=""stimulus-container"">
                        <img src=""images/causal_sequence/the_performance_causal/the_performance_causal_2.png"" class=""exp-image"">
                        <div class=""question-area""></div> 
                    </div>","null","","","","","","",""
"","","","","","html-button-response","57","474479","0.0-57.0","9060892AED46410BA5A5A42327AB920F","019ce76a-ff02-7d8e-a0ec-deaba026d3ff","019ce768-b048-7627-b827-888248f65c31","","917","
                    <div class=""stimulus-container"">
                        <img src=""images/causal_sequence/the_performance_causal/the_performance_causal_2.png"" class=""exp-image"">
                        <div class=""question-area"">
                            <p style=""font-size: 20px; font-weight: bold; margin: 0;"">Is there a person in this image?</p>
                        </div>
                    </div>","0","main_causal_task","2","the_performance_causal","","","",""
"","","","","","html-keyboard-response","58","479486","0.0-58.0","9060892AED46410BA5A5A42327AB920F","019ce76a-ff02-7d8e-a0ec-deaba026d3ff","019ce768-b048-7627-b827-888248f65c31","","null","
                    <div class=""stimulus-container"">
                        <img src=""images/causal_sequence/the_performance_causal/the_performance_causal_3.png"" class=""exp-image"">
                        <div class=""question-area""></div> 
                    </div>","null","","","","","","",""
"","","","","","html-button-response","59","480596","0.0-59.0","9060892AED46410BA5A5A42327AB920F","019ce76a-ff02-7d8e-a0ec-deaba026d3ff","019ce768-b048-7627-b827-888248f65c31","","1108","
                    <div class=""stimulus-container"">
                        <img src=""images/causal_sequence/the_performance_causal/the_performance_causal_3.png"" class=""exp-image"">
                        <div class=""question-area"">
                            <p style=""font-size: 20px; font-weight: bold; margin: 0;"">Is there a person in this image?</p>
                        </div>
                    </div>","0","main_causal_task","3","the_performance_causal","","","",""
"","","","","","html-keyboard-response","60","485600","0.0-60.0","9060892AED46410BA5A5A42327AB920F","019ce76a-ff02-7d8e-a0ec-deaba026d3ff","019ce768-b048-7627-b827-888248f65c31","","null","
                    <div class=""stimulus-container"">
                        <img src=""images/causal_sequence/the_performance_causal/the_performance_causal_4.png"" class=""exp-image"">
                        <div class=""question-area""></div> 
                    </div>","null","","","","","","",""
"","","","","","html-button-response","61","487254","0.0-61.0","9060892AED46410BA5A5A42327AB920F","019ce76a-ff02-7d8e-a0ec-deaba026d3ff","019ce768-b048-7627-b827-888248f65c31","","1652","
                    <div class=""stimulus-container"">
                        <img src=""images/causal_sequence/the_performance_causal/the_performance_causal_4.png"" class=""exp-image"">
                        <div class=""question-area"">
                            <p style=""font-size: 20px; font-weight: bold; margin: 0;"">Is there a person in this image?</p>
                        </div>
                    </div>","0","main_causal_task","4","the_performance_causal","","","",""
"","","","","","html-keyboard-response","62","492263","0.0-62.0","9060892AED46410BA5A5A42327AB920F","019ce76a-ff02-7d8e-a0ec-deaba026d3ff","019ce768-b048-7627-b827-888248f65c31","","null","
                    <div class=""stimulus-container"">
                        <img src=""images/causal_sequence/the_performance_causal/the_performance_causal_5.png"" class=""exp-image"">
                        <div class=""question-area""></div> 
                    </div>","null","","","","","","",""
"","","","","","html-button-response","63","493554","0.0-63.0","9060892AED46410BA5A5A42327AB920F","019ce76a-ff02-7d8e-a0ec-deaba026d3ff","019ce768-b048-7627-b827-888248f65c31","","1290","
                    <div class=""stimulus-container"">
                        <img src=""images/causal_sequence/the_performance_causal/the_performance_causal_5.png"" class=""exp-image"">
                        <div class=""question-area"">
                            <p style=""font-size: 20px; font-weight: bold; margin: 0;"">Is there a person in this image?</p>
                        </div>
                    </div>","0","main_causal_task","5","the_performance_causal","","","",""
"","","","","","html-keyboard-response","64","498571","0.0-64.0","9060892AED46410BA5A5A42327AB920F","019ce76a-ff02-7d8e-a0ec-deaba026d3ff","019ce768-b048-7627-b827-888248f65c31","","null","
                    <div class=""stimulus-container"">
                        <img src=""images/causal_sequence/the_performance_causal/the_performance_causal_6.png"" class=""exp-image"">
                        <div class=""question-area""></div> 
                    </div>","null","","","","","","",""
"","","","","","html-button-response","65","500115","0.0-65.0","9060892AED46410BA5A5A42327AB920F","019ce76a-ff02-7d8e-a0ec-deaba026d3ff","019ce768-b048-7627-b827-888248f65c31","","1541","
                    <div class=""stimulus-container"">
                        <img src=""images/causal_sequence/the_performance_causal/the_performance_causal_6.png"" class=""exp-image"">
                        <div class=""question-area"">
                            <p style=""font-size: 20px; font-weight: bold; margin: 0;"">Is there a person in this image?</p>
                        </div>
                    </div>","0","main_causal_task","6","the_performance_causal","","","",""
"","","","","","html-keyboard-response","66","505117","0.0-66.0","9060892AED46410BA5A5A42327AB920F","019ce76a-ff02-7d8e-a0ec-deaba026d3ff","019ce768-b048-7627-b827-888248f65c31","","null","
                    <div class=""stimulus-container"">
                        <img src=""images/causal_sequence/the_performance_causal/the_performance_causal_7.png"" class=""exp-image"">
                        <div class=""question-area""></div> 
                    </div>","null","","","","","","",""
"","","","","","html-button-response","67","506124","0.0-67.0","9060892AED46410BA5A5A42327AB920F","019ce76a-ff02-7d8e-a0ec-deaba026d3ff","019ce768-b048-7627-b827-888248f65c31","","1005","
                    <div class=""stimulus-container"">
                        <img src=""images/causal_sequence/the_performance_causal/the_performance_causal_7.png"" class=""exp-image"">
                        <div class=""question-area"">
                            <p style=""font-size: 20px; font-weight: bold; margin: 0;"">Is there a person in this image?</p>
                        </div>
                    </div>","0","main_causal_task","7","the_performance_causal","","","",""
"","","","","","html-keyboard-response","68","511139","0.0-68.0","9060892AED46410BA5A5A42327AB920F","019ce76a-ff02-7d8e-a0ec-deaba026d3ff","019ce768-b048-7627-b827-888248f65c31","","null","
                    <div class=""stimulus-container"">
                        <img src=""images/causal_sequence/the_performance_causal/the_performance_causal_8.png"" class=""exp-image"">
                        <div class=""question-area""></div> 
                    </div>","null","","","","","","",""
"","","","","","html-button-response","69","512875","0.0-69.0","9060892AED46410BA5A5A42327AB920F","019ce76a-ff02-7d8e-a0ec-deaba026d3ff","019ce768-b048-7627-b827-888248f65c31","","1735","
                    <div class=""stimulus-container"">
                        <img src=""images/causal_sequence/the_performance_causal/the_performance_causal_8.png"" class=""exp-image"">
                        <div class=""question-area"">
                            <p style=""font-size: 20px; font-weight: bold; margin: 0;"">Is there a person in this image?</p>
                        </div>
                    </div>","0","main_causal_task","8","the_performance_causal","","","",""
"","","","","","html-keyboard-response","70","517881","0.0-70.0","9060892AED46410BA5A5A42327AB920F","019ce76a-ff02-7d8e-a0ec-deaba026d3ff","019ce768-b048-7627-b827-888248f65c31","","null","
                    <div class=""stimulus-container"">
                        <img src=""images/causal_sequence/the_performance_causal/the_performance_causal_9.png"" class=""exp-image"">
                        <div class=""question-area""></div> 
                    </div>","null","","","","","","",""
"","","","","","html-button-response","71","520884","0.0-71.0","9060892AED46410BA5A5A42327AB920F","019ce76a-ff02-7d8e-a0ec-deaba026d3ff","019ce768-b048-7627-b827-888248f65c31","","null","
                    <div class=""stimulus-container"">
                        <img src=""images/causal_sequence/the_performance_causal/the_performance_causal_9.png"" class=""exp-image"">
                        <div class=""question-area"">
                            <p style=""font-size: 20px; font-weight: bold; margin: 0;"">Is there a person in this image?</p>
                        </div>
                    </div>","null","main_causal_task","9","the_performance_causal","","","",""
"","","","","","html-keyboard-response","72","521886","0.0-72.0","9060892AED46410BA5A5A42327AB920F","019ce76a-ff02-7d8e-a0ec-deaba026d3ff","019ce768-b048-7627-b827-888248f65c31","","null","<div style=""background-color: gray; width: 100vw; height: 100vh;""></div>","null","","","","","","",""
"","","","","","html-keyboard-response","73","526895","0.0-73.0","9060892AED46410BA5A5A42327AB920F","019ce76a-ff02-7d8e-a0ec-deaba026d3ff","019ce768-b048-7627-b827-888248f65c31","","null","
                    <div class=""stimulus-container"">
                        <img src=""images/causal_sequence/museum_causal/museum_causal_1.png"" class=""exp-image"">
                        <div class=""question-area""></div> 
                    </div>","null","","","","","","",""
"","","","","","html-button-response","74","528756","0.0-74.0","9060892AED46410BA5A5A42327AB920F","019ce76a-ff02-7d8e-a0ec-deaba026d3ff","019ce768-b048-7627-b827-888248f65c31","","1859","
                    <div class=""stimulus-container"">
                        <img src=""images/causal_sequence/museum_causal/museum_causal_1.png"" class=""exp-image"">
                        <div class=""question-area"">
                            <p style=""font-size: 20px; font-weight: bold; margin: 0;"">Is there a person in this image?</p>
                        </div>
                    </div>","0","main_causal_task","1","museum_causal","","","",""
"","","","","","html-keyboard-response","75","533759","0.0-75.0","9060892AED46410BA5A5A42327AB920F","019ce76a-ff02-7d8e-a0ec-deaba026d3ff","019ce768-b048-7627-b827-888248f65c31","","null","
                    <div class=""stimulus-container"">
                        <img src=""images/causal_sequence/museum_causal/museum_causal_2.png"" class=""exp-image"">
                        <div class=""question-area""></div> 
                    </div>","null","","","","","","",""
"","","","","","html-button-response","76","534905","0.0-76.0","9060892AED46410BA5A5A42327AB920F","019ce76a-ff02-7d8e-a0ec-deaba026d3ff","019ce768-b048-7627-b827-888248f65c31","","1144","
                    <div class=""stimulus-container"">
                        <img src=""images/causal_sequence/museum_causal/museum_causal_2.png"" class=""exp-image"">
                        <div class=""question-area"">
                            <p style=""font-size: 20px; font-weight: bold; margin: 0;"">Is there a person in this image?</p>
                        </div>
                    </div>","1","main_causal_task","2","museum_causal","","","",""
"","","","","","html-keyboard-response","77","539920","0.0-77.0","9060892AED46410BA5A5A42327AB920F","019ce76a-ff02-7d8e-a0ec-deaba026d3ff","019ce768-b048-7627-b827-888248f65c31","","null","
                    <div class=""stimulus-container"">
                        <img src=""images/causal_sequence/museum_causal/museum_causal_3.png"" class=""exp-image"">
                        <div class=""question-area""></div> 
                    </div>","null","","","","","","",""
"","","","","","html-button-response","78","541018","0.0-78.0","9060892AED46410BA5A5A42327AB920F","019ce76a-ff02-7d8e-a0ec-deaba026d3ff","019ce768-b048-7627-b827-888248f65c31","","1096","
                    <div class=""stimulus-container"">
                        <img src=""images/causal_sequence/museum_causal/museum_causal_3.png"" class=""exp-image"">
                        <div class=""question-area"">
                            <p style=""font-size: 20px; font-weight: bold; margin: 0;"">Is there a person in this image?</p>
                        </div>
                    </div>","0","main_causal_task","3","museum_causal","","","",""
"","","","","","html-keyboard-response","79","546025","0.0-79.0","9060892AED46410BA5A5A42327AB920F","019ce76a-ff02-7d8e-a0ec-deaba026d3ff","019ce768-b048-7627-b827-888248f65c31","","null","
                    <div class=""stimulus-container"">
                        <img src=""images/causal_sequence/museum_causal/museum_causal_4.png"" class=""exp-image"">
                        <div class=""question-area""></div> 
                    </div>","null","","","","","","",""
"","","","","","html-button-response","80","547246","0.0-80.0","9060892AED46410BA5A5A42327AB920F","019ce76a-ff02-7d8e-a0ec-deaba026d3ff","019ce768-b048-7627-b827-888248f65c31","","1220","
                    <div class=""stimulus-container"">
                        <img src=""images/causal_sequence/museum_causal/museum_causal_4.png"" class=""exp-image"">
                        <div class=""question-area"">
                            <p style=""font-size: 20px; font-weight: bold; margin: 0;"">Is there a person in this image?</p>
                        </div>
                    </div>","1","main_causal_task","4","museum_causal","","","",""
"","","","","","html-keyboard-response","81","552253","0.0-81.0","9060892AED46410BA5A5A42327AB920F","019ce76a-ff02-7d8e-a0ec-deaba026d3ff","019ce768-b048-7627-b827-888248f65c31","","null","
                    <div class=""stimulus-container"">
                        <img src=""images/causal_sequence/museum_causal/museum_causal_5.png"" class=""exp-image"">
                        <div class=""question-area""></div> 
                    </div>","null","","","","","","",""
"","","","","","html-button-response","82","553221","0.0-82.0","9060892AED46410BA5A5A42327AB920F","019ce76a-ff02-7d8e-a0ec-deaba026d3ff","019ce768-b048-7627-b827-888248f65c31","","967","
                    <div class=""stimulus-container"">
                        <img src=""images/causal_sequence/museum_causal/museum_causal_5.png"" class=""exp-image"">
                        <div class=""question-area"">
                            <p style=""font-size: 20px; font-weight: bold; margin: 0;"">Is there a person in this image?</p>
                        </div>
                    </div>","0","main_causal_task","5","museum_causal","","","",""
"","","","","","html-keyboard-response","83","558228","0.0-83.0","9060892AED46410BA5A5A42327AB920F","019ce76a-ff02-7d8e-a0ec-deaba026d3ff","019ce768-b048-7627-b827-888248f65c31","","null","
                    <div class=""stimulus-container"">
                        <img src=""images/causal_sequence/museum_causal/museum_causal_6.png"" class=""exp-image"">
                        <div class=""question-area""></div> 
                    </div>","null","","","","","","",""
"","","","","","html-button-response","84","559424","0.0-84.0","9060892AED46410BA5A5A42327AB920F","019ce76a-ff02-7d8e-a0ec-deaba026d3ff","019ce768-b048-7627-b827-888248f65c31","","1195","
                    <div class=""stimulus-container"">
                        <img src=""images/causal_sequence/museum_causal/museum_causal_6.png"" class=""exp-image"">
                        <div class=""question-area"">
                            <p style=""font-size: 20px; font-weight: bold; margin: 0;"">Is there a person in this image?</p>
                        </div>
                    </div>","0","main_causal_task","6","museum_causal","","","",""
"","","","","","html-keyboard-response","85","564437","0.0-85.0","9060892AED46410BA5A5A42327AB920F","019ce76a-ff02-7d8e-a0ec-deaba026d3ff","019ce768-b048-7627-b827-888248f65c31","","null","
                    <div class=""stimulus-container"">
                        <img src=""images/causal_sequence/museum_causal/museum_causal_7.png"" class=""exp-image"">
                        <div class=""question-area""></div> 
                    </div>","null","","","","","","",""
"","","","","","html-button-response","86","565887","0.0-86.0","9060892AED46410BA5A5A42327AB920F","019ce76a-ff02-7d8e-a0ec-deaba026d3ff","019ce768-b048-7627-b827-888248f65c31","","1448","
                    <div class=""stimulus-container"">
                        <img src=""images/causal_sequence/museum_causal/museum_causal_7.png"" class=""exp-image"">
                        <div class=""question-area"">
                            <p style=""font-size: 20px; font-weight: bold; margin: 0;"">Is there a person in this image?</p>
                        </div>
                    </div>","1","main_causal_task","7","museum_causal","","","",""
"","","","","","html-keyboard-response","87","570890","0.0-87.0","9060892AED46410BA5A5A42327AB920F","019ce76a-ff02-7d8e-a0ec-deaba026d3ff","019ce768-b048-7627-b827-888248f65c31","","null","
                    <div class=""stimulus-container"">
                        <img src=""images/causal_sequence/museum_causal/museum_causal_8.png"" class=""exp-image"">
                        <div class=""question-area""></div> 
                    </div>","null","","","","","","",""
"","","","","","html-button-response","88","573308","0.0-88.0","9060892AED46410BA5A5A42327AB920F","019ce76a-ff02-7d8e-a0ec-deaba026d3ff","019ce768-b048-7627-b827-888248f65c31","","2417","
                    <div class=""stimulus-container"">
                        <img src=""images/causal_sequence/museum_causal/museum_causal_8.png"" class=""exp-image"">
                        <div class=""question-area"">
                            <p style=""font-size: 20px; font-weight: bold; margin: 0;"">Is there a person in this image?</p>
                        </div>
                    </div>","0","main_causal_task","8","museum_causal","","","",""
"","","","","","html-keyboard-response","89","578317","0.0-89.0","9060892AED46410BA5A5A42327AB920F","019ce76a-ff02-7d8e-a0ec-deaba026d3ff","019ce768-b048-7627-b827-888248f65c31","","null","
                    <div class=""stimulus-container"">
                        <img src=""images/causal_sequence/museum_causal/museum_causal_9.png"" class=""exp-image"">
                        <div class=""question-area""></div> 
                    </div>","null","","","","","","",""
"","","","","","html-button-response","90","579787","0.0-90.0","9060892AED46410BA5A5A42327AB920F","019ce76a-ff02-7d8e-a0ec-deaba026d3ff","019ce768-b048-7627-b827-888248f65c31","","1469","
                    <div class=""stimulus-container"">
                        <img src=""images/causal_sequence/museum_causal/museum_causal_9.png"" class=""exp-image"">
                        <div class=""question-area"">
                            <p style=""font-size: 20px; font-weight: bold; margin: 0;"">Is there a person in this image?</p>
                        </div>
                    </div>","1","main_causal_task","9","museum_causal","","","",""
"","","","","","html-keyboard-response","91","580802","0.0-91.0","9060892AED46410BA5A5A42327AB920F","019ce76a-ff02-7d8e-a0ec-deaba026d3ff","019ce768-b048-7627-b827-888248f65c31","","null","<div style=""background-color: gray; width: 100vw; height: 100vh;""></div>","null","","","","","","",""
"","","","","","html-keyboard-response","92","585805","0.0-92.0","9060892AED46410BA5A5A42327AB920F","019ce76a-ff02-7d8e-a0ec-deaba026d3ff","019ce768-b048-7627-b827-888248f65c31","","null","
                    <div class=""stimulus-container"">
                        <img src=""images/causal_sequence/package_causal/package_causal_1.png"" class=""exp-image"">
                        <div class=""question-area""></div> 
                    </div>","null","","","","","","",""
"","","","","","html-button-response","93","588418","0.0-93.0","9060892AED46410BA5A5A42327AB920F","019ce76a-ff02-7d8e-a0ec-deaba026d3ff","019ce768-b048-7627-b827-888248f65c31","","2611","
                    <div class=""stimulus-container"">
                        <img src=""images/causal_sequence/package_causal/package_causal_1.png"" class=""exp-image"">
                        <div class=""question-area"">
                            <p style=""font-size: 20px; font-weight: bold; margin: 0;"">Is there a person in this image?</p>
                        </div>
                    </div>","0","main_causal_task","1","package_causal","","","",""
"","","","","","html-keyboard-response","94","593422","0.0-94.0","9060892AED46410BA5A5A42327AB920F","019ce76a-ff02-7d8e-a0ec-deaba026d3ff","019ce768-b048-7627-b827-888248f65c31","","null","
                    <div class=""stimulus-container"">
                        <img src=""images/causal_sequence/package_causal/package_causal_2.png"" class=""exp-image"">
                        <div class=""question-area""></div> 
                    </div>","null","","","","","","",""
"","","","","","html-button-response","95","595283","0.0-95.0","9060892AED46410BA5A5A42327AB920F","019ce76a-ff02-7d8e-a0ec-deaba026d3ff","019ce768-b048-7627-b827-888248f65c31","","1860","
                    <div class=""stimulus-container"">
                        <img src=""images/causal_sequence/package_causal/package_causal_2.png"" class=""exp-image"">
                        <div class=""question-area"">
                            <p style=""font-size: 20px; font-weight: bold; margin: 0;"">Is there a person in this image?</p>
                        </div>
                    </div>","0","main_causal_task","2","package_causal","","","",""
"","","","","","html-keyboard-response","96","600285","0.0-96.0","9060892AED46410BA5A5A42327AB920F","019ce76a-ff02-7d8e-a0ec-deaba026d3ff","019ce768-b048-7627-b827-888248f65c31","","null","
                    <div class=""stimulus-container"">
                        <img src=""images/causal_sequence/package_causal/package_causal_3.png"" class=""exp-image"">
                        <div class=""question-area""></div> 
                    </div>","null","","","","","","",""
"","","","","","html-button-response","97","601532","0.0-97.0","9060892AED46410BA5A5A42327AB920F","019ce76a-ff02-7d8e-a0ec-deaba026d3ff","019ce768-b048-7627-b827-888248f65c31","","1245","
                    <div class=""stimulus-container"">
                        <img src=""images/causal_sequence/package_causal/package_causal_3.png"" class=""exp-image"">
                        <div class=""question-area"">
                            <p style=""font-size: 20px; font-weight: bold; margin: 0;"">Is there a person in this image?</p>
                        </div>
                    </div>","0","main_causal_task","3","package_causal","","","",""
"","","","","","html-keyboard-response","98","606548","0.0-98.0","9060892AED46410BA5A5A42327AB920F","019ce76a-ff02-7d8e-a0ec-deaba026d3ff","019ce768-b048-7627-b827-888248f65c31","","null","
                    <div class=""stimulus-container"">
                        <img src=""images/causal_sequence/package_causal/package_causal_4.png"" class=""exp-image"">
                        <div class=""question-area""></div> 
                    </div>","null","","","","","","",""
"","","","","","html-button-response","99","609557","0.0-99.0","9060892AED46410BA5A5A42327AB920F","019ce76a-ff02-7d8e-a0ec-deaba026d3ff","019ce768-b048-7627-b827-888248f65c31","","null","
                    <div class=""stimulus-container"">
                        <img src=""images/causal_sequence/package_causal/package_causal_4.png"" class=""exp-image"">
                        <div class=""question-area"">
                            <p style=""font-size: 20px; font-weight: bold; margin: 0;"">Is there a person in this image?</p>
                        </div>
                    </div>","null","main_causal_task","4","package_causal","","","",""
"","","","","","html-keyboard-response","100","614567","0.0-100.0","9060892AED46410BA5A5A42327AB920F","019ce76a-ff02-7d8e-a0ec-deaba026d3ff","019ce768-b048-7627-b827-888248f65c31","","null","
                    <div class=""stimulus-container"">
                        <img src=""images/causal_sequence/package_causal/package_causal_5.png"" class=""exp-image"">
                        <div class=""question-area""></div> 
                    </div>","null","","","","","","",""
"","","","","","html-button-response","101","615607","0.0-101.0","9060892AED46410BA5A5A42327AB920F","019ce76a-ff02-7d8e-a0ec-deaba026d3ff","019ce768-b048-7627-b827-888248f65c31","","1040","
                    <div class=""stimulus-container"">
                        <img src=""images/causal_sequence/package_causal/package_causal_5.png"" class=""exp-image"">
                        <div class=""question-area"">
                            <p style=""font-size: 20px; font-weight: bold; margin: 0;"">Is there a person in this image?</p>
                        </div>
                    </div>","0","main_causal_task","5","package_causal","","","",""
"","","","","","html-keyboard-response","102","620614","0.0-102.0","9060892AED46410BA5A5A42327AB920F","019ce76a-ff02-7d8e-a0ec-deaba026d3ff","019ce768-b048-7627-b827-888248f65c31","","null","
                    <div class=""stimulus-container"">
                        <img src=""images/causal_sequence/package_causal/package_causal_6.png"" class=""exp-image"">
                        <div class=""question-area""></div> 
                    </div>","null","","","","","","",""
"","","","","","html-button-response","103","622695","0.0-103.0","9060892AED46410BA5A5A42327AB920F","019ce76a-ff02-7d8e-a0ec-deaba026d3ff","019ce768-b048-7627-b827-888248f65c31","","2079","
                    <div class=""stimulus-container"">
                        <img src=""images/causal_sequence/package_causal/package_causal_6.png"" class=""exp-image"">
                        <div class=""question-area"">
                            <p style=""font-size: 20px; font-weight: bold; margin: 0;"">Is there a person in this image?</p>
                        </div>
                    </div>","0","main_causal_task","6","package_causal","","","",""
"","","","","","html-keyboard-response","104","627711","0.0-104.0","9060892AED46410BA5A5A42327AB920F","019ce76a-ff02-7d8e-a0ec-deaba026d3ff","019ce768-b048-7627-b827-888248f65c31","","null","
                    <div class=""stimulus-container"">
                        <img src=""images/causal_sequence/package_causal/package_causal_7.png"" class=""exp-image"">
                        <div class=""question-area""></div> 
                    </div>","null","","","","","","",""
"","","","","","html-button-response","105","629145","0.0-105.0","9060892AED46410BA5A5A42327AB920F","019ce76a-ff02-7d8e-a0ec-deaba026d3ff","019ce768-b048-7627-b827-888248f65c31","","1431","
                    <div class=""stimulus-container"">
                        <img src=""images/causal_sequence/package_causal/package_causal_7.png"" class=""exp-image"">
                        <div class=""question-area"">
                            <p style=""font-size: 20px; font-weight: bold; margin: 0;"">Is there a person in this image?</p>
                        </div>
                    </div>","0","main_causal_task","7","package_causal","","","",""
"","","","","","html-keyboard-response","106","634153","0.0-106.0","9060892AED46410BA5A5A42327AB920F","019ce76a-ff02-7d8e-a0ec-deaba026d3ff","019ce768-b048-7627-b827-888248f65c31","","null","
                    <div class=""stimulus-container"">
                        <img src=""images/causal_sequence/package_causal/package_causal_8.png"" class=""exp-image"">
                        <div class=""question-area""></div> 
                    </div>","null","","","","","","",""
"","","","","","html-button-response","107","635972","0.0-107.0","9060892AED46410BA5A5A42327AB920F","019ce76a-ff02-7d8e-a0ec-deaba026d3ff","019ce768-b048-7627-b827-888248f65c31","","1818","
                    <div class=""stimulus-container"">
                        <img src=""images/causal_sequence/package_causal/package_causal_8.png"" class=""exp-image"">
                        <div class=""question-area"">
                            <p style=""font-size: 20px; font-weight: bold; margin: 0;"">Is there a person in this image?</p>
                        </div>
                    </div>","0","main_causal_task","8","package_causal","","","",""
"","","","","","html-keyboard-response","108","640977","0.0-108.0","9060892AED46410BA5A5A42327AB920F","019ce76a-ff02-7d8e-a0ec-deaba026d3ff","019ce768-b048-7627-b827-888248f65c31","","null","
                    <div class=""stimulus-container"">
                        <img src=""images/causal_sequence/package_causal/package_causal_9.png"" class=""exp-image"">
                        <div class=""question-area""></div> 
                    </div>","null","","","","","","",""
"","","","","","html-button-response","109","642349","0.0-109.0","9060892AED46410BA5A5A42327AB920F","019ce76a-ff02-7d8e-a0ec-deaba026d3ff","019ce768-b048-7627-b827-888248f65c31","","1370","
                    <div class=""stimulus-container"">
                        <img src=""images/causal_sequence/package_causal/package_causal_9.png"" class=""exp-image"">
                        <div class=""question-area"">
                            <p style=""font-size: 20px; font-weight: bold; margin: 0;"">Is there a person in this image?</p>
                        </div>
                    </div>","0","main_causal_task","9","package_causal","","","",""
"","","","","","html-keyboard-response","110","643358","0.0-110.0","9060892AED46410BA5A5A42327AB920F","019ce76a-ff02-7d8e-a0ec-deaba026d3ff","019ce768-b048-7627-b827-888248f65c31","","null","<div style=""background-color: gray; width: 100vw; height: 100vh;""></div>","null","","","","","","",""
"","","","","","html-keyboard-response","111","648361","0.0-111.0","9060892AED46410BA5A5A42327AB920F","019ce76a-ff02-7d8e-a0ec-deaba026d3ff","019ce768-b048-7627-b827-888248f65c31","","null","
                    <div class=""stimulus-container"">
                        <img src=""images/causal_sequence/saving_a_cat_causal/saving_a_cat_causal_1.png"" class=""exp-image"">
                        <div class=""question-area""></div> 
                    </div>","null","","","","","","",""
"","","","","","html-button-response","112","650831","0.0-112.0","9060892AED46410BA5A5A42327AB920F","019ce76a-ff02-7d8e-a0ec-deaba026d3ff","019ce768-b048-7627-b827-888248f65c31","","2467","
                    <div class=""stimulus-container"">
                        <img src=""images/causal_sequence/saving_a_cat_causal/saving_a_cat_causal_1.png"" class=""exp-image"">
                        <div class=""question-area"">
                            <p style=""font-size: 20px; font-weight: bold; margin: 0;"">Is there a person in this image?</p>
                        </div>
                    </div>","0","main_causal_task","1","saving_a_cat_causal","","","",""
"","","","","","html-keyboard-response","113","655834","0.0-113.0","9060892AED46410BA5A5A42327AB920F","019ce76a-ff02-7d8e-a0ec-deaba026d3ff","019ce768-b048-7627-b827-888248f65c31","","null","
                    <div class=""stimulus-container"">
                        <img src=""images/causal_sequence/saving_a_cat_causal/saving_a_cat_causal_2.png"" class=""exp-image"">
                        <div class=""question-area""></div> 
                    </div>","null","","","","","","",""
"","","","","","html-button-response","114","658839","0.0-114.0","9060892AED46410BA5A5A42327AB920F","019ce76a-ff02-7d8e-a0ec-deaba026d3ff","019ce768-b048-7627-b827-888248f65c31","","null","
                    <div class=""stimulus-container"">
                        <img src=""images/causal_sequence/saving_a_cat_causal/saving_a_cat_causal_2.png"" class=""exp-image"">
                        <div class=""question-area"">
                            <p style=""font-size: 20px; font-weight: bold; margin: 0;"">Is there a person in this image?</p>
                        </div>
                    </div>","null","main_causal_task","2","saving_a_cat_causal","","","",""
"","","","","","html-keyboard-response","115","663842","0.0-115.0","9060892AED46410BA5A5A42327AB920F","019ce76a-ff02-7d8e-a0ec-deaba026d3ff","019ce768-b048-7627-b827-888248f65c31","","null","
                    <div class=""stimulus-container"">
                        <img src=""images/causal_sequence/saving_a_cat_causal/saving_a_cat_causal_3.png"" class=""exp-image"">
                        <div class=""question-area""></div> 
                    </div>","null","","","","","","",""
"","","","","","html-button-response","116","665028","0.0-116.0","9060892AED46410BA5A5A42327AB920F","019ce76a-ff02-7d8e-a0ec-deaba026d3ff","019ce768-b048-7627-b827-888248f65c31","","1185","
                    <div class=""stimulus-container"">
                        <img src=""images/causal_sequence/saving_a_cat_causal/saving_a_cat_causal_3.png"" class=""exp-image"">
                        <div class=""question-area"">
                            <p style=""font-size: 20px; font-weight: bold; margin: 0;"">Is there a person in this image?</p>
                        </div>
                    </div>","1","main_causal_task","3","saving_a_cat_causal","","","",""
"","","","","","html-keyboard-response","117","670031","0.0-117.0","9060892AED46410BA5A5A42327AB920F","019ce76a-ff02-7d8e-a0ec-deaba026d3ff","019ce768-b048-7627-b827-888248f65c31","","null","
                    <div class=""stimulus-container"">
                        <img src=""images/causal_sequence/saving_a_cat_causal/saving_a_cat_causal_4.png"" class=""exp-image"">
                        <div class=""question-area""></div> 
                    </div>","null","","","","","","",""
"","","","","","html-button-response","118","671823","0.0-118.0","9060892AED46410BA5A5A42327AB920F","019ce76a-ff02-7d8e-a0ec-deaba026d3ff","019ce768-b048-7627-b827-888248f65c31","","1790","
                    <div class=""stimulus-container"">
                        <img src=""images/causal_sequence/saving_a_cat_causal/saving_a_cat_causal_4.png"" class=""exp-image"">
                        <div class=""question-area"">
                            <p style=""font-size: 20px; font-weight: bold; margin: 0;"">Is there a person in this image?</p>
                        </div>
                    </div>","0","main_causal_task","4","saving_a_cat_causal","","","",""
"","","","","","html-keyboard-response","119","676825","0.0-119.0","9060892AED46410BA5A5A42327AB920F","019ce76a-ff02-7d8e-a0ec-deaba026d3ff","019ce768-b048-7627-b827-888248f65c31","","null","
                    <div class=""stimulus-container"">
                        <img src=""images/causal_sequence/saving_a_cat_causal/saving_a_cat_causal_5.png"" class=""exp-image"">
                        <div class=""question-area""></div> 
                    </div>","null","","","","","","",""
"","","","","","html-button-response","120","679241","0.0-120.0","9060892AED46410BA5A5A42327AB920F","019ce76a-ff02-7d8e-a0ec-deaba026d3ff","019ce768-b048-7627-b827-888248f65c31","","2414","
                    <div class=""stimulus-container"">
                        <img src=""images/causal_sequence/saving_a_cat_causal/saving_a_cat_causal_5.png"" class=""exp-image"">
                        <div class=""question-area"">
                            <p style=""font-size: 20px; font-weight: bold; margin: 0;"">Is there a person in this image?</p>
                        </div>
                    </div>","0","main_causal_task","5","saving_a_cat_causal","","","",""
"","","","","","html-keyboard-response","121","684251","0.0-121.0","9060892AED46410BA5A5A42327AB920F","019ce76a-ff02-7d8e-a0ec-deaba026d3ff","019ce768-b048-7627-b827-888248f65c31","","null","
                    <div class=""stimulus-container"">
                        <img src=""images/causal_sequence/saving_a_cat_causal/saving_a_cat_causal_6.png"" class=""exp-image"">
                        <div class=""question-area""></div> 
                    </div>","null","","","","","","",""
"","","","","","html-button-response","122","685352","0.0-122.0","9060892AED46410BA5A5A42327AB920F","019ce76a-ff02-7d8e-a0ec-deaba026d3ff","019ce768-b048-7627-b827-888248f65c31","","1097","
                    <div class=""stimulus-container"">
                        <img src=""images/causal_sequence/saving_a_cat_causal/saving_a_cat_causal_6.png"" class=""exp-image"">
                        <div class=""question-area"">
                            <p style=""font-size: 20px; font-weight: bold; margin: 0;"">Is there a person in this image?</p>
                        </div>
                    </div>","0","main_causal_task","6","saving_a_cat_causal","","","",""
"","","","","","html-keyboard-response","123","690364","0.0-123.0","9060892AED46410BA5A5A42327AB920F","019ce76a-ff02-7d8e-a0ec-deaba026d3ff","019ce768-b048-7627-b827-888248f65c31","","null","
                    <div class=""stimulus-container"">
                        <img src=""images/causal_sequence/saving_a_cat_causal/saving_a_cat_causal_7.png"" class=""exp-image"">
                        <div class=""question-area""></div> 
                    </div>","null","","","","","","",""
"","","","","","html-button-response","124","691736","0.0-124.0","9060892AED46410BA5A5A42327AB920F","019ce76a-ff02-7d8e-a0ec-deaba026d3ff","019ce768-b048-7627-b827-888248f65c31","","1370","
                    <div class=""stimulus-container"">
                        <img src=""images/causal_sequence/saving_a_cat_causal/saving_a_cat_causal_7.png"" class=""exp-image"">
                        <div class=""question-area"">
                            <p style=""font-size: 20px; font-weight: bold; margin: 0;"">Is there a person in this image?</p>
                        </div>
                    </div>","0","main_causal_task","7","saving_a_cat_causal","","","",""
"","","","","","html-keyboard-response","125","696743","0.0-125.0","9060892AED46410BA5A5A42327AB920F","019ce76a-ff02-7d8e-a0ec-deaba026d3ff","019ce768-b048-7627-b827-888248f65c31","","null","
                    <div class=""stimulus-container"">
                        <img src=""images/causal_sequence/saving_a_cat_causal/saving_a_cat_causal_8.png"" class=""exp-image"">
                        <div class=""question-area""></div> 
                    </div>","null","","","","","","",""
"","","","","","html-button-response","126","698560","0.0-126.0","9060892AED46410BA5A5A42327AB920F","019ce76a-ff02-7d8e-a0ec-deaba026d3ff","019ce768-b048-7627-b827-888248f65c31","","1815","
                    <div class=""stimulus-container"">
                        <img src=""images/causal_sequence/saving_a_cat_causal/saving_a_cat_causal_8.png"" class=""exp-image"">
                        <div class=""question-area"">
                            <p style=""font-size: 20px; font-weight: bold; margin: 0;"">Is there a person in this image?</p>
                        </div>
                    </div>","0","main_causal_task","8","saving_a_cat_causal","","","",""
"","","","","","html-keyboard-response","127","703577","0.0-127.0","9060892AED46410BA5A5A42327AB920F","019ce76a-ff02-7d8e-a0ec-deaba026d3ff","019ce768-b048-7627-b827-888248f65c31","","null","
                    <div class=""stimulus-container"">
                        <img src=""images/causal_sequence/saving_a_cat_causal/saving_a_cat_causal_9.png"" class=""exp-image"">
                        <div class=""question-area""></div> 
                    </div>","null","","","","","","",""
"","","","","","html-button-response","128","705050","0.0-128.0","9060892AED46410BA5A5A42327AB920F","019ce76a-ff02-7d8e-a0ec-deaba026d3ff","019ce768-b048-7627-b827-888248f65c31","","1472","
                    <div class=""stimulus-container"">
                        <img src=""images/causal_sequence/saving_a_cat_causal/saving_a_cat_causal_9.png"" class=""exp-image"">
                        <div class=""question-area"">
                            <p style=""font-size: 20px; font-weight: bold; margin: 0;"">Is there a person in this image?</p>
                        </div>
                    </div>","0","main_causal_task","9","saving_a_cat_causal","","","",""
"","","","","","instructions","129","706465","0.0-129.0","9060892AED46410BA5A5A42327AB920F","019ce76a-ff02-7d8e-a0ec-deaba026d3ff","019ce768-b048-7627-b827-888248f65c31","[{""page_index"":0,""viewing_time"":1413}]","1413","","","","","","","","",""
"","","","","","instructions","130","712932","0.0-130.0","9060892AED46410BA5A5A42327AB920F","019ce76a-ff02-7d8e-a0ec-deaba026d3ff","019ce768-b048-7627-b827-888248f65c31","[{""page_index"":0,""viewing_time"":6467}]","6467","","","","","","","","",""
"","","","","","html-keyboard-response","131","713937","0.0-131.0","9060892AED46410BA5A5A42327AB920F","019ce76a-ff02-7d8e-a0ec-deaba026d3ff","019ce768-b048-7627-b827-888248f65c31","","null","
        <div class=""stimulus-container"" style=""display: flex; align-items: center; justify-content: center; gap: 30px;"">
            <img src=""images/instructions/movie_1.png"" class=""exp-image"">
            <div style=""font-size: 40px; font-weight: bold; color: green; border: 5px solid green; padding: 25px; border-radius: 15px; background-color: #f0fff0;"">
                WORTH<br>$1
            </div>
        </div>
        <div class=""question-area""></div>","null","","","","","","",""
"","","","","","html-button-response","132","716078","0.0-132.0","9060892AED46410BA5A5A42327AB920F","019ce76a-ff02-7d8e-a0ec-deaba026d3ff","019ce768-b048-7627-b827-888248f65c31","","2139","
        <div class=""stimulus-container"" style=""display: flex; align-items: center; justify-content: center; gap: 30px;"">
            <img src=""images/instructions/movie_1.png"" class=""exp-image"">
            <div style=""font-size: 40px; font-weight: bold; color: green; border: 5px solid green; padding: 25px; border-radius: 15px; background-color: #f0fff0;"">
                WORTH<br>$1
            </div>
        </div>
        <div class=""question-area"">
            <p style=""font-size: 20px; font-weight: bold; margin: 0;"">Was there a person in this image?</p>
        </div>","0","","","","","","",""
"","","","","","instructions","133","718763","0.0-133.0","9060892AED46410BA5A5A42327AB920F","019ce76a-ff02-7d8e-a0ec-deaba026d3ff","019ce768-b048-7627-b827-888248f65c31","[{""page_index"":0,""viewing_time"":2684}]","2685","","","","","","","","",""
"","","","","","html-keyboard-response","134","728781","0.0-134.0","9060892AED46410BA5A5A42327AB920F","019ce76a-ff02-7d8e-a0ec-deaba026d3ff","019ce768-b048-7627-b827-888248f65c31","","null","
            <div class=""stimulus-container"" style=""display: flex; align-items: center; justify-content: center; gap: 30px;"">
                <img src=""images/causal_sequence/saving_a_cat_causal/saving_a_cat_causal_6.png"" class=""exp-image"">
                <div style=""font-size: 40px; font-weight: bold; color: green; border: 5px solid green; padding: 25px; border-radius: 15px; background-color: #f0fff0;"">
                    WORTH<br>$1
                </div>
            </div>
            <div class=""question-area""></div>","null","","","","","","",""
"","","","","","html-button-response","135","730233","0.0-135.0","9060892AED46410BA5A5A42327AB920F","019ce76a-ff02-7d8e-a0ec-deaba026d3ff","019ce768-b048-7627-b827-888248f65c31","","1450","
            <div class=""stimulus-container"" style=""display: flex; align-items: center; justify-content: center; gap: 30px;"">
                <img src=""images/causal_sequence/saving_a_cat_causal/saving_a_cat_causal_6.png"" class=""exp-image"">
                <div style=""font-size: 40px; font-weight: bold; color: green; border: 5px solid green; padding: 25px; border-radius: 15px; background-color: #f0fff0;"">
                    WORTH<br>$1
                </div>
            </div>
            <div class=""question-area"">
                <p style=""font-size: 20px; font-weight: bold; margin: 0;"">Was there a person in this image?</p>
            </div>","0","part2_value_learning","","saving_a_cat_causal","6","","",""
"","","","","","html-keyboard-response","136","740239","0.0-136.0","9060892AED46410BA5A5A42327AB920F","019ce76a-ff02-7d8e-a0ec-deaba026d3ff","019ce768-b048-7627-b827-888248f65c31","","null","
            <div class=""stimulus-container"" style=""display: flex; align-items: center; justify-content: center; gap: 30px;"">
                <img src=""images/causal_sequence/museum_causal/museum_causal_4.png"" class=""exp-image"">
                <div style=""font-size: 40px; font-weight: bold; color: green; border: 5px solid green; padding: 25px; border-radius: 15px; background-color: #f0fff0;"">
                    WORTH<br>$1
                </div>
            </div>
            <div class=""question-area""></div>","null","","","","","","",""
"","","","","","html-button-response","137","743016","0.0-137.0","9060892AED46410BA5A5A42327AB920F","019ce76a-ff02-7d8e-a0ec-deaba026d3ff","019ce768-b048-7627-b827-888248f65c31","","2776","
            <div class=""stimulus-container"" style=""display: flex; align-items: center; justify-content: center; gap: 30px;"">
                <img src=""images/causal_sequence/museum_causal/museum_causal_4.png"" class=""exp-image"">
                <div style=""font-size: 40px; font-weight: bold; color: green; border: 5px solid green; padding: 25px; border-radius: 15px; background-color: #f0fff0;"">
                    WORTH<br>$1
                </div>
            </div>
            <div class=""question-area"">
                <p style=""font-size: 20px; font-weight: bold; margin: 0;"">Was there a person in this image?</p>
            </div>","1","part2_value_learning","","museum_causal","4","","",""
"","","","","","html-keyboard-response","138","753025","0.0-138.0","9060892AED46410BA5A5A42327AB920F","019ce76a-ff02-7d8e-a0ec-deaba026d3ff","019ce768-b048-7627-b827-888248f65c31","","null","
            <div class=""stimulus-container"" style=""display: flex; align-items: center; justify-content: center; gap: 30px;"">
                <img src=""images/causal_sequence/dog_causal/dog_causal_5.png"" class=""exp-image"">
                <div style=""font-size: 40px; font-weight: bold; color: green; border: 5px solid green; padding: 25px; border-radius: 15px; background-color: #f0fff0;"">
                    WORTH<br>$1
                </div>
            </div>
            <div class=""question-area""></div>","null","","","","","","",""
"","","","","","html-button-response","139","755501","0.0-139.0","9060892AED46410BA5A5A42327AB920F","019ce76a-ff02-7d8e-a0ec-deaba026d3ff","019ce768-b048-7627-b827-888248f65c31","","2473","
            <div class=""stimulus-container"" style=""display: flex; align-items: center; justify-content: center; gap: 30px;"">
                <img src=""images/causal_sequence/dog_causal/dog_causal_5.png"" class=""exp-image"">
                <div style=""font-size: 40px; font-weight: bold; color: green; border: 5px solid green; padding: 25px; border-radius: 15px; background-color: #f0fff0;"">
                    WORTH<br>$1
                </div>
            </div>
            <div class=""question-area"">
                <p style=""font-size: 20px; font-weight: bold; margin: 0;"">Was there a person in this image?</p>
            </div>","0","part2_value_learning","","dog_causal","5","","",""
"","","","","","html-keyboard-response","140","765512","0.0-140.0","9060892AED46410BA5A5A42327AB920F","019ce76a-ff02-7d8e-a0ec-deaba026d3ff","019ce768-b048-7627-b827-888248f65c31","","null","
            <div class=""stimulus-container"" style=""display: flex; align-items: center; justify-content: center; gap: 30px;"">
                <img src=""images/causal_sequence/coin_causal/coin_causal_4.png"" class=""exp-image"">
                <div style=""font-size: 40px; font-weight: bold; color: green; border: 5px solid green; padding: 25px; border-radius: 15px; background-color: #f0fff0;"">
                    WORTH<br>$1
                </div>
            </div>
            <div class=""question-area""></div>","null","","","","","","",""
"","","","","","html-button-response","141","768517","0.0-141.0","9060892AED46410BA5A5A42327AB920F","019ce76a-ff02-7d8e-a0ec-deaba026d3ff","019ce768-b048-7627-b827-888248f65c31","","null","
            <div class=""stimulus-container"" style=""display: flex; align-items: center; justify-content: center; gap: 30px;"">
                <img src=""images/causal_sequence/coin_causal/coin_causal_4.png"" class=""exp-image"">
                <div style=""font-size: 40px; font-weight: bold; color: green; border: 5px solid green; padding: 25px; border-radius: 15px; background-color: #f0fff0;"">
                    WORTH<br>$1
                </div>
            </div>
            <div class=""question-area"">
                <p style=""font-size: 20px; font-weight: bold; margin: 0;"">Was there a person in this image?</p>
            </div>","null","part2_value_learning","","coin_causal","4","","",""
"","","","","","html-keyboard-response","142","778533","0.0-142.0","9060892AED46410BA5A5A42327AB920F","019ce76a-ff02-7d8e-a0ec-deaba026d3ff","019ce768-b048-7627-b827-888248f65c31","","null","
            <div class=""stimulus-container"" style=""display: flex; align-items: center; justify-content: center; gap: 30px;"">
                <img src=""images/causal_sequence/the_performance_causal/the_performance_causal_7.png"" class=""exp-image"">
                <div style=""font-size: 40px; font-weight: bold; color: green; border: 5px solid green; padding: 25px; border-radius: 15px; background-color: #f0fff0;"">
                    WORTH<br>$1
                </div>
            </div>
            <div class=""question-area""></div>","null","","","","","","",""
"","","","","","html-button-response","143","780070","0.0-143.0","9060892AED46410BA5A5A42327AB920F","019ce76a-ff02-7d8e-a0ec-deaba026d3ff","019ce768-b048-7627-b827-888248f65c31","","1535","
            <div class=""stimulus-container"" style=""display: flex; align-items: center; justify-content: center; gap: 30px;"">
                <img src=""images/causal_sequence/the_performance_causal/the_performance_causal_7.png"" class=""exp-image"">
                <div style=""font-size: 40px; font-weight: bold; color: green; border: 5px solid green; padding: 25px; border-radius: 15px; background-color: #f0fff0;"">
                    WORTH<br>$1
                </div>
            </div>
            <div class=""question-area"">
                <p style=""font-size: 20px; font-weight: bold; margin: 0;"">Was there a person in this image?</p>
            </div>","0","part2_value_learning","","the_performance_causal","7","","",""
"","","","","","html-keyboard-response","144","790074","0.0-144.0","9060892AED46410BA5A5A42327AB920F","019ce76a-ff02-7d8e-a0ec-deaba026d3ff","019ce768-b048-7627-b827-888248f65c31","","null","
            <div class=""stimulus-container"" style=""display: flex; align-items: center; justify-content: center; gap: 30px;"">
                <img src=""images/causal_sequence/package_causal/package_causal_5.png"" class=""exp-image"">
                <div style=""font-size: 40px; font-weight: bold; color: green; border: 5px solid green; padding: 25px; border-radius: 15px; background-color: #f0fff0;"">
                    WORTH<br>$1
                </div>
            </div>
            <div class=""question-area""></div>","null","","","","","","",""
"","","","","","html-button-response","145","792983","0.0-145.0","9060892AED46410BA5A5A42327AB920F","019ce76a-ff02-7d8e-a0ec-deaba026d3ff","019ce768-b048-7627-b827-888248f65c31","","2906","
            <div class=""stimulus-container"" style=""display: flex; align-items: center; justify-content: center; gap: 30px;"">
                <img src=""images/causal_sequence/package_causal/package_causal_5.png"" class=""exp-image"">
                <div style=""font-size: 40px; font-weight: bold; color: green; border: 5px solid green; padding: 25px; border-radius: 15px; background-color: #f0fff0;"">
                    WORTH<br>$1
                </div>
            </div>
            <div class=""question-area"">
                <p style=""font-size: 20px; font-weight: bold; margin: 0;"">Was there a person in this image?</p>
            </div>","0","part2_value_learning","","package_causal","5","","",""
"","","","","","instructions","146","838561","0.0-146.0","9060892AED46410BA5A5A42327AB920F","019ce76a-ff02-7d8e-a0ec-deaba026d3ff","019ce768-b048-7627-b827-888248f65c31","[{""page_index"":0,""viewing_time"":45577}]","45577","","","","","","","","",""
"","","","","","instructions","147","840267","0.0-147.0","9060892AED46410BA5A5A42327AB920F","019ce76a-ff02-7d8e-a0ec-deaba026d3ff","019ce768-b048-7627-b827-888248f65c31","[{""page_index"":0,""viewing_time"":1705}]","1706","","","","","","","","",""
"","","","","","html-keyboard-response","148","850281","0.0-148.0-0.0","9060892AED46410BA5A5A42327AB920F","019ce76a-ff02-7d8e-a0ec-deaba026d3ff","019ce768-b048-7627-b827-888248f65c31","","null","
                        <div style=""font-family: Arial; margin-bottom: 20px;""><h3>Which image is more valuable?</h3></div>
                        <div class=""stimulus-container"" style=""display: flex; width: 1100px; justify-content: center; gap: 50px;"">
                            <img src=""images/causal_sequence/saving_a_cat_causal/saving_a_cat_causal_8.png"" class=""exp-image"">
                            <img src=""images/causal_sequence/saving_a_cat_causal/saving_a_cat_causal_4.png"" class=""exp-image"">
                        </div>","null","","","","","","",""
"","","","","","html-button-response","149","852501","0.0-148.0-1.0","9060892AED46410BA5A5A42327AB920F","019ce76a-ff02-7d8e-a0ec-deaba026d3ff","019ce768-b048-7627-b827-888248f65c31","","2217","
                        <div style=""font-family: Arial; margin-bottom: 20px;""><h3>Which image is more valuable?</h3></div>
                        <div class=""stimulus-container"" style=""display: flex; width: 1100px; justify-content: center; gap: 50px;"">
                            <img src=""images/causal_sequence/saving_a_cat_causal/saving_a_cat_causal_8.png"" class=""exp-image"">
                            <img src=""images/causal_sequence/saving_a_cat_causal/saving_a_cat_causal_4.png"" class=""exp-image"">
                        </div>","1","part3_final_choice","","saving_a_cat_causal","","6","4","-2"
"","","","","","html-keyboard-response","150","862509","0.0-149.0-0.0","9060892AED46410BA5A5A42327AB920F","019ce76a-ff02-7d8e-a0ec-deaba026d3ff","019ce768-b048-7627-b827-888248f65c31","","null","
                        <div style=""font-family: Arial; margin-bottom: 20px;""><h3>Which image is more valuable?</h3></div>
                        <div class=""stimulus-container"" style=""display: flex; width: 1100px; justify-content: center; gap: 50px;"">
                            <img src=""images/causal_sequence/coin_causal/coin_causal_6.png"" class=""exp-image"">
                            <img src=""images/causal_sequence/coin_causal/coin_causal_2.png"" class=""exp-image"">
                        </div>","null","","","","","","",""
"","","","","","html-button-response","151","865105","0.0-149.0-1.0","9060892AED46410BA5A5A42327AB920F","019ce76a-ff02-7d8e-a0ec-deaba026d3ff","019ce768-b048-7627-b827-888248f65c31","","2594","
                        <div style=""font-family: Arial; margin-bottom: 20px;""><h3>Which image is more valuable?</h3></div>
                        <div class=""stimulus-container"" style=""display: flex; width: 1100px; justify-content: center; gap: 50px;"">
                            <img src=""images/causal_sequence/coin_causal/coin_causal_6.png"" class=""exp-image"">
                            <img src=""images/causal_sequence/coin_causal/coin_causal_2.png"" class=""exp-image"">
                        </div>","1","part3_final_choice","","coin_causal","","4","2","-2"
"","","","","","html-keyboard-response","152","875121","0.0-150.0-0.0","9060892AED46410BA5A5A42327AB920F","019ce76a-ff02-7d8e-a0ec-deaba026d3ff","019ce768-b048-7627-b827-888248f65c31","","null","
                        <div style=""font-family: Arial; margin-bottom: 20px;""><h3>Which image is more valuable?</h3></div>
                        <div class=""stimulus-container"" style=""display: flex; width: 1100px; justify-content: center; gap: 50px;"">
                            <img src=""images/causal_sequence/the_performance_causal/the_performance_causal_5.png"" class=""exp-image"">
                            <img src=""images/causal_sequence/the_performance_causal/the_performance_causal_9.png"" class=""exp-image"">
                        </div>","null","","","","","","",""
"","","","","","html-button-response","153","876887","0.0-150.0-1.0","9060892AED46410BA5A5A42327AB920F","019ce76a-ff02-7d8e-a0ec-deaba026d3ff","019ce768-b048-7627-b827-888248f65c31","","1764","
                        <div style=""font-family: Arial; margin-bottom: 20px;""><h3>Which image is more valuable?</h3></div>
                        <div class=""stimulus-container"" style=""display: flex; width: 1100px; justify-content: center; gap: 50px;"">
                            <img src=""images/causal_sequence/the_performance_causal/the_performance_causal_5.png"" class=""exp-image"">
                            <img src=""images/causal_sequence/the_performance_causal/the_performance_causal_9.png"" class=""exp-image"">
                        </div>","0","part3_final_choice","","the_performance_causal","","7","5","-2"
"","","","","","html-keyboard-response","154","886897","0.0-151.0-0.0","9060892AED46410BA5A5A42327AB920F","019ce76a-ff02-7d8e-a0ec-deaba026d3ff","019ce768-b048-7627-b827-888248f65c31","","null","
                        <div style=""font-family: Arial; margin-bottom: 20px;""><h3>Which image is more valuable?</h3></div>
                        <div class=""stimulus-container"" style=""display: flex; width: 1100px; justify-content: center; gap: 50px;"">
                            <img src=""images/causal_sequence/package_causal/package_causal_3.png"" class=""exp-image"">
                            <img src=""images/causal_sequence/package_causal/package_causal_7.png"" class=""exp-image"">
                        </div>","null","","","","","","",""
"","","","","","html-button-response","155","889020","0.0-151.0-1.0","9060892AED46410BA5A5A42327AB920F","019ce76a-ff02-7d8e-a0ec-deaba026d3ff","019ce768-b048-7627-b827-888248f65c31","","2121","
                        <div style=""font-family: Arial; margin-bottom: 20px;""><h3>Which image is more valuable?</h3></div>
                        <div class=""stimulus-container"" style=""display: flex; width: 1100px; justify-content: center; gap: 50px;"">
                            <img src=""images/causal_sequence/package_causal/package_causal_3.png"" class=""exp-image"">
                            <img src=""images/causal_sequence/package_causal/package_causal_7.png"" class=""exp-image"">
                        </div>","1","part3_final_choice","","package_causal","","5","7","2"
"","","","","","html-keyboard-response","156","899035","0.0-152.0-0.0","9060892AED46410BA5A5A42327AB920F","019ce76a-ff02-7d8e-a0ec-deaba026d3ff","019ce768-b048-7627-b827-888248f65c31","","null","
                        <div style=""font-family: Arial; margin-bottom: 20px;""><h3>Which image is more valuable?</h3></div>
                        <div class=""stimulus-container"" style=""display: flex; width: 1100px; justify-content: center; gap: 50px;"">
                            <img src=""images/causal_sequence/museum_causal/museum_causal_6.png"" class=""exp-image"">
                            <img src=""images/causal_sequence/museum_causal/museum_causal_2.png"" class=""exp-image"">
                        </div>","null","","","","","","",""
"","","","","","html-button-response","157","902493","0.0-152.0-1.0","9060892AED46410BA5A5A42327AB920F","019ce76a-ff02-7d8e-a0ec-deaba026d3ff","019ce768-b048-7627-b827-888248f65c31","","3456","
                        <div style=""font-family: Arial; margin-bottom: 20px;""><h3>Which image is more valuable?</h3></div>
                        <div class=""stimulus-container"" style=""display: flex; width: 1100px; justify-content: center; gap: 50px;"">
                            <img src=""images/causal_sequence/museum_causal/museum_causal_6.png"" class=""exp-image"">
                            <img src=""images/causal_sequence/museum_causal/museum_causal_2.png"" class=""exp-image"">
                        </div>","1","part3_final_choice","","museum_causal","","4","2","-2"
"","","","","","html-keyboard-response","158","912511","0.0-153.0-0.0","9060892AED46410BA5A5A42327AB920F","019ce76a-ff02-7d8e-a0ec-deaba026d3ff","019ce768-b048-7627-b827-888248f65c31","","null","
                        <div style=""font-family: Arial; margin-bottom: 20px;""><h3>Which image is more valuable?</h3></div>
                        <div class=""stimulus-container"" style=""display: flex; width: 1100px; justify-content: center; gap: 50px;"">
                            <img src=""images/causal_sequence/dog_causal/dog_causal_3.png"" class=""exp-image"">
                            <img src=""images/causal_sequence/dog_causal/dog_causal_7.png"" class=""exp-image"">
                        </div>","null","","","","","","",""
"","","","","","html-button-response","159","914716","0.0-153.0-1.0","9060892AED46410BA5A5A42327AB920F","019ce76a-ff02-7d8e-a0ec-deaba026d3ff","019ce768-b048-7627-b827-888248f65c31","","2203","
                        <div style=""font-family: Arial; margin-bottom: 20px;""><h3>Which image is more valuable?</h3></div>
                        <div class=""stimulus-container"" style=""display: flex; width: 1100px; justify-content: center; gap: 50px;"">
                            <img src=""images/causal_sequence/dog_causal/dog_causal_3.png"" class=""exp-image"">
                            <img src=""images/causal_sequence/dog_causal/dog_causal_7.png"" class=""exp-image"">
                        </div>","0","part3_final_choice","","dog_causal","","5","3","-2"
"","","","","","survey-text","160","952040","0.0-154.0","9060892AED46410BA5A5A42327AB920F","019ce76a-ff02-7d8e-a0ec-deaba026d3ff","019ce768-b048-7627-b827-888248f65c31","","37310","","{""gender"":""MALE"",""age"":""24"",""decision_strategy"":""Based on the sentimentality and meaning of the image"",""consistency_check"":""My reasoning changed based on the impact of the images""}","demographics_and_strategy","","","","","",""
"","","","","","instructions","161","956189","0.0-155.0","9060892AED46410BA5A5A42327AB920F","019ce76a-ff02-7d8e-a0ec-deaba026d3ff","019ce768-b048-7627-b827-888248f65c31","[{""page_index"":0,""viewing_time"":4148}]","4149","","","","","","","","",""
