"success","timeout","failed_images","failed_audio","failed_video","trial_type","trial_index","time_elapsed","internal_node_id","subject_id","study_id","session_id","view_history","rt","stimulus","response","task","folder","sequence_type","valuable_image_index","reward_type","distance_from_x","target_X","chosen_image_index","is_x_plus_dist","correct_choice"
"true","false","[]","[]","[]","preload","0","5779","0.0-0.0","CB125AEE0EB94364877AC3502C21BA7C","019db616-3883-7750-811d-9ec6cab6afa2","019db609-2a35-76b9-807a-e0c4c153f4bb","","","","","","","","","","","","","",""
"","","","","","instructions","1","10783","0.0-1.0","CB125AEE0EB94364877AC3502C21BA7C","019db616-3883-7750-811d-9ec6cab6afa2","019db609-2a35-76b9-807a-e0c4c153f4bb","[{""page_index"":0,""viewing_time"":5002}]","5003","","","","","","","","","","","",""
"","","","","","instructions","2","17531","0.0-2.0","CB125AEE0EB94364877AC3502C21BA7C","019db616-3883-7750-811d-9ec6cab6afa2","019db609-2a35-76b9-807a-e0c4c153f4bb","[{""page_index"":0,""viewing_time"":6745}]","6746","","","","","","","","","","","",""
"true","","","","","fullscreen","3","21030","0.0-3.0","CB125AEE0EB94364877AC3502C21BA7C","019db616-3883-7750-811d-9ec6cab6afa2","019db609-2a35-76b9-807a-e0c4c153f4bb","","2482","","","","","","","","","","","",""
"","","","","","instructions","4","30261","0.0-4.0","CB125AEE0EB94364877AC3502C21BA7C","019db616-3883-7750-811d-9ec6cab6afa2","019db609-2a35-76b9-807a-e0c4c153f4bb","[{""page_index"":0,""viewing_time"":9228}]","9230","","","","","","","","","","","",""
"","","","","","instructions","5","39179","0.0-5.0","CB125AEE0EB94364877AC3502C21BA7C","019db616-3883-7750-811d-9ec6cab6afa2","019db609-2a35-76b9-807a-e0c4c153f4bb","[{""page_index"":0,""viewing_time"":8915}]","8916","","","","","","","","","","","",""
"","","","","","html-button-response","6","48058","0.0-6.0","CB125AEE0EB94364877AC3502C21BA7C","019db616-3883-7750-811d-9ec6cab6afa2","019db609-2a35-76b9-807a-e0c4c153f4bb","","8872","
            <div class=""stimulus-container"">
                <img src=""images/schematic_sequence/flight_scheme/flight_scheme_6.png"" class=""exp-image"">
                <div class=""question-area"">
                    <p style=""font-size: 20px; font-weight: bold;"">Click the button to reveal the image value</p>
                </div>
            </div>","0","part2_active_reveal_click","flight_scheme","","","","","","","",""
"","","","","","html-keyboard-response","7","56073","0.0-7.0","CB125AEE0EB94364877AC3502C21BA7C","019db616-3883-7750-811d-9ec6cab6afa2","019db609-2a35-76b9-807a-e0c4c153f4bb","","null","
            <div class=""stimulus-container"" style=""display: flex; align-items: center; justify-content: center; gap: 40px;"">
                <img src=""images/schematic_sequence/flight_scheme/flight_scheme_6.png"" class=""exp-image"">
                <div style=""text-align: center;"">
                    <img src=""images/gray.png"" style=""width: 150px; height: 150px; border: 5px solid grey; border-radius: 15px;"">
                    <p style=""color: grey; font-weight: bold; font-size: 28px; margin-top: 15px;"">NEUTRAL VALUE</p>
                </div>
            </div>","null","part2_value_learning","flight_scheme","schematic_sequence","6","neutral","","","","",""
"","","","","","html-keyboard-response","8","61089","0.0-8.0","CB125AEE0EB94364877AC3502C21BA7C","019db616-3883-7750-811d-9ec6cab6afa2","019db609-2a35-76b9-807a-e0c4c153f4bb","","null","<div style=""background-color: white; width: 100vw; height: 100vh;""></div>","null","","","","","","","","","",""
"","","","","","html-button-response","9","64119","0.0-9.0","CB125AEE0EB94364877AC3502C21BA7C","019db616-3883-7750-811d-9ec6cab6afa2","019db609-2a35-76b9-807a-e0c4c153f4bb","","3026","
            <div class=""stimulus-container"">
                <img src=""images/schematic_sequence/supermarket_scheme/supermarket_scheme_6.png"" class=""exp-image"">
                <div class=""question-area"">
                    <p style=""font-size: 20px; font-weight: bold;"">Click the button to reveal the image value</p>
                </div>
            </div>","0","part2_active_reveal_click","supermarket_scheme","","","","","","","",""
"","","","","","html-keyboard-response","10","72132","0.0-10.0","CB125AEE0EB94364877AC3502C21BA7C","019db616-3883-7750-811d-9ec6cab6afa2","019db609-2a35-76b9-807a-e0c4c153f4bb","","null","
            <div class=""stimulus-container"" style=""display: flex; align-items: center; justify-content: center; gap: 40px;"">
                <img src=""images/schematic_sequence/supermarket_scheme/supermarket_scheme_6.png"" class=""exp-image"">
                <div style=""text-align: center;"">
                    <img src=""images/dollar.png"" style=""width: 150px; height: 150px; border: 5px solid green; border-radius: 15px;"">
                    <p style=""color: green; font-weight: bold; font-size: 28px; margin-top: 15px;"">WORTH MONEY</p>
                </div>
            </div>","null","part2_value_learning","supermarket_scheme","schematic_sequence","6","valuable","","","","",""
"","","","","","html-keyboard-response","11","77135","0.0-11.0","CB125AEE0EB94364877AC3502C21BA7C","019db616-3883-7750-811d-9ec6cab6afa2","019db609-2a35-76b9-807a-e0c4c153f4bb","","null","<div style=""background-color: white; width: 100vw; height: 100vh;""></div>","null","","","","","","","","","",""
"","","","","","html-button-response","12","81854","0.0-12.0","CB125AEE0EB94364877AC3502C21BA7C","019db616-3883-7750-811d-9ec6cab6afa2","019db609-2a35-76b9-807a-e0c4c153f4bb","","4718","
            <div class=""stimulus-container"">
                <img src=""images/semantic_sequence/physical_activity_semantic/physical_activity_semantic_4.png"" class=""exp-image"">
                <div class=""question-area"">
                    <p style=""font-size: 20px; font-weight: bold;"">Click the button to reveal the image value</p>
                </div>
            </div>","0","part2_active_reveal_click","physical_activity_semantic","","","","","","","",""
"","","","","","html-keyboard-response","13","89862","0.0-13.0","CB125AEE0EB94364877AC3502C21BA7C","019db616-3883-7750-811d-9ec6cab6afa2","019db609-2a35-76b9-807a-e0c4c153f4bb","","null","
            <div class=""stimulus-container"" style=""display: flex; align-items: center; justify-content: center; gap: 40px;"">
                <img src=""images/semantic_sequence/physical_activity_semantic/physical_activity_semantic_4.png"" class=""exp-image"">
                <div style=""text-align: center;"">
                    <img src=""images/dollar.png"" style=""width: 150px; height: 150px; border: 5px solid green; border-radius: 15px;"">
                    <p style=""color: green; font-weight: bold; font-size: 28px; margin-top: 15px;"">WORTH MONEY</p>
                </div>
            </div>","null","part2_value_learning","physical_activity_semantic","semantic_sequence","4","valuable","","","","",""
"","","","","","html-keyboard-response","14","94876","0.0-14.0","CB125AEE0EB94364877AC3502C21BA7C","019db616-3883-7750-811d-9ec6cab6afa2","019db609-2a35-76b9-807a-e0c4c153f4bb","","null","<div style=""background-color: white; width: 100vw; height: 100vh;""></div>","null","","","","","","","","","",""
"","","","","","html-button-response","15","98910","0.0-15.0","CB125AEE0EB94364877AC3502C21BA7C","019db616-3883-7750-811d-9ec6cab6afa2","019db609-2a35-76b9-807a-e0c4c153f4bb","","4032","
            <div class=""stimulus-container"">
                <img src=""images/semantic_sequence/kitchen_operations_semantic/kitchen_operations_semantic_6.png"" class=""exp-image"">
                <div class=""question-area"">
                    <p style=""font-size: 20px; font-weight: bold;"">Click the button to reveal the image value</p>
                </div>
            </div>","0","part2_active_reveal_click","kitchen_operations_semantic","","","","","","","",""
"","","","","","html-keyboard-response","16","106925","0.0-16.0","CB125AEE0EB94364877AC3502C21BA7C","019db616-3883-7750-811d-9ec6cab6afa2","019db609-2a35-76b9-807a-e0c4c153f4bb","","null","
            <div class=""stimulus-container"" style=""display: flex; align-items: center; justify-content: center; gap: 40px;"">
                <img src=""images/semantic_sequence/kitchen_operations_semantic/kitchen_operations_semantic_6.png"" class=""exp-image"">
                <div style=""text-align: center;"">
                    <img src=""images/gray.png"" style=""width: 150px; height: 150px; border: 5px solid grey; border-radius: 15px;"">
                    <p style=""color: grey; font-weight: bold; font-size: 28px; margin-top: 15px;"">NEUTRAL VALUE</p>
                </div>
            </div>","null","part2_value_learning","kitchen_operations_semantic","semantic_sequence","6","neutral","","","","",""
"","","","","","html-keyboard-response","17","111935","0.0-17.0","CB125AEE0EB94364877AC3502C21BA7C","019db616-3883-7750-811d-9ec6cab6afa2","019db609-2a35-76b9-807a-e0c4c153f4bb","","null","<div style=""background-color: white; width: 100vw; height: 100vh;""></div>","null","","","","","","","","","",""
"","","","","","html-button-response","18","140987","0.0-18.0","CB125AEE0EB94364877AC3502C21BA7C","019db616-3883-7750-811d-9ec6cab6afa2","019db609-2a35-76b9-807a-e0c4c153f4bb","","29049","
            <div class=""stimulus-container"">
                <img src=""images/schematic_sequence/hotel_scheme/hotel_scheme_6.png"" class=""exp-image"">
                <div class=""question-area"">
                    <p style=""font-size: 20px; font-weight: bold;"">Click the button to reveal the image value</p>
                </div>
            </div>","0","part2_active_reveal_click","hotel_scheme","","","","","","","",""
"","","","","","html-keyboard-response","19","148996","0.0-19.0","CB125AEE0EB94364877AC3502C21BA7C","019db616-3883-7750-811d-9ec6cab6afa2","019db609-2a35-76b9-807a-e0c4c153f4bb","","null","
            <div class=""stimulus-container"" style=""display: flex; align-items: center; justify-content: center; gap: 40px;"">
                <img src=""images/schematic_sequence/hotel_scheme/hotel_scheme_6.png"" class=""exp-image"">
                <div style=""text-align: center;"">
                    <img src=""images/dollar.png"" style=""width: 150px; height: 150px; border: 5px solid green; border-radius: 15px;"">
                    <p style=""color: green; font-weight: bold; font-size: 28px; margin-top: 15px;"">WORTH MONEY</p>
                </div>
            </div>","null","part2_value_learning","hotel_scheme","schematic_sequence","6","valuable","","","","",""
"","","","","","html-keyboard-response","20","154012","0.0-20.0","CB125AEE0EB94364877AC3502C21BA7C","019db616-3883-7750-811d-9ec6cab6afa2","019db609-2a35-76b9-807a-e0c4c153f4bb","","null","<div style=""background-color: white; width: 100vw; height: 100vh;""></div>","null","","","","","","","","","",""
"","","","","","html-button-response","21","159991","0.0-21.0","CB125AEE0EB94364877AC3502C21BA7C","019db616-3883-7750-811d-9ec6cab6afa2","019db609-2a35-76b9-807a-e0c4c153f4bb","","5977","
            <div class=""stimulus-container"">
                <img src=""images/semantic_sequence/self_care_activities_semantic/self_care_activities_semantic_7.png"" class=""exp-image"">
                <div class=""question-area"">
                    <p style=""font-size: 20px; font-weight: bold;"">Click the button to reveal the image value</p>
                </div>
            </div>","0","part2_active_reveal_click","self_care_activities_semantic","","","","","","","",""
"","","","","","html-keyboard-response","22","168007","0.0-22.0","CB125AEE0EB94364877AC3502C21BA7C","019db616-3883-7750-811d-9ec6cab6afa2","019db609-2a35-76b9-807a-e0c4c153f4bb","","null","
            <div class=""stimulus-container"" style=""display: flex; align-items: center; justify-content: center; gap: 40px;"">
                <img src=""images/semantic_sequence/self_care_activities_semantic/self_care_activities_semantic_7.png"" class=""exp-image"">
                <div style=""text-align: center;"">
                    <img src=""images/dollar.png"" style=""width: 150px; height: 150px; border: 5px solid green; border-radius: 15px;"">
                    <p style=""color: green; font-weight: bold; font-size: 28px; margin-top: 15px;"">WORTH MONEY</p>
                </div>
            </div>","null","part2_value_learning","self_care_activities_semantic","semantic_sequence","7","valuable","","","","",""
"","","","","","html-keyboard-response","23","173008","0.0-23.0","CB125AEE0EB94364877AC3502C21BA7C","019db616-3883-7750-811d-9ec6cab6afa2","019db609-2a35-76b9-807a-e0c4c153f4bb","","null","<div style=""background-color: white; width: 100vw; height: 100vh;""></div>","null","","","","","","","","","",""
"","","","","","html-button-response","24","181301","0.0-24.0","CB125AEE0EB94364877AC3502C21BA7C","019db616-3883-7750-811d-9ec6cab6afa2","019db609-2a35-76b9-807a-e0c4c153f4bb","","8290","
            <div class=""stimulus-container"">
                <img src=""images/semantic_sequence/housework_semantic/housework_semantic_5.png"" class=""exp-image"">
                <div class=""question-area"">
                    <p style=""font-size: 20px; font-weight: bold;"">Click the button to reveal the image value</p>
                </div>
            </div>","0","part2_active_reveal_click","housework_semantic","","","","","","","",""
"","","","","","html-keyboard-response","25","189304","0.0-25.0","CB125AEE0EB94364877AC3502C21BA7C","019db616-3883-7750-811d-9ec6cab6afa2","019db609-2a35-76b9-807a-e0c4c153f4bb","","null","
            <div class=""stimulus-container"" style=""display: flex; align-items: center; justify-content: center; gap: 40px;"">
                <img src=""images/semantic_sequence/housework_semantic/housework_semantic_5.png"" class=""exp-image"">
                <div style=""text-align: center;"">
                    <img src=""images/gray.png"" style=""width: 150px; height: 150px; border: 5px solid grey; border-radius: 15px;"">
                    <p style=""color: grey; font-weight: bold; font-size: 28px; margin-top: 15px;"">NEUTRAL VALUE</p>
                </div>
            </div>","null","part2_value_learning","housework_semantic","semantic_sequence","5","neutral","","","","",""
"","","","","","html-keyboard-response","26","194308","0.0-26.0","CB125AEE0EB94364877AC3502C21BA7C","019db616-3883-7750-811d-9ec6cab6afa2","019db609-2a35-76b9-807a-e0c4c153f4bb","","null","<div style=""background-color: white; width: 100vw; height: 100vh;""></div>","null","","","","","","","","","",""
"","","","","","html-button-response","27","209392","0.0-27.0","CB125AEE0EB94364877AC3502C21BA7C","019db616-3883-7750-811d-9ec6cab6afa2","019db609-2a35-76b9-807a-e0c4c153f4bb","","15083","
            <div class=""stimulus-container"">
                <img src=""images/semantic_sequence/maintaining_a_car_semantic/maintaining_a_car_semantic_6.png"" class=""exp-image"">
                <div class=""question-area"">
                    <p style=""font-size: 20px; font-weight: bold;"">Click the button to reveal the image value</p>
                </div>
            </div>","0","part2_active_reveal_click","maintaining_a_car_semantic","","","","","","","",""
"","","","","","html-keyboard-response","28","217404","0.0-28.0","CB125AEE0EB94364877AC3502C21BA7C","019db616-3883-7750-811d-9ec6cab6afa2","019db609-2a35-76b9-807a-e0c4c153f4bb","","null","
            <div class=""stimulus-container"" style=""display: flex; align-items: center; justify-content: center; gap: 40px;"">
                <img src=""images/semantic_sequence/maintaining_a_car_semantic/maintaining_a_car_semantic_6.png"" class=""exp-image"">
                <div style=""text-align: center;"">
                    <img src=""images/dollar.png"" style=""width: 150px; height: 150px; border: 5px solid green; border-radius: 15px;"">
                    <p style=""color: green; font-weight: bold; font-size: 28px; margin-top: 15px;"">WORTH MONEY</p>
                </div>
            </div>","null","part2_value_learning","maintaining_a_car_semantic","semantic_sequence","6","valuable","","","","",""
"","","","","","html-keyboard-response","29","222413","0.0-29.0","CB125AEE0EB94364877AC3502C21BA7C","019db616-3883-7750-811d-9ec6cab6afa2","019db609-2a35-76b9-807a-e0c4c153f4bb","","null","<div style=""background-color: white; width: 100vw; height: 100vh;""></div>","null","","","","","","","","","",""
"","","","","","html-button-response","30","232315","0.0-30.0","CB125AEE0EB94364877AC3502C21BA7C","019db616-3883-7750-811d-9ec6cab6afa2","019db609-2a35-76b9-807a-e0c4c153f4bb","","9899","
            <div class=""stimulus-container"">
                <img src=""images/schematic_sequence/restaurant_scheme/restaurant_scheme_7.png"" class=""exp-image"">
                <div class=""question-area"">
                    <p style=""font-size: 20px; font-weight: bold;"">Click the button to reveal the image value</p>
                </div>
            </div>","0","part2_active_reveal_click","restaurant_scheme","","","","","","","",""
"","","","","","html-keyboard-response","31","240328","0.0-31.0","CB125AEE0EB94364877AC3502C21BA7C","019db616-3883-7750-811d-9ec6cab6afa2","019db609-2a35-76b9-807a-e0c4c153f4bb","","null","
            <div class=""stimulus-container"" style=""display: flex; align-items: center; justify-content: center; gap: 40px;"">
                <img src=""images/schematic_sequence/restaurant_scheme/restaurant_scheme_7.png"" class=""exp-image"">
                <div style=""text-align: center;"">
                    <img src=""images/gray.png"" style=""width: 150px; height: 150px; border: 5px solid grey; border-radius: 15px;"">
                    <p style=""color: grey; font-weight: bold; font-size: 28px; margin-top: 15px;"">NEUTRAL VALUE</p>
                </div>
            </div>","null","part2_value_learning","restaurant_scheme","schematic_sequence","7","neutral","","","","",""
"","","","","","html-keyboard-response","32","245344","0.0-32.0","CB125AEE0EB94364877AC3502C21BA7C","019db616-3883-7750-811d-9ec6cab6afa2","019db609-2a35-76b9-807a-e0c4c153f4bb","","null","<div style=""background-color: white; width: 100vw; height: 100vh;""></div>","null","","","","","","","","","",""
"","","","","","html-button-response","33","253453","0.0-33.0","CB125AEE0EB94364877AC3502C21BA7C","019db616-3883-7750-811d-9ec6cab6afa2","019db609-2a35-76b9-807a-e0c4c153f4bb","","8107","
            <div class=""stimulus-container"">
                <img src=""images/schematic_sequence/interview_scheme/interview_scheme_6.png"" class=""exp-image"">
                <div class=""question-area"">
                    <p style=""font-size: 20px; font-weight: bold;"">Click the button to reveal the image value</p>
                </div>
            </div>","0","part2_active_reveal_click","interview_scheme","","","","","","","",""
"","","","","","html-keyboard-response","34","261460","0.0-34.0","CB125AEE0EB94364877AC3502C21BA7C","019db616-3883-7750-811d-9ec6cab6afa2","019db609-2a35-76b9-807a-e0c4c153f4bb","","null","
            <div class=""stimulus-container"" style=""display: flex; align-items: center; justify-content: center; gap: 40px;"">
                <img src=""images/schematic_sequence/interview_scheme/interview_scheme_6.png"" class=""exp-image"">
                <div style=""text-align: center;"">
                    <img src=""images/gray.png"" style=""width: 150px; height: 150px; border: 5px solid grey; border-radius: 15px;"">
                    <p style=""color: grey; font-weight: bold; font-size: 28px; margin-top: 15px;"">NEUTRAL VALUE</p>
                </div>
            </div>","null","part2_value_learning","interview_scheme","schematic_sequence","6","neutral","","","","",""
"","","","","","html-keyboard-response","35","266470","0.0-35.0","CB125AEE0EB94364877AC3502C21BA7C","019db616-3883-7750-811d-9ec6cab6afa2","019db609-2a35-76b9-807a-e0c4c153f4bb","","null","<div style=""background-color: white; width: 100vw; height: 100vh;""></div>","null","","","","","","","","","",""
"","","","","","html-button-response","36","274043","0.0-36.0","CB125AEE0EB94364877AC3502C21BA7C","019db616-3883-7750-811d-9ec6cab6afa2","019db609-2a35-76b9-807a-e0c4c153f4bb","","7571","
            <div class=""stimulus-container"">
                <img src=""images/semantic_sequence/visiting_cities_semantic/visiting_cities_semantic_7.png"" class=""exp-image"">
                <div class=""question-area"">
                    <p style=""font-size: 20px; font-weight: bold;"">Click the button to reveal the image value</p>
                </div>
            </div>","0","part2_active_reveal_click","visiting_cities_semantic","","","","","","","",""
"","","","","","html-keyboard-response","37","282061","0.0-37.0","CB125AEE0EB94364877AC3502C21BA7C","019db616-3883-7750-811d-9ec6cab6afa2","019db609-2a35-76b9-807a-e0c4c153f4bb","","null","
            <div class=""stimulus-container"" style=""display: flex; align-items: center; justify-content: center; gap: 40px;"">
                <img src=""images/semantic_sequence/visiting_cities_semantic/visiting_cities_semantic_7.png"" class=""exp-image"">
                <div style=""text-align: center;"">
                    <img src=""images/gray.png"" style=""width: 150px; height: 150px; border: 5px solid grey; border-radius: 15px;"">
                    <p style=""color: grey; font-weight: bold; font-size: 28px; margin-top: 15px;"">NEUTRAL VALUE</p>
                </div>
            </div>","null","part2_value_learning","visiting_cities_semantic","semantic_sequence","7","neutral","","","","",""
"","","","","","html-keyboard-response","38","287067","0.0-38.0","CB125AEE0EB94364877AC3502C21BA7C","019db616-3883-7750-811d-9ec6cab6afa2","019db609-2a35-76b9-807a-e0c4c153f4bb","","null","<div style=""background-color: white; width: 100vw; height: 100vh;""></div>","null","","","","","","","","","",""
"","","","","","html-button-response","39","295233","0.0-39.0","CB125AEE0EB94364877AC3502C21BA7C","019db616-3883-7750-811d-9ec6cab6afa2","019db609-2a35-76b9-807a-e0c4c153f4bb","","8163","
            <div class=""stimulus-container"">
                <img src=""images/schematic_sequence/dinner_party_scheme/dinner_party_scheme_5.png"" class=""exp-image"">
                <div class=""question-area"">
                    <p style=""font-size: 20px; font-weight: bold;"">Click the button to reveal the image value</p>
                </div>
            </div>","0","part2_active_reveal_click","dinner_party_scheme","","","","","","","",""
"","","","","","html-keyboard-response","40","303241","0.0-40.0","CB125AEE0EB94364877AC3502C21BA7C","019db616-3883-7750-811d-9ec6cab6afa2","019db609-2a35-76b9-807a-e0c4c153f4bb","","null","
            <div class=""stimulus-container"" style=""display: flex; align-items: center; justify-content: center; gap: 40px;"">
                <img src=""images/schematic_sequence/dinner_party_scheme/dinner_party_scheme_5.png"" class=""exp-image"">
                <div style=""text-align: center;"">
                    <img src=""images/dollar.png"" style=""width: 150px; height: 150px; border: 5px solid green; border-radius: 15px;"">
                    <p style=""color: green; font-weight: bold; font-size: 28px; margin-top: 15px;"">WORTH MONEY</p>
                </div>
            </div>","null","part2_value_learning","dinner_party_scheme","schematic_sequence","5","valuable","","","","",""
"","","","","","html-keyboard-response","41","308254","0.0-41.0","CB125AEE0EB94364877AC3502C21BA7C","019db616-3883-7750-811d-9ec6cab6afa2","019db609-2a35-76b9-807a-e0c4c153f4bb","","null","<div style=""background-color: white; width: 100vw; height: 100vh;""></div>","null","","","","","","","","","",""
"","","","","","instructions","42","329923","0.0-42.0","CB125AEE0EB94364877AC3502C21BA7C","019db616-3883-7750-811d-9ec6cab6afa2","019db609-2a35-76b9-807a-e0c4c153f4bb","[{""page_index"":0,""viewing_time"":21667}]","21668","","","","","","","","","","","",""
"","","","","","html-keyboard-response","43","332940","0.0-43.0-0.0","CB125AEE0EB94364877AC3502C21BA7C","019db616-3883-7750-811d-9ec6cab6afa2","019db609-2a35-76b9-807a-e0c4c153f4bb","","null","
                            <div style=""font-family: Arial; margin-bottom: 20px;""><h3>Which image is worth <b>more money</b>?</h3></div>
                            <div class=""stimulus-container"" style=""display: flex; width: 800px; justify-content: center; gap: 30px;"">
                                <img src=""images/schematic_sequence/dinner_party_scheme/dinner_party_scheme_4.png"" class=""small-image"">
                                <img src=""images/schematic_sequence/dinner_party_scheme/dinner_party_scheme_6.png"" class=""small-image"">
                            </div>","null","","","","","","","","","",""
"","","","","","html-button-response","44","335723","0.0-43.0-1.0","CB125AEE0EB94364877AC3502C21BA7C","019db616-3883-7750-811d-9ec6cab6afa2","019db609-2a35-76b9-807a-e0c4c153f4bb","","2780","
                            <div style=""font-family: Arial; margin-bottom: 20px;""><h3>Which image is worth <b>more money</b>?</h3></div>
                            <div class=""stimulus-container"" style=""display: flex; width: 800px; justify-content: center; gap: 30px;"">
                                <img src=""images/schematic_sequence/dinner_party_scheme/dinner_party_scheme_4.png"" class=""small-image"">
                                <img src=""images/schematic_sequence/dinner_party_scheme/dinner_party_scheme_6.png"" class=""small-image"">
                            </div>","1","part3_choice_neighbors","dinner_party_scheme","schematic_sequence","","","1","5","6","1",""
"","","","","","html-keyboard-response","45","338727","0.0-44.0-0.0","CB125AEE0EB94364877AC3502C21BA7C","019db616-3883-7750-811d-9ec6cab6afa2","019db609-2a35-76b9-807a-e0c4c153f4bb","","null","
                            <div style=""font-family: Arial; margin-bottom: 20px;""><h3>Which image is worth <b>more money</b>?</h3></div>
                            <div class=""stimulus-container"" style=""display: flex; width: 800px; justify-content: center; gap: 30px;"">
                                <img src=""images/schematic_sequence/interview_scheme/interview_scheme_4.png"" class=""small-image"">
                                <img src=""images/schematic_sequence/interview_scheme/interview_scheme_8.png"" class=""small-image"">
                            </div>","null","","","","","","","","","",""
"","","","","","html-button-response","46","343817","0.0-44.0-1.0","CB125AEE0EB94364877AC3502C21BA7C","019db616-3883-7750-811d-9ec6cab6afa2","019db609-2a35-76b9-807a-e0c4c153f4bb","","5089","
                            <div style=""font-family: Arial; margin-bottom: 20px;""><h3>Which image is worth <b>more money</b>?</h3></div>
                            <div class=""stimulus-container"" style=""display: flex; width: 800px; justify-content: center; gap: 30px;"">
                                <img src=""images/schematic_sequence/interview_scheme/interview_scheme_4.png"" class=""small-image"">
                                <img src=""images/schematic_sequence/interview_scheme/interview_scheme_8.png"" class=""small-image"">
                            </div>","0","part3_choice_neighbors","interview_scheme","schematic_sequence","","","2","6","4","0",""
"","","","","","html-keyboard-response","47","346823","0.0-45.0-0.0","CB125AEE0EB94364877AC3502C21BA7C","019db616-3883-7750-811d-9ec6cab6afa2","019db609-2a35-76b9-807a-e0c4c153f4bb","","null","
                            <div style=""font-family: Arial; margin-bottom: 20px;""><h3>Which image is worth <b>more money</b>?</h3></div>
                            <div class=""stimulus-container"" style=""display: flex; width: 800px; justify-content: center; gap: 30px;"">
                                <img src=""images/semantic_sequence/self_care_activities_semantic/self_care_activities_semantic_5.png"" class=""small-image"">
                                <img src=""images/semantic_sequence/self_care_activities_semantic/self_care_activities_semantic_9.png"" class=""small-image"">
                            </div>","null","","","","","","","","","",""
"","","","","","html-button-response","48","347896","0.0-45.0-1.0","CB125AEE0EB94364877AC3502C21BA7C","019db616-3883-7750-811d-9ec6cab6afa2","019db609-2a35-76b9-807a-e0c4c153f4bb","","1071","
                            <div style=""font-family: Arial; margin-bottom: 20px;""><h3>Which image is worth <b>more money</b>?</h3></div>
                            <div class=""stimulus-container"" style=""display: flex; width: 800px; justify-content: center; gap: 30px;"">
                                <img src=""images/semantic_sequence/self_care_activities_semantic/self_care_activities_semantic_5.png"" class=""small-image"">
                                <img src=""images/semantic_sequence/self_care_activities_semantic/self_care_activities_semantic_9.png"" class=""small-image"">
                            </div>","1","part3_choice_neighbors","self_care_activities_semantic","semantic_sequence","","","2","7","9","1",""
"","","","","","html-keyboard-response","49","350902","0.0-46.0-0.0","CB125AEE0EB94364877AC3502C21BA7C","019db616-3883-7750-811d-9ec6cab6afa2","019db609-2a35-76b9-807a-e0c4c153f4bb","","null","
                            <div style=""font-family: Arial; margin-bottom: 20px;""><h3>Which image is worth <b>more money</b>?</h3></div>
                            <div class=""stimulus-container"" style=""display: flex; width: 800px; justify-content: center; gap: 30px;"">
                                <img src=""images/semantic_sequence/kitchen_operations_semantic/kitchen_operations_semantic_8.png"" class=""small-image"">
                                <img src=""images/semantic_sequence/kitchen_operations_semantic/kitchen_operations_semantic_4.png"" class=""small-image"">
                            </div>","null","","","","","","","","","",""
"","","","","","html-button-response","50","352386","0.0-46.0-1.0","CB125AEE0EB94364877AC3502C21BA7C","019db616-3883-7750-811d-9ec6cab6afa2","019db609-2a35-76b9-807a-e0c4c153f4bb","","1481","
                            <div style=""font-family: Arial; margin-bottom: 20px;""><h3>Which image is worth <b>more money</b>?</h3></div>
                            <div class=""stimulus-container"" style=""display: flex; width: 800px; justify-content: center; gap: 30px;"">
                                <img src=""images/semantic_sequence/kitchen_operations_semantic/kitchen_operations_semantic_8.png"" class=""small-image"">
                                <img src=""images/semantic_sequence/kitchen_operations_semantic/kitchen_operations_semantic_4.png"" class=""small-image"">
                            </div>","1","part3_choice_neighbors","kitchen_operations_semantic","semantic_sequence","","","2","6","4","0",""
"","","","","","html-keyboard-response","51","355390","0.0-47.0-0.0","CB125AEE0EB94364877AC3502C21BA7C","019db616-3883-7750-811d-9ec6cab6afa2","019db609-2a35-76b9-807a-e0c4c153f4bb","","null","
                            <div style=""font-family: Arial; margin-bottom: 20px;""><h3>Which image is worth <b>more money</b>?</h3></div>
                            <div class=""stimulus-container"" style=""display: flex; width: 800px; justify-content: center; gap: 30px;"">
                                <img src=""images/schematic_sequence/dinner_party_scheme/dinner_party_scheme_7.png"" class=""small-image"">
                                <img src=""images/schematic_sequence/dinner_party_scheme/dinner_party_scheme_3.png"" class=""small-image"">
                            </div>","null","","","","","","","","","",""
"","","","","","html-button-response","52","356074","0.0-47.0-1.0","CB125AEE0EB94364877AC3502C21BA7C","019db616-3883-7750-811d-9ec6cab6afa2","019db609-2a35-76b9-807a-e0c4c153f4bb","","683","
                            <div style=""font-family: Arial; margin-bottom: 20px;""><h3>Which image is worth <b>more money</b>?</h3></div>
                            <div class=""stimulus-container"" style=""display: flex; width: 800px; justify-content: center; gap: 30px;"">
                                <img src=""images/schematic_sequence/dinner_party_scheme/dinner_party_scheme_7.png"" class=""small-image"">
                                <img src=""images/schematic_sequence/dinner_party_scheme/dinner_party_scheme_3.png"" class=""small-image"">
                            </div>","1","part3_choice_neighbors","dinner_party_scheme","schematic_sequence","","","2","5","3","0",""
"","","","","","html-keyboard-response","53","359085","0.0-48.0-0.0","CB125AEE0EB94364877AC3502C21BA7C","019db616-3883-7750-811d-9ec6cab6afa2","019db609-2a35-76b9-807a-e0c4c153f4bb","","null","
                            <div style=""font-family: Arial; margin-bottom: 20px;""><h3>Which image is worth <b>more money</b>?</h3></div>
                            <div class=""stimulus-container"" style=""display: flex; width: 800px; justify-content: center; gap: 30px;"">
                                <img src=""images/schematic_sequence/supermarket_scheme/supermarket_scheme_3.png"" class=""small-image"">
                                <img src=""images/schematic_sequence/supermarket_scheme/supermarket_scheme_9.png"" class=""small-image"">
                            </div>","null","","","","","","","","","",""
"","","","","","html-button-response","54","360234","0.0-48.0-1.0","CB125AEE0EB94364877AC3502C21BA7C","019db616-3883-7750-811d-9ec6cab6afa2","019db609-2a35-76b9-807a-e0c4c153f4bb","","1147","
                            <div style=""font-family: Arial; margin-bottom: 20px;""><h3>Which image is worth <b>more money</b>?</h3></div>
                            <div class=""stimulus-container"" style=""display: flex; width: 800px; justify-content: center; gap: 30px;"">
                                <img src=""images/schematic_sequence/supermarket_scheme/supermarket_scheme_3.png"" class=""small-image"">
                                <img src=""images/schematic_sequence/supermarket_scheme/supermarket_scheme_9.png"" class=""small-image"">
                            </div>","1","part3_choice_neighbors","supermarket_scheme","schematic_sequence","","","3","6","9","1",""
"","","","","","html-keyboard-response","55","363239","0.0-49.0-0.0","CB125AEE0EB94364877AC3502C21BA7C","019db616-3883-7750-811d-9ec6cab6afa2","019db609-2a35-76b9-807a-e0c4c153f4bb","","null","
                            <div style=""font-family: Arial; margin-bottom: 20px;""><h3>Which image is worth <b>more money</b>?</h3></div>
                            <div class=""stimulus-container"" style=""display: flex; width: 800px; justify-content: center; gap: 30px;"">
                                <img src=""images/schematic_sequence/supermarket_scheme/supermarket_scheme_7.png"" class=""small-image"">
                                <img src=""images/schematic_sequence/supermarket_scheme/supermarket_scheme_5.png"" class=""small-image"">
                            </div>","null","","","","","","","","","",""
"","","","","","html-button-response","56","364294","0.0-49.0-1.0","CB125AEE0EB94364877AC3502C21BA7C","019db616-3883-7750-811d-9ec6cab6afa2","019db609-2a35-76b9-807a-e0c4c153f4bb","","1054","
                            <div style=""font-family: Arial; margin-bottom: 20px;""><h3>Which image is worth <b>more money</b>?</h3></div>
                            <div class=""stimulus-container"" style=""display: flex; width: 800px; justify-content: center; gap: 30px;"">
                                <img src=""images/schematic_sequence/supermarket_scheme/supermarket_scheme_7.png"" class=""small-image"">
                                <img src=""images/schematic_sequence/supermarket_scheme/supermarket_scheme_5.png"" class=""small-image"">
                            </div>","0","part3_choice_neighbors","supermarket_scheme","schematic_sequence","","","1","6","7","1",""
"","","","","","html-keyboard-response","57","367303","0.0-50.0-0.0","CB125AEE0EB94364877AC3502C21BA7C","019db616-3883-7750-811d-9ec6cab6afa2","019db609-2a35-76b9-807a-e0c4c153f4bb","","null","
                            <div style=""font-family: Arial; margin-bottom: 20px;""><h3>Which image is worth <b>more money</b>?</h3></div>
                            <div class=""stimulus-container"" style=""display: flex; width: 800px; justify-content: center; gap: 30px;"">
                                <img src=""images/semantic_sequence/kitchen_operations_semantic/kitchen_operations_semantic_9.png"" class=""small-image"">
                                <img src=""images/semantic_sequence/kitchen_operations_semantic/kitchen_operations_semantic_3.png"" class=""small-image"">
                            </div>","null","","","","","","","","","",""
"","","","","","html-button-response","58","384841","0.0-50.0-1.0","CB125AEE0EB94364877AC3502C21BA7C","019db616-3883-7750-811d-9ec6cab6afa2","019db609-2a35-76b9-807a-e0c4c153f4bb","","17536","
                            <div style=""font-family: Arial; margin-bottom: 20px;""><h3>Which image is worth <b>more money</b>?</h3></div>
                            <div class=""stimulus-container"" style=""display: flex; width: 800px; justify-content: center; gap: 30px;"">
                                <img src=""images/semantic_sequence/kitchen_operations_semantic/kitchen_operations_semantic_9.png"" class=""small-image"">
                                <img src=""images/semantic_sequence/kitchen_operations_semantic/kitchen_operations_semantic_3.png"" class=""small-image"">
                            </div>","1","part3_choice_neighbors","kitchen_operations_semantic","semantic_sequence","","","3","6","3","0",""
"","","","","","html-keyboard-response","59","387854","0.0-51.0-0.0","CB125AEE0EB94364877AC3502C21BA7C","019db616-3883-7750-811d-9ec6cab6afa2","019db609-2a35-76b9-807a-e0c4c153f4bb","","null","<div style=""font-family: Arial; margin-bottom: 20px;""><h3>Which image is worth <b>more money?</h3></div>
                            <div class=""stimulus-container"" style=""display: flex; width: 800px; justify-content: center; gap: 30px;"">
                                <img src=""images/schematic_sequence/dinner_party_scheme/dinner_party_scheme_5.png"" class=""small-image"">
                                <img src=""images/semantic_sequence/housework_semantic/housework_semantic_5.png"" class=""small-image"">
                            </div>","null","","","","","","","","","",""
"","","","","","html-button-response","60","402852","0.0-51.0-1.0","CB125AEE0EB94364877AC3502C21BA7C","019db616-3883-7750-811d-9ec6cab6afa2","019db609-2a35-76b9-807a-e0c4c153f4bb","","14995","<div style=""font-family: Arial; margin-bottom: 20px;""><h3>Which image is worth <b>more money</b>?</h3></div>
                            <div class=""stimulus-container"" style=""display: flex; width: 800px; justify-content: center; gap: 30px;"">
                                <img src=""images/schematic_sequence/dinner_party_scheme/dinner_party_scheme_5.png"" class=""small-image"">
                                <img src=""images/semantic_sequence/housework_semantic/housework_semantic_5.png"" class=""small-image"">
                            </div>","1","part3_valuable_vs_neutral_direct","","","","","","","","","false"
"","","","","","html-keyboard-response","61","405865","0.0-52.0-0.0","CB125AEE0EB94364877AC3502C21BA7C","019db616-3883-7750-811d-9ec6cab6afa2","019db609-2a35-76b9-807a-e0c4c153f4bb","","null","
                            <div style=""font-family: Arial; margin-bottom: 20px;""><h3>Which image is worth <b>more money</b>?</h3></div>
                            <div class=""stimulus-container"" style=""display: flex; width: 800px; justify-content: center; gap: 30px;"">
                                <img src=""images/semantic_sequence/visiting_cities_semantic/visiting_cities_semantic_6.png"" class=""small-image"">
                                <img src=""images/semantic_sequence/visiting_cities_semantic/visiting_cities_semantic_8.png"" class=""small-image"">
                            </div>","null","","","","","","","","","",""
"","","","","","html-button-response","62","413658","0.0-52.0-1.0","CB125AEE0EB94364877AC3502C21BA7C","019db616-3883-7750-811d-9ec6cab6afa2","019db609-2a35-76b9-807a-e0c4c153f4bb","","7791","
                            <div style=""font-family: Arial; margin-bottom: 20px;""><h3>Which image is worth <b>more money</b>?</h3></div>
                            <div class=""stimulus-container"" style=""display: flex; width: 800px; justify-content: center; gap: 30px;"">
                                <img src=""images/semantic_sequence/visiting_cities_semantic/visiting_cities_semantic_6.png"" class=""small-image"">
                                <img src=""images/semantic_sequence/visiting_cities_semantic/visiting_cities_semantic_8.png"" class=""small-image"">
                            </div>","0","part3_choice_neighbors","visiting_cities_semantic","semantic_sequence","","","1","7","6","0",""
"","","","","","html-keyboard-response","63","416675","0.0-53.0-0.0","CB125AEE0EB94364877AC3502C21BA7C","019db616-3883-7750-811d-9ec6cab6afa2","019db609-2a35-76b9-807a-e0c4c153f4bb","","null","
                            <div style=""font-family: Arial; margin-bottom: 20px;""><h3>Which image is worth <b>more money</b>?</h3></div>
                            <div class=""stimulus-container"" style=""display: flex; width: 800px; justify-content: center; gap: 30px;"">
                                <img src=""images/schematic_sequence/interview_scheme/interview_scheme_9.png"" class=""small-image"">
                                <img src=""images/schematic_sequence/interview_scheme/interview_scheme_3.png"" class=""small-image"">
                            </div>","null","","","","","","","","","",""
"","","","","","html-button-response","64","419628","0.0-53.0-1.0","CB125AEE0EB94364877AC3502C21BA7C","019db616-3883-7750-811d-9ec6cab6afa2","019db609-2a35-76b9-807a-e0c4c153f4bb","","2950","
                            <div style=""font-family: Arial; margin-bottom: 20px;""><h3>Which image is worth <b>more money</b>?</h3></div>
                            <div class=""stimulus-container"" style=""display: flex; width: 800px; justify-content: center; gap: 30px;"">
                                <img src=""images/schematic_sequence/interview_scheme/interview_scheme_9.png"" class=""small-image"">
                                <img src=""images/schematic_sequence/interview_scheme/interview_scheme_3.png"" class=""small-image"">
                            </div>","1","part3_choice_neighbors","interview_scheme","schematic_sequence","","","3","6","3","0",""
"","","","","","html-keyboard-response","65","422641","0.0-54.0-0.0","CB125AEE0EB94364877AC3502C21BA7C","019db616-3883-7750-811d-9ec6cab6afa2","019db609-2a35-76b9-807a-e0c4c153f4bb","","null","<div style=""font-family: Arial; margin-bottom: 20px;""><h3>Which image is worth <b>more money?</h3></div>
                            <div class=""stimulus-container"" style=""display: flex; width: 800px; justify-content: center; gap: 30px;"">
                                <img src=""images/schematic_sequence/flight_scheme/flight_scheme_6.png"" class=""small-image"">
                                <img src=""images/semantic_sequence/maintaining_a_car_semantic/maintaining_a_car_semantic_6.png"" class=""small-image"">
                            </div>","null","","","","","","","","","",""
"","","","","","html-button-response","66","425046","0.0-54.0-1.0","CB125AEE0EB94364877AC3502C21BA7C","019db616-3883-7750-811d-9ec6cab6afa2","019db609-2a35-76b9-807a-e0c4c153f4bb","","2402","<div style=""font-family: Arial; margin-bottom: 20px;""><h3>Which image is worth <b>more money</b>?</h3></div>
                            <div class=""stimulus-container"" style=""display: flex; width: 800px; justify-content: center; gap: 30px;"">
                                <img src=""images/schematic_sequence/flight_scheme/flight_scheme_6.png"" class=""small-image"">
                                <img src=""images/semantic_sequence/maintaining_a_car_semantic/maintaining_a_car_semantic_6.png"" class=""small-image"">
                            </div>","1","part3_valuable_vs_neutral_direct","","","","","","","","","true"
"","","","","","html-keyboard-response","67","428056","0.0-55.0-0.0","CB125AEE0EB94364877AC3502C21BA7C","019db616-3883-7750-811d-9ec6cab6afa2","019db609-2a35-76b9-807a-e0c4c153f4bb","","null","<div style=""font-family: Arial; margin-bottom: 20px;""><h3>Which image is worth <b>more money?</h3></div>
                            <div class=""stimulus-container"" style=""display: flex; width: 800px; justify-content: center; gap: 30px;"">
                                <img src=""images/semantic_sequence/physical_activity_semantic/physical_activity_semantic_4.png"" class=""small-image"">
                                <img src=""images/semantic_sequence/kitchen_operations_semantic/kitchen_operations_semantic_6.png"" class=""small-image"">
                            </div>","null","","","","","","","","","",""
"","","","","","html-button-response","68","429807","0.0-55.0-1.0","CB125AEE0EB94364877AC3502C21BA7C","019db616-3883-7750-811d-9ec6cab6afa2","019db609-2a35-76b9-807a-e0c4c153f4bb","","1748","<div style=""font-family: Arial; margin-bottom: 20px;""><h3>Which image is worth <b>more money</b>?</h3></div>
                            <div class=""stimulus-container"" style=""display: flex; width: 800px; justify-content: center; gap: 30px;"">
                                <img src=""images/semantic_sequence/physical_activity_semantic/physical_activity_semantic_4.png"" class=""small-image"">
                                <img src=""images/semantic_sequence/kitchen_operations_semantic/kitchen_operations_semantic_6.png"" class=""small-image"">
                            </div>","0","part3_valuable_vs_neutral_direct","","","","","","","","","true"
"","","","","","html-keyboard-response","69","432818","0.0-56.0-0.0","CB125AEE0EB94364877AC3502C21BA7C","019db616-3883-7750-811d-9ec6cab6afa2","019db609-2a35-76b9-807a-e0c4c153f4bb","","null","
                            <div style=""font-family: Arial; margin-bottom: 20px;""><h3>Which image is worth <b>more money</b>?</h3></div>
                            <div class=""stimulus-container"" style=""display: flex; width: 800px; justify-content: center; gap: 30px;"">
                                <img src=""images/semantic_sequence/maintaining_a_car_semantic/maintaining_a_car_semantic_4.png"" class=""small-image"">
                                <img src=""images/semantic_sequence/maintaining_a_car_semantic/maintaining_a_car_semantic_8.png"" class=""small-image"">
                            </div>","null","","","","","","","","","",""
"","","","","","html-button-response","70","435258","0.0-56.0-1.0","CB125AEE0EB94364877AC3502C21BA7C","019db616-3883-7750-811d-9ec6cab6afa2","019db609-2a35-76b9-807a-e0c4c153f4bb","","2438","
                            <div style=""font-family: Arial; margin-bottom: 20px;""><h3>Which image is worth <b>more money</b>?</h3></div>
                            <div class=""stimulus-container"" style=""display: flex; width: 800px; justify-content: center; gap: 30px;"">
                                <img src=""images/semantic_sequence/maintaining_a_car_semantic/maintaining_a_car_semantic_4.png"" class=""small-image"">
                                <img src=""images/semantic_sequence/maintaining_a_car_semantic/maintaining_a_car_semantic_8.png"" class=""small-image"">
                            </div>","1","part3_choice_neighbors","maintaining_a_car_semantic","semantic_sequence","","","2","6","8","1",""
"","","","","","html-keyboard-response","71","438268","0.0-57.0-0.0","CB125AEE0EB94364877AC3502C21BA7C","019db616-3883-7750-811d-9ec6cab6afa2","019db609-2a35-76b9-807a-e0c4c153f4bb","","null","
                            <div style=""font-family: Arial; margin-bottom: 20px;""><h3>Which image is worth <b>more money</b>?</h3></div>
                            <div class=""stimulus-container"" style=""display: flex; width: 800px; justify-content: center; gap: 30px;"">
                                <img src=""images/schematic_sequence/flight_scheme/flight_scheme_4.png"" class=""small-image"">
                                <img src=""images/schematic_sequence/flight_scheme/flight_scheme_8.png"" class=""small-image"">
                            </div>","null","","","","","","","","","",""
"","","","","","html-button-response","72","442183","0.0-57.0-1.0","CB125AEE0EB94364877AC3502C21BA7C","019db616-3883-7750-811d-9ec6cab6afa2","019db609-2a35-76b9-807a-e0c4c153f4bb","","3914","
                            <div style=""font-family: Arial; margin-bottom: 20px;""><h3>Which image is worth <b>more money</b>?</h3></div>
                            <div class=""stimulus-container"" style=""display: flex; width: 800px; justify-content: center; gap: 30px;"">
                                <img src=""images/schematic_sequence/flight_scheme/flight_scheme_4.png"" class=""small-image"">
                                <img src=""images/schematic_sequence/flight_scheme/flight_scheme_8.png"" class=""small-image"">
                            </div>","1","part3_choice_neighbors","flight_scheme","schematic_sequence","","","2","6","8","1",""
"","","","","","html-keyboard-response","73","445195","0.0-58.0-0.0","CB125AEE0EB94364877AC3502C21BA7C","019db616-3883-7750-811d-9ec6cab6afa2","019db609-2a35-76b9-807a-e0c4c153f4bb","","null","
                            <div style=""font-family: Arial; margin-bottom: 20px;""><h3>Which image is worth <b>more money</b>?</h3></div>
                            <div class=""stimulus-container"" style=""display: flex; width: 800px; justify-content: center; gap: 30px;"">
                                <img src=""images/schematic_sequence/interview_scheme/interview_scheme_5.png"" class=""small-image"">
                                <img src=""images/schematic_sequence/interview_scheme/interview_scheme_7.png"" class=""small-image"">
                            </div>","null","","","","","","","","","",""
"","","","","","html-button-response","74","445849","0.0-58.0-1.0","CB125AEE0EB94364877AC3502C21BA7C","019db616-3883-7750-811d-9ec6cab6afa2","019db609-2a35-76b9-807a-e0c4c153f4bb","","652","
                            <div style=""font-family: Arial; margin-bottom: 20px;""><h3>Which image is worth <b>more money</b>?</h3></div>
                            <div class=""stimulus-container"" style=""display: flex; width: 800px; justify-content: center; gap: 30px;"">
                                <img src=""images/schematic_sequence/interview_scheme/interview_scheme_5.png"" class=""small-image"">
                                <img src=""images/schematic_sequence/interview_scheme/interview_scheme_7.png"" class=""small-image"">
                            </div>","1","part3_choice_neighbors","interview_scheme","schematic_sequence","","","1","6","7","1",""
"","","","","","html-keyboard-response","75","448852","0.0-59.0-0.0","CB125AEE0EB94364877AC3502C21BA7C","019db616-3883-7750-811d-9ec6cab6afa2","019db609-2a35-76b9-807a-e0c4c153f4bb","","null","
                            <div style=""font-family: Arial; margin-bottom: 20px;""><h3>Which image is worth <b>more money</b>?</h3></div>
                            <div class=""stimulus-container"" style=""display: flex; width: 800px; justify-content: center; gap: 30px;"">
                                <img src=""images/schematic_sequence/flight_scheme/flight_scheme_5.png"" class=""small-image"">
                                <img src=""images/schematic_sequence/flight_scheme/flight_scheme_7.png"" class=""small-image"">
                            </div>","null","","","","","","","","","",""
"","","","","","html-button-response","76","450110","0.0-59.0-1.0","CB125AEE0EB94364877AC3502C21BA7C","019db616-3883-7750-811d-9ec6cab6afa2","019db609-2a35-76b9-807a-e0c4c153f4bb","","1257","
                            <div style=""font-family: Arial; margin-bottom: 20px;""><h3>Which image is worth <b>more money</b>?</h3></div>
                            <div class=""stimulus-container"" style=""display: flex; width: 800px; justify-content: center; gap: 30px;"">
                                <img src=""images/schematic_sequence/flight_scheme/flight_scheme_5.png"" class=""small-image"">
                                <img src=""images/schematic_sequence/flight_scheme/flight_scheme_7.png"" class=""small-image"">
                            </div>","0","part3_choice_neighbors","flight_scheme","schematic_sequence","","","1","6","5","0",""
"","","","","","html-keyboard-response","77","453115","0.0-60.0-0.0","CB125AEE0EB94364877AC3502C21BA7C","019db616-3883-7750-811d-9ec6cab6afa2","019db609-2a35-76b9-807a-e0c4c153f4bb","","null","
                            <div style=""font-family: Arial; margin-bottom: 20px;""><h3>Which image is worth <b>more money</b>?</h3></div>
                            <div class=""stimulus-container"" style=""display: flex; width: 800px; justify-content: center; gap: 30px;"">
                                <img src=""images/semantic_sequence/visiting_cities_semantic/visiting_cities_semantic_4.png"" class=""small-image"">
                                <img src=""images/semantic_sequence/visiting_cities_semantic/visiting_cities_semantic_ten.png"" class=""small-image"">
                            </div>","null","","","","","","","","","",""
"","","","","","html-button-response","78","453593","0.0-60.0-1.0","CB125AEE0EB94364877AC3502C21BA7C","019db616-3883-7750-811d-9ec6cab6afa2","019db609-2a35-76b9-807a-e0c4c153f4bb","","476","
                            <div style=""font-family: Arial; margin-bottom: 20px;""><h3>Which image is worth <b>more money</b>?</h3></div>
                            <div class=""stimulus-container"" style=""display: flex; width: 800px; justify-content: center; gap: 30px;"">
                                <img src=""images/semantic_sequence/visiting_cities_semantic/visiting_cities_semantic_4.png"" class=""small-image"">
                                <img src=""images/semantic_sequence/visiting_cities_semantic/visiting_cities_semantic_ten.png"" class=""small-image"">
                            </div>","1","part3_choice_neighbors","visiting_cities_semantic","semantic_sequence","","","3","7","10","1",""
"","","","","","html-keyboard-response","79","456608","0.0-61.0-0.0","CB125AEE0EB94364877AC3502C21BA7C","019db616-3883-7750-811d-9ec6cab6afa2","019db609-2a35-76b9-807a-e0c4c153f4bb","","null","
                            <div style=""font-family: Arial; margin-bottom: 20px;""><h3>Which image is worth <b>more money</b>?</h3></div>
                            <div class=""stimulus-container"" style=""display: flex; width: 800px; justify-content: center; gap: 30px;"">
                                <img src=""images/schematic_sequence/hotel_scheme/hotel_scheme_5.png"" class=""small-image"">
                                <img src=""images/schematic_sequence/hotel_scheme/hotel_scheme_7.png"" class=""small-image"">
                            </div>","null","","","","","","","","","",""
"","","","","","html-button-response","80","457028","0.0-61.0-1.0","CB125AEE0EB94364877AC3502C21BA7C","019db616-3883-7750-811d-9ec6cab6afa2","019db609-2a35-76b9-807a-e0c4c153f4bb","","419","
                            <div style=""font-family: Arial; margin-bottom: 20px;""><h3>Which image is worth <b>more money</b>?</h3></div>
                            <div class=""stimulus-container"" style=""display: flex; width: 800px; justify-content: center; gap: 30px;"">
                                <img src=""images/schematic_sequence/hotel_scheme/hotel_scheme_5.png"" class=""small-image"">
                                <img src=""images/schematic_sequence/hotel_scheme/hotel_scheme_7.png"" class=""small-image"">
                            </div>","1","part3_choice_neighbors","hotel_scheme","schematic_sequence","","","1","6","7","1",""
"","","","","","html-keyboard-response","81","460044","0.0-62.0-0.0","CB125AEE0EB94364877AC3502C21BA7C","019db616-3883-7750-811d-9ec6cab6afa2","019db609-2a35-76b9-807a-e0c4c153f4bb","","null","
                            <div style=""font-family: Arial; margin-bottom: 20px;""><h3>Which image is worth <b>more money</b>?</h3></div>
                            <div class=""stimulus-container"" style=""display: flex; width: 800px; justify-content: center; gap: 30px;"">
                                <img src=""images/schematic_sequence/dinner_party_scheme/dinner_party_scheme_8.png"" class=""small-image"">
                                <img src=""images/schematic_sequence/dinner_party_scheme/dinner_party_scheme_2.png"" class=""small-image"">
                            </div>","null","","","","","","","","","",""
"","","","","","html-button-response","82","466659","0.0-62.0-1.0","CB125AEE0EB94364877AC3502C21BA7C","019db616-3883-7750-811d-9ec6cab6afa2","019db609-2a35-76b9-807a-e0c4c153f4bb","","6614","
                            <div style=""font-family: Arial; margin-bottom: 20px;""><h3>Which image is worth <b>more money</b>?</h3></div>
                            <div class=""stimulus-container"" style=""display: flex; width: 800px; justify-content: center; gap: 30px;"">
                                <img src=""images/schematic_sequence/dinner_party_scheme/dinner_party_scheme_8.png"" class=""small-image"">
                                <img src=""images/schematic_sequence/dinner_party_scheme/dinner_party_scheme_2.png"" class=""small-image"">
                            </div>","1","part3_choice_neighbors","dinner_party_scheme","schematic_sequence","","","3","5","2","0",""
"","","","","","html-keyboard-response","83","469663","0.0-63.0-0.0","CB125AEE0EB94364877AC3502C21BA7C","019db616-3883-7750-811d-9ec6cab6afa2","019db609-2a35-76b9-807a-e0c4c153f4bb","","null","<div style=""font-family: Arial; margin-bottom: 20px;""><h3>Which image is worth <b>more money?</h3></div>
                            <div class=""stimulus-container"" style=""display: flex; width: 800px; justify-content: center; gap: 30px;"">
                                <img src=""images/semantic_sequence/self_care_activities_semantic/self_care_activities_semantic_7.png"" class=""small-image"">
                                <img src=""images/schematic_sequence/interview_scheme/interview_scheme_6.png"" class=""small-image"">
                            </div>","null","","","","","","","","","",""
"","","","","","html-button-response","84","471946","0.0-63.0-1.0","CB125AEE0EB94364877AC3502C21BA7C","019db616-3883-7750-811d-9ec6cab6afa2","019db609-2a35-76b9-807a-e0c4c153f4bb","","2280","<div style=""font-family: Arial; margin-bottom: 20px;""><h3>Which image is worth <b>more money</b>?</h3></div>
                            <div class=""stimulus-container"" style=""display: flex; width: 800px; justify-content: center; gap: 30px;"">
                                <img src=""images/semantic_sequence/self_care_activities_semantic/self_care_activities_semantic_7.png"" class=""small-image"">
                                <img src=""images/schematic_sequence/interview_scheme/interview_scheme_6.png"" class=""small-image"">
                            </div>","0","part3_valuable_vs_neutral_direct","","","","","","","","","true"
"","","","","","html-keyboard-response","85","474964","0.0-64.0-0.0","CB125AEE0EB94364877AC3502C21BA7C","019db616-3883-7750-811d-9ec6cab6afa2","019db609-2a35-76b9-807a-e0c4c153f4bb","","null","
                            <div style=""font-family: Arial; margin-bottom: 20px;""><h3>Which image is worth <b>more money</b>?</h3></div>
                            <div class=""stimulus-container"" style=""display: flex; width: 800px; justify-content: center; gap: 30px;"">
                                <img src=""images/schematic_sequence/restaurant_scheme/restaurant_scheme_6.png"" class=""small-image"">
                                <img src=""images/schematic_sequence/restaurant_scheme/restaurant_scheme_8.png"" class=""small-image"">
                            </div>","null","","","","","","","","","",""
"","","","","","html-button-response","86","490622","0.0-64.0-1.0","CB125AEE0EB94364877AC3502C21BA7C","019db616-3883-7750-811d-9ec6cab6afa2","019db609-2a35-76b9-807a-e0c4c153f4bb","","15656","
                            <div style=""font-family: Arial; margin-bottom: 20px;""><h3>Which image is worth <b>more money</b>?</h3></div>
                            <div class=""stimulus-container"" style=""display: flex; width: 800px; justify-content: center; gap: 30px;"">
                                <img src=""images/schematic_sequence/restaurant_scheme/restaurant_scheme_6.png"" class=""small-image"">
                                <img src=""images/schematic_sequence/restaurant_scheme/restaurant_scheme_8.png"" class=""small-image"">
                            </div>","1","part3_choice_neighbors","restaurant_scheme","schematic_sequence","","","1","7","8","1",""
"","","","","","html-keyboard-response","87","493625","0.0-65.0-0.0","CB125AEE0EB94364877AC3502C21BA7C","019db616-3883-7750-811d-9ec6cab6afa2","019db609-2a35-76b9-807a-e0c4c153f4bb","","null","
                            <div style=""font-family: Arial; margin-bottom: 20px;""><h3>Which image is worth <b>more money</b>?</h3></div>
                            <div class=""stimulus-container"" style=""display: flex; width: 800px; justify-content: center; gap: 30px;"">
                                <img src=""images/semantic_sequence/physical_activity_semantic/physical_activity_semantic_3.png"" class=""small-image"">
                                <img src=""images/semantic_sequence/physical_activity_semantic/physical_activity_semantic_5.png"" class=""small-image"">
                            </div>","null","","","","","","","","","",""
"","","","","","html-button-response","88","513468","0.0-65.0-1.0","CB125AEE0EB94364877AC3502C21BA7C","019db616-3883-7750-811d-9ec6cab6afa2","019db609-2a35-76b9-807a-e0c4c153f4bb","","19841","
                            <div style=""font-family: Arial; margin-bottom: 20px;""><h3>Which image is worth <b>more money</b>?</h3></div>
                            <div class=""stimulus-container"" style=""display: flex; width: 800px; justify-content: center; gap: 30px;"">
                                <img src=""images/semantic_sequence/physical_activity_semantic/physical_activity_semantic_3.png"" class=""small-image"">
                                <img src=""images/semantic_sequence/physical_activity_semantic/physical_activity_semantic_5.png"" class=""small-image"">
                            </div>","1","part3_choice_neighbors","physical_activity_semantic","semantic_sequence","","","1","4","5","1",""
"","","","","","html-keyboard-response","89","516481","0.0-66.0-0.0","CB125AEE0EB94364877AC3502C21BA7C","019db616-3883-7750-811d-9ec6cab6afa2","019db609-2a35-76b9-807a-e0c4c153f4bb","","null","
                            <div style=""font-family: Arial; margin-bottom: 20px;""><h3>Which image is worth <b>more money</b>?</h3></div>
                            <div class=""stimulus-container"" style=""display: flex; width: 800px; justify-content: center; gap: 30px;"">
                                <img src=""images/schematic_sequence/restaurant_scheme/restaurant_scheme_9.png"" class=""small-image"">
                                <img src=""images/schematic_sequence/restaurant_scheme/restaurant_scheme_5.png"" class=""small-image"">
                            </div>","null","","","","","","","","","",""
"","","","","","html-button-response","90","516899","0.0-66.0-1.0","CB125AEE0EB94364877AC3502C21BA7C","019db616-3883-7750-811d-9ec6cab6afa2","019db609-2a35-76b9-807a-e0c4c153f4bb","","416","
                            <div style=""font-family: Arial; margin-bottom: 20px;""><h3>Which image is worth <b>more money</b>?</h3></div>
                            <div class=""stimulus-container"" style=""display: flex; width: 800px; justify-content: center; gap: 30px;"">
                                <img src=""images/schematic_sequence/restaurant_scheme/restaurant_scheme_9.png"" class=""small-image"">
                                <img src=""images/schematic_sequence/restaurant_scheme/restaurant_scheme_5.png"" class=""small-image"">
                            </div>","1","part3_choice_neighbors","restaurant_scheme","schematic_sequence","","","2","7","5","0",""
"","","","","","html-keyboard-response","91","519903","0.0-67.0-0.0","CB125AEE0EB94364877AC3502C21BA7C","019db616-3883-7750-811d-9ec6cab6afa2","019db609-2a35-76b9-807a-e0c4c153f4bb","","null","
                            <div style=""font-family: Arial; margin-bottom: 20px;""><h3>Which image is worth <b>more money</b>?</h3></div>
                            <div class=""stimulus-container"" style=""display: flex; width: 800px; justify-content: center; gap: 30px;"">
                                <img src=""images/schematic_sequence/flight_scheme/flight_scheme_9.png"" class=""small-image"">
                                <img src=""images/schematic_sequence/flight_scheme/flight_scheme_3.png"" class=""small-image"">
                            </div>","null","","","","","","","","","",""
"","","","","","html-button-response","92","520420","0.0-67.0-1.0","CB125AEE0EB94364877AC3502C21BA7C","019db616-3883-7750-811d-9ec6cab6afa2","019db609-2a35-76b9-807a-e0c4c153f4bb","","515","
                            <div style=""font-family: Arial; margin-bottom: 20px;""><h3>Which image is worth <b>more money</b>?</h3></div>
                            <div class=""stimulus-container"" style=""display: flex; width: 800px; justify-content: center; gap: 30px;"">
                                <img src=""images/schematic_sequence/flight_scheme/flight_scheme_9.png"" class=""small-image"">
                                <img src=""images/schematic_sequence/flight_scheme/flight_scheme_3.png"" class=""small-image"">
                            </div>","1","part3_choice_neighbors","flight_scheme","schematic_sequence","","","3","6","3","0",""
"","","","","","html-keyboard-response","93","523436","0.0-68.0-0.0","CB125AEE0EB94364877AC3502C21BA7C","019db616-3883-7750-811d-9ec6cab6afa2","019db609-2a35-76b9-807a-e0c4c153f4bb","","null","
                            <div style=""font-family: Arial; margin-bottom: 20px;""><h3>Which image is worth <b>more money</b>?</h3></div>
                            <div class=""stimulus-container"" style=""display: flex; width: 800px; justify-content: center; gap: 30px;"">
                                <img src=""images/schematic_sequence/hotel_scheme/hotel_scheme_4.png"" class=""small-image"">
                                <img src=""images/schematic_sequence/hotel_scheme/hotel_scheme_8.png"" class=""small-image"">
                            </div>","null","","","","","","","","","",""
"","","","","","html-button-response","94","524286","0.0-68.0-1.0","CB125AEE0EB94364877AC3502C21BA7C","019db616-3883-7750-811d-9ec6cab6afa2","019db609-2a35-76b9-807a-e0c4c153f4bb","","848","
                            <div style=""font-family: Arial; margin-bottom: 20px;""><h3>Which image is worth <b>more money</b>?</h3></div>
                            <div class=""stimulus-container"" style=""display: flex; width: 800px; justify-content: center; gap: 30px;"">
                                <img src=""images/schematic_sequence/hotel_scheme/hotel_scheme_4.png"" class=""small-image"">
                                <img src=""images/schematic_sequence/hotel_scheme/hotel_scheme_8.png"" class=""small-image"">
                            </div>","1","part3_choice_neighbors","hotel_scheme","schematic_sequence","","","2","6","8","1",""
"","","","","","html-keyboard-response","95","527292","0.0-69.0-0.0","CB125AEE0EB94364877AC3502C21BA7C","019db616-3883-7750-811d-9ec6cab6afa2","019db609-2a35-76b9-807a-e0c4c153f4bb","","null","
                            <div style=""font-family: Arial; margin-bottom: 20px;""><h3>Which image is worth <b>more money</b>?</h3></div>
                            <div class=""stimulus-container"" style=""display: flex; width: 800px; justify-content: center; gap: 30px;"">
                                <img src=""images/schematic_sequence/supermarket_scheme/supermarket_scheme_4.png"" class=""small-image"">
                                <img src=""images/schematic_sequence/supermarket_scheme/supermarket_scheme_8.png"" class=""small-image"">
                            </div>","null","","","","","","","","","",""
"","","","","","html-button-response","96","528219","0.0-69.0-1.0","CB125AEE0EB94364877AC3502C21BA7C","019db616-3883-7750-811d-9ec6cab6afa2","019db609-2a35-76b9-807a-e0c4c153f4bb","","924","
                            <div style=""font-family: Arial; margin-bottom: 20px;""><h3>Which image is worth <b>more money</b>?</h3></div>
                            <div class=""stimulus-container"" style=""display: flex; width: 800px; justify-content: center; gap: 30px;"">
                                <img src=""images/schematic_sequence/supermarket_scheme/supermarket_scheme_4.png"" class=""small-image"">
                                <img src=""images/schematic_sequence/supermarket_scheme/supermarket_scheme_8.png"" class=""small-image"">
                            </div>","1","part3_choice_neighbors","supermarket_scheme","schematic_sequence","","","2","6","8","1",""
"","","","","","html-keyboard-response","97","531225","0.0-70.0-0.0","CB125AEE0EB94364877AC3502C21BA7C","019db616-3883-7750-811d-9ec6cab6afa2","019db609-2a35-76b9-807a-e0c4c153f4bb","","null","
                            <div style=""font-family: Arial; margin-bottom: 20px;""><h3>Which image is worth <b>more money</b>?</h3></div>
                            <div class=""stimulus-container"" style=""display: flex; width: 800px; justify-content: center; gap: 30px;"">
                                <img src=""images/schematic_sequence/restaurant_scheme/restaurant_scheme_ten.png"" class=""small-image"">
                                <img src=""images/schematic_sequence/restaurant_scheme/restaurant_scheme_4.png"" class=""small-image"">
                            </div>","null","","","","","","","","","",""
"","","","","","html-button-response","98","531674","0.0-70.0-1.0","CB125AEE0EB94364877AC3502C21BA7C","019db616-3883-7750-811d-9ec6cab6afa2","019db609-2a35-76b9-807a-e0c4c153f4bb","","445","
                            <div style=""font-family: Arial; margin-bottom: 20px;""><h3>Which image is worth <b>more money</b>?</h3></div>
                            <div class=""stimulus-container"" style=""display: flex; width: 800px; justify-content: center; gap: 30px;"">
                                <img src=""images/schematic_sequence/restaurant_scheme/restaurant_scheme_ten.png"" class=""small-image"">
                                <img src=""images/schematic_sequence/restaurant_scheme/restaurant_scheme_4.png"" class=""small-image"">
                            </div>","1","part3_choice_neighbors","restaurant_scheme","schematic_sequence","","","3","7","4","0",""
"","","","","","html-keyboard-response","99","534688","0.0-71.0-0.0","CB125AEE0EB94364877AC3502C21BA7C","019db616-3883-7750-811d-9ec6cab6afa2","019db609-2a35-76b9-807a-e0c4c153f4bb","","null","
                            <div style=""font-family: Arial; margin-bottom: 20px;""><h3>Which image is worth <b>more money</b>?</h3></div>
                            <div class=""stimulus-container"" style=""display: flex; width: 800px; justify-content: center; gap: 30px;"">
                                <img src=""images/semantic_sequence/physical_activity_semantic/physical_activity_semantic_7.png"" class=""small-image"">
                                <img src=""images/semantic_sequence/physical_activity_semantic/physical_activity_semantic_1.png"" class=""small-image"">
                            </div>","null","","","","","","","","","",""
"","","","","","html-button-response","100","535126","0.0-71.0-1.0","CB125AEE0EB94364877AC3502C21BA7C","019db616-3883-7750-811d-9ec6cab6afa2","019db609-2a35-76b9-807a-e0c4c153f4bb","","435","
                            <div style=""font-family: Arial; margin-bottom: 20px;""><h3>Which image is worth <b>more money</b>?</h3></div>
                            <div class=""stimulus-container"" style=""display: flex; width: 800px; justify-content: center; gap: 30px;"">
                                <img src=""images/semantic_sequence/physical_activity_semantic/physical_activity_semantic_7.png"" class=""small-image"">
                                <img src=""images/semantic_sequence/physical_activity_semantic/physical_activity_semantic_1.png"" class=""small-image"">
                            </div>","1","part3_choice_neighbors","physical_activity_semantic","semantic_sequence","","","3","4","1","0",""
"","","","","","html-keyboard-response","101","538139","0.0-72.0-0.0","CB125AEE0EB94364877AC3502C21BA7C","019db616-3883-7750-811d-9ec6cab6afa2","019db609-2a35-76b9-807a-e0c4c153f4bb","","null","
                            <div style=""font-family: Arial; margin-bottom: 20px;""><h3>Which image is worth <b>more money</b>?</h3></div>
                            <div class=""stimulus-container"" style=""display: flex; width: 800px; justify-content: center; gap: 30px;"">
                                <img src=""images/semantic_sequence/physical_activity_semantic/physical_activity_semantic_6.png"" class=""small-image"">
                                <img src=""images/semantic_sequence/physical_activity_semantic/physical_activity_semantic_2.png"" class=""small-image"">
                            </div>","null","","","","","","","","","",""
"","","","","","html-button-response","102","538554","0.0-72.0-1.0","CB125AEE0EB94364877AC3502C21BA7C","019db616-3883-7750-811d-9ec6cab6afa2","019db609-2a35-76b9-807a-e0c4c153f4bb","","413","
                            <div style=""font-family: Arial; margin-bottom: 20px;""><h3>Which image is worth <b>more money</b>?</h3></div>
                            <div class=""stimulus-container"" style=""display: flex; width: 800px; justify-content: center; gap: 30px;"">
                                <img src=""images/semantic_sequence/physical_activity_semantic/physical_activity_semantic_6.png"" class=""small-image"">
                                <img src=""images/semantic_sequence/physical_activity_semantic/physical_activity_semantic_2.png"" class=""small-image"">
                            </div>","1","part3_choice_neighbors","physical_activity_semantic","semantic_sequence","","","2","4","2","0",""
"","","","","","html-keyboard-response","103","541570","0.0-73.0-0.0","CB125AEE0EB94364877AC3502C21BA7C","019db616-3883-7750-811d-9ec6cab6afa2","019db609-2a35-76b9-807a-e0c4c153f4bb","","null","
                            <div style=""font-family: Arial; margin-bottom: 20px;""><h3>Which image is worth <b>more money</b>?</h3></div>
                            <div class=""stimulus-container"" style=""display: flex; width: 800px; justify-content: center; gap: 30px;"">
                                <img src=""images/semantic_sequence/self_care_activities_semantic/self_care_activities_semantic_8.png"" class=""small-image"">
                                <img src=""images/semantic_sequence/self_care_activities_semantic/self_care_activities_semantic_6.png"" class=""small-image"">
                            </div>","null","","","","","","","","","",""
"","","","","","html-button-response","104","544630","0.0-73.0-1.0","CB125AEE0EB94364877AC3502C21BA7C","019db616-3883-7750-811d-9ec6cab6afa2","019db609-2a35-76b9-807a-e0c4c153f4bb","","3057","
                            <div style=""font-family: Arial; margin-bottom: 20px;""><h3>Which image is worth <b>more money</b>?</h3></div>
                            <div class=""stimulus-container"" style=""display: flex; width: 800px; justify-content: center; gap: 30px;"">
                                <img src=""images/semantic_sequence/self_care_activities_semantic/self_care_activities_semantic_8.png"" class=""small-image"">
                                <img src=""images/semantic_sequence/self_care_activities_semantic/self_care_activities_semantic_6.png"" class=""small-image"">
                            </div>","0","part3_choice_neighbors","self_care_activities_semantic","semantic_sequence","","","1","7","8","1",""
"","","","","","html-keyboard-response","105","547648","0.0-74.0-0.0","CB125AEE0EB94364877AC3502C21BA7C","019db616-3883-7750-811d-9ec6cab6afa2","019db609-2a35-76b9-807a-e0c4c153f4bb","","null","<div style=""font-family: Arial; margin-bottom: 20px;""><h3>Which image is worth <b>more money?</h3></div>
                            <div class=""stimulus-container"" style=""display: flex; width: 800px; justify-content: center; gap: 30px;"">
                                <img src=""images/schematic_sequence/restaurant_scheme/restaurant_scheme_7.png"" class=""small-image"">
                                <img src=""images/schematic_sequence/supermarket_scheme/supermarket_scheme_6.png"" class=""small-image"">
                            </div>","null","","","","","","","","","",""
"","","","","","html-button-response","106","548125","0.0-74.0-1.0","CB125AEE0EB94364877AC3502C21BA7C","019db616-3883-7750-811d-9ec6cab6afa2","019db609-2a35-76b9-807a-e0c4c153f4bb","","475","<div style=""font-family: Arial; margin-bottom: 20px;""><h3>Which image is worth <b>more money</b>?</h3></div>
                            <div class=""stimulus-container"" style=""display: flex; width: 800px; justify-content: center; gap: 30px;"">
                                <img src=""images/schematic_sequence/restaurant_scheme/restaurant_scheme_7.png"" class=""small-image"">
                                <img src=""images/schematic_sequence/supermarket_scheme/supermarket_scheme_6.png"" class=""small-image"">
                            </div>","0","part3_valuable_vs_neutral_direct","","","","","","","","","false"
"","","","","","html-keyboard-response","107","551134","0.0-75.0-0.0","CB125AEE0EB94364877AC3502C21BA7C","019db616-3883-7750-811d-9ec6cab6afa2","019db609-2a35-76b9-807a-e0c4c153f4bb","","null","
                            <div style=""font-family: Arial; margin-bottom: 20px;""><h3>Which image is worth <b>more money</b>?</h3></div>
                            <div class=""stimulus-container"" style=""display: flex; width: 800px; justify-content: center; gap: 30px;"">
                                <img src=""images/semantic_sequence/kitchen_operations_semantic/kitchen_operations_semantic_7.png"" class=""small-image"">
                                <img src=""images/semantic_sequence/kitchen_operations_semantic/kitchen_operations_semantic_5.png"" class=""small-image"">
                            </div>","null","","","","","","","","","",""
"","","","","","html-button-response","108","552563","0.0-75.0-1.0","CB125AEE0EB94364877AC3502C21BA7C","019db616-3883-7750-811d-9ec6cab6afa2","019db609-2a35-76b9-807a-e0c4c153f4bb","","1427","
                            <div style=""font-family: Arial; margin-bottom: 20px;""><h3>Which image is worth <b>more money</b>?</h3></div>
                            <div class=""stimulus-container"" style=""display: flex; width: 800px; justify-content: center; gap: 30px;"">
                                <img src=""images/semantic_sequence/kitchen_operations_semantic/kitchen_operations_semantic_7.png"" class=""small-image"">
                                <img src=""images/semantic_sequence/kitchen_operations_semantic/kitchen_operations_semantic_5.png"" class=""small-image"">
                            </div>","1","part3_choice_neighbors","kitchen_operations_semantic","semantic_sequence","","","1","6","5","0",""
"","","","","","html-keyboard-response","109","555578","0.0-76.0-0.0","CB125AEE0EB94364877AC3502C21BA7C","019db616-3883-7750-811d-9ec6cab6afa2","019db609-2a35-76b9-807a-e0c4c153f4bb","","null","
                            <div style=""font-family: Arial; margin-bottom: 20px;""><h3>Which image is worth <b>more money</b>?</h3></div>
                            <div class=""stimulus-container"" style=""display: flex; width: 800px; justify-content: center; gap: 30px;"">
                                <img src=""images/semantic_sequence/maintaining_a_car_semantic/maintaining_a_car_semantic_3.png"" class=""small-image"">
                                <img src=""images/semantic_sequence/maintaining_a_car_semantic/maintaining_a_car_semantic_9.png"" class=""small-image"">
                            </div>","null","","","","","","","","","",""
"","","","","","html-button-response","110","556044","0.0-76.0-1.0","CB125AEE0EB94364877AC3502C21BA7C","019db616-3883-7750-811d-9ec6cab6afa2","019db609-2a35-76b9-807a-e0c4c153f4bb","","464","
                            <div style=""font-family: Arial; margin-bottom: 20px;""><h3>Which image is worth <b>more money</b>?</h3></div>
                            <div class=""stimulus-container"" style=""display: flex; width: 800px; justify-content: center; gap: 30px;"">
                                <img src=""images/semantic_sequence/maintaining_a_car_semantic/maintaining_a_car_semantic_3.png"" class=""small-image"">
                                <img src=""images/semantic_sequence/maintaining_a_car_semantic/maintaining_a_car_semantic_9.png"" class=""small-image"">
                            </div>","0","part3_choice_neighbors","maintaining_a_car_semantic","semantic_sequence","","","3","6","3","0",""
"","","","","","html-keyboard-response","111","559047","0.0-77.0-0.0","CB125AEE0EB94364877AC3502C21BA7C","019db616-3883-7750-811d-9ec6cab6afa2","019db609-2a35-76b9-807a-e0c4c153f4bb","","null","
                            <div style=""font-family: Arial; margin-bottom: 20px;""><h3>Which image is worth <b>more money</b>?</h3></div>
                            <div class=""stimulus-container"" style=""display: flex; width: 800px; justify-content: center; gap: 30px;"">
                                <img src=""images/semantic_sequence/maintaining_a_car_semantic/maintaining_a_car_semantic_7.png"" class=""small-image"">
                                <img src=""images/semantic_sequence/maintaining_a_car_semantic/maintaining_a_car_semantic_5.png"" class=""small-image"">
                            </div>","null","","","","","","","","","",""
"","","","","","html-button-response","112","559643","0.0-77.0-1.0","CB125AEE0EB94364877AC3502C21BA7C","019db616-3883-7750-811d-9ec6cab6afa2","019db609-2a35-76b9-807a-e0c4c153f4bb","","595","
                            <div style=""font-family: Arial; margin-bottom: 20px;""><h3>Which image is worth <b>more money</b>?</h3></div>
                            <div class=""stimulus-container"" style=""display: flex; width: 800px; justify-content: center; gap: 30px;"">
                                <img src=""images/semantic_sequence/maintaining_a_car_semantic/maintaining_a_car_semantic_7.png"" class=""small-image"">
                                <img src=""images/semantic_sequence/maintaining_a_car_semantic/maintaining_a_car_semantic_5.png"" class=""small-image"">
                            </div>","1","part3_choice_neighbors","maintaining_a_car_semantic","semantic_sequence","","","1","6","5","0",""
"","","","","","html-keyboard-response","113","562652","0.0-78.0-0.0","CB125AEE0EB94364877AC3502C21BA7C","019db616-3883-7750-811d-9ec6cab6afa2","019db609-2a35-76b9-807a-e0c4c153f4bb","","null","<div style=""font-family: Arial; margin-bottom: 20px;""><h3>Which image is worth <b>more money?</h3></div>
                            <div class=""stimulus-container"" style=""display: flex; width: 800px; justify-content: center; gap: 30px;"">
                                <img src=""images/semantic_sequence/visiting_cities_semantic/visiting_cities_semantic_7.png"" class=""small-image"">
                                <img src=""images/schematic_sequence/hotel_scheme/hotel_scheme_6.png"" class=""small-image"">
                            </div>","null","","","","","","","","","",""
"","","","","","html-button-response","114","563102","0.0-78.0-1.0","CB125AEE0EB94364877AC3502C21BA7C","019db616-3883-7750-811d-9ec6cab6afa2","019db609-2a35-76b9-807a-e0c4c153f4bb","","449","<div style=""font-family: Arial; margin-bottom: 20px;""><h3>Which image is worth <b>more money</b>?</h3></div>
                            <div class=""stimulus-container"" style=""display: flex; width: 800px; justify-content: center; gap: 30px;"">
                                <img src=""images/semantic_sequence/visiting_cities_semantic/visiting_cities_semantic_7.png"" class=""small-image"">
                                <img src=""images/schematic_sequence/hotel_scheme/hotel_scheme_6.png"" class=""small-image"">
                            </div>","0","part3_valuable_vs_neutral_direct","","","","","","","","","false"
"","","","","","html-keyboard-response","115","566116","0.0-79.0-0.0","CB125AEE0EB94364877AC3502C21BA7C","019db616-3883-7750-811d-9ec6cab6afa2","019db609-2a35-76b9-807a-e0c4c153f4bb","","null","
                            <div style=""font-family: Arial; margin-bottom: 20px;""><h3>Which image is worth <b>more money</b>?</h3></div>
                            <div class=""stimulus-container"" style=""display: flex; width: 800px; justify-content: center; gap: 30px;"">
                                <img src=""images/semantic_sequence/visiting_cities_semantic/visiting_cities_semantic_5.png"" class=""small-image"">
                                <img src=""images/semantic_sequence/visiting_cities_semantic/visiting_cities_semantic_9.png"" class=""small-image"">
                            </div>","null","","","","","","","","","",""
"","","","","","html-button-response","116","566563","0.0-79.0-1.0","CB125AEE0EB94364877AC3502C21BA7C","019db616-3883-7750-811d-9ec6cab6afa2","019db609-2a35-76b9-807a-e0c4c153f4bb","","445","
                            <div style=""font-family: Arial; margin-bottom: 20px;""><h3>Which image is worth <b>more money</b>?</h3></div>
                            <div class=""stimulus-container"" style=""display: flex; width: 800px; justify-content: center; gap: 30px;"">
                                <img src=""images/semantic_sequence/visiting_cities_semantic/visiting_cities_semantic_5.png"" class=""small-image"">
                                <img src=""images/semantic_sequence/visiting_cities_semantic/visiting_cities_semantic_9.png"" class=""small-image"">
                            </div>","0","part3_choice_neighbors","visiting_cities_semantic","semantic_sequence","","","2","7","5","0",""
"","","","","","html-keyboard-response","117","569567","0.0-80.0-0.0","CB125AEE0EB94364877AC3502C21BA7C","019db616-3883-7750-811d-9ec6cab6afa2","019db609-2a35-76b9-807a-e0c4c153f4bb","","null","
                            <div style=""font-family: Arial; margin-bottom: 20px;""><h3>Which image is worth <b>more money</b>?</h3></div>
                            <div class=""stimulus-container"" style=""display: flex; width: 800px; justify-content: center; gap: 30px;"">
                                <img src=""images/semantic_sequence/housework_semantic/housework_semantic_7.png"" class=""small-image"">
                                <img src=""images/semantic_sequence/housework_semantic/housework_semantic_3.png"" class=""small-image"">
                            </div>","null","","","","","","","","","",""
"","","","","","html-button-response","118","570086","0.0-80.0-1.0","CB125AEE0EB94364877AC3502C21BA7C","019db616-3883-7750-811d-9ec6cab6afa2","019db609-2a35-76b9-807a-e0c4c153f4bb","","518","
                            <div style=""font-family: Arial; margin-bottom: 20px;""><h3>Which image is worth <b>more money</b>?</h3></div>
                            <div class=""stimulus-container"" style=""display: flex; width: 800px; justify-content: center; gap: 30px;"">
                                <img src=""images/semantic_sequence/housework_semantic/housework_semantic_7.png"" class=""small-image"">
                                <img src=""images/semantic_sequence/housework_semantic/housework_semantic_3.png"" class=""small-image"">
                            </div>","1","part3_choice_neighbors","housework_semantic","semantic_sequence","","","2","5","3","0",""
"","","","","","html-keyboard-response","119","573094","0.0-81.0-0.0","CB125AEE0EB94364877AC3502C21BA7C","019db616-3883-7750-811d-9ec6cab6afa2","019db609-2a35-76b9-807a-e0c4c153f4bb","","null","
                            <div style=""font-family: Arial; margin-bottom: 20px;""><h3>Which image is worth <b>more money</b>?</h3></div>
                            <div class=""stimulus-container"" style=""display: flex; width: 800px; justify-content: center; gap: 30px;"">
                                <img src=""images/semantic_sequence/self_care_activities_semantic/self_care_activities_semantic_4.png"" class=""small-image"">
                                <img src=""images/semantic_sequence/self_care_activities_semantic/self_care_activities_semantic_ten.png"" class=""small-image"">
                            </div>","null","","","","","","","","","",""
"","","","","","html-button-response","120","573453","0.0-81.0-1.0","CB125AEE0EB94364877AC3502C21BA7C","019db616-3883-7750-811d-9ec6cab6afa2","019db609-2a35-76b9-807a-e0c4c153f4bb","","356","
                            <div style=""font-family: Arial; margin-bottom: 20px;""><h3>Which image is worth <b>more money</b>?</h3></div>
                            <div class=""stimulus-container"" style=""display: flex; width: 800px; justify-content: center; gap: 30px;"">
                                <img src=""images/semantic_sequence/self_care_activities_semantic/self_care_activities_semantic_4.png"" class=""small-image"">
                                <img src=""images/semantic_sequence/self_care_activities_semantic/self_care_activities_semantic_ten.png"" class=""small-image"">
                            </div>","0","part3_choice_neighbors","self_care_activities_semantic","semantic_sequence","","","3","7","4","0",""
"","","","","","html-keyboard-response","121","576459","0.0-82.0-0.0","CB125AEE0EB94364877AC3502C21BA7C","019db616-3883-7750-811d-9ec6cab6afa2","019db609-2a35-76b9-807a-e0c4c153f4bb","","null","
                            <div style=""font-family: Arial; margin-bottom: 20px;""><h3>Which image is worth <b>more money</b>?</h3></div>
                            <div class=""stimulus-container"" style=""display: flex; width: 800px; justify-content: center; gap: 30px;"">
                                <img src=""images/schematic_sequence/hotel_scheme/hotel_scheme_3.png"" class=""small-image"">
                                <img src=""images/schematic_sequence/hotel_scheme/hotel_scheme_9.png"" class=""small-image"">
                            </div>","null","","","","","","","","","",""
"","","","","","html-button-response","122","577007","0.0-82.0-1.0","CB125AEE0EB94364877AC3502C21BA7C","019db616-3883-7750-811d-9ec6cab6afa2","019db609-2a35-76b9-807a-e0c4c153f4bb","","544","
                            <div style=""font-family: Arial; margin-bottom: 20px;""><h3>Which image is worth <b>more money</b>?</h3></div>
                            <div class=""stimulus-container"" style=""display: flex; width: 800px; justify-content: center; gap: 30px;"">
                                <img src=""images/schematic_sequence/hotel_scheme/hotel_scheme_3.png"" class=""small-image"">
                                <img src=""images/schematic_sequence/hotel_scheme/hotel_scheme_9.png"" class=""small-image"">
                            </div>","1","part3_choice_neighbors","hotel_scheme","schematic_sequence","","","3","6","9","1",""
"","","","","","html-keyboard-response","123","580014","0.0-83.0-0.0","CB125AEE0EB94364877AC3502C21BA7C","019db616-3883-7750-811d-9ec6cab6afa2","019db609-2a35-76b9-807a-e0c4c153f4bb","","null","
                            <div style=""font-family: Arial; margin-bottom: 20px;""><h3>Which image is worth <b>more money</b>?</h3></div>
                            <div class=""stimulus-container"" style=""display: flex; width: 800px; justify-content: center; gap: 30px;"">
                                <img src=""images/semantic_sequence/housework_semantic/housework_semantic_8.png"" class=""small-image"">
                                <img src=""images/semantic_sequence/housework_semantic/housework_semantic_2.png"" class=""small-image"">
                            </div>","null","","","","","","","","","",""
"","","","","","html-button-response","124","582962","0.0-83.0-1.0","CB125AEE0EB94364877AC3502C21BA7C","019db616-3883-7750-811d-9ec6cab6afa2","019db609-2a35-76b9-807a-e0c4c153f4bb","","2946","
                            <div style=""font-family: Arial; margin-bottom: 20px;""><h3>Which image is worth <b>more money</b>?</h3></div>
                            <div class=""stimulus-container"" style=""display: flex; width: 800px; justify-content: center; gap: 30px;"">
                                <img src=""images/semantic_sequence/housework_semantic/housework_semantic_8.png"" class=""small-image"">
                                <img src=""images/semantic_sequence/housework_semantic/housework_semantic_2.png"" class=""small-image"">
                            </div>","0","part3_choice_neighbors","housework_semantic","semantic_sequence","","","3","5","8","1",""
"","","","","","html-keyboard-response","125","585973","0.0-84.0-0.0","CB125AEE0EB94364877AC3502C21BA7C","019db616-3883-7750-811d-9ec6cab6afa2","019db609-2a35-76b9-807a-e0c4c153f4bb","","null","
                            <div style=""font-family: Arial; margin-bottom: 20px;""><h3>Which image is worth <b>more money</b>?</h3></div>
                            <div class=""stimulus-container"" style=""display: flex; width: 800px; justify-content: center; gap: 30px;"">
                                <img src=""images/semantic_sequence/housework_semantic/housework_semantic_4.png"" class=""small-image"">
                                <img src=""images/semantic_sequence/housework_semantic/housework_semantic_6.png"" class=""small-image"">
                            </div>","null","","","","","","","","","",""
"","","","","","html-button-response","126","586562","0.0-84.0-1.0","CB125AEE0EB94364877AC3502C21BA7C","019db616-3883-7750-811d-9ec6cab6afa2","019db609-2a35-76b9-807a-e0c4c153f4bb","","587","
                            <div style=""font-family: Arial; margin-bottom: 20px;""><h3>Which image is worth <b>more money</b>?</h3></div>
                            <div class=""stimulus-container"" style=""display: flex; width: 800px; justify-content: center; gap: 30px;"">
                                <img src=""images/semantic_sequence/housework_semantic/housework_semantic_4.png"" class=""small-image"">
                                <img src=""images/semantic_sequence/housework_semantic/housework_semantic_6.png"" class=""small-image"">
                            </div>","0","part3_choice_neighbors","housework_semantic","semantic_sequence","","","1","5","4","0",""
"","","","","","survey-text","127","640690","0.0-85.0","CB125AEE0EB94364877AC3502C21BA7C","019db616-3883-7750-811d-9ec6cab6afa2","019db609-2a35-76b9-807a-e0c4c153f4bb","","54088","","{""gender"":""MALE"",""age"":""30"",""decision_strategy"":""value "",""consistency_check"":""yes, in terms on value and time ""}","demographics_and_strategy","","","","","","","","",""
"","","","","","instructions","128","646237","0.0-86.0","CB125AEE0EB94364877AC3502C21BA7C","019db616-3883-7750-811d-9ec6cab6afa2","019db609-2a35-76b9-807a-e0c4c153f4bb","[{""page_index"":0,""viewing_time"":5545}]","5546","","","","","","","","","","","",""
