"success","timeout","failed_images","failed_audio","failed_video","trial_type","trial_index","time_elapsed","internal_node_id","subject_id","study_id","session_id","view_history","rt","stimulus","response","task","image_index","folder","valuable_image_index","valuable_X","chosen_image_index","distance_from_X"
"false","false","[]","[]","[]","preload","0","6275","0.0-0.0","36B33DB420FE4083BB5D5C8854CE7718","019ce627-8dac-7d19-84ac-b89694d57efe","019ce621-c902-75a6-af36-962d82cab856","","","","","","","","","","",""
"","","","","","instructions","1","10545","0.0-1.0","36B33DB420FE4083BB5D5C8854CE7718","019ce627-8dac-7d19-84ac-b89694d57efe","019ce621-c902-75a6-af36-962d82cab856","[{""page_index"":0,""viewing_time"":4267}]","4268","","","","","","","","",""
"","","","","","instructions","2","13844","0.0-2.0","36B33DB420FE4083BB5D5C8854CE7718","019ce627-8dac-7d19-84ac-b89694d57efe","019ce621-c902-75a6-af36-962d82cab856","[{""page_index"":0,""viewing_time"":3297}]","3297","","","","","","","","",""
"true","","","","","fullscreen","3","17715","0.0-3.0","36B33DB420FE4083BB5D5C8854CE7718","019ce627-8dac-7d19-84ac-b89694d57efe","019ce621-c902-75a6-af36-962d82cab856","","2861","","","","","","","","",""
"","","","","","instructions","4","29854","0.0-4.0","36B33DB420FE4083BB5D5C8854CE7718","019ce627-8dac-7d19-84ac-b89694d57efe","019ce621-c902-75a6-af36-962d82cab856","[{""page_index"":0,""viewing_time"":12138}]","12139","","","","","","","","",""
"","","","","","instructions","5","39201","0.0-5.0","36B33DB420FE4083BB5D5C8854CE7718","019ce627-8dac-7d19-84ac-b89694d57efe","019ce621-c902-75a6-af36-962d82cab856","[{""page_index"":0,""viewing_time"":9344}]","9345","","","","","","","","",""
"","","","","","html-keyboard-response","6","43211","0.0-6.0","36B33DB420FE4083BB5D5C8854CE7718","019ce627-8dac-7d19-84ac-b89694d57efe","019ce621-c902-75a6-af36-962d82cab856","","null","
                <div class=""stimulus-container"">
                    <img src=""images/instructions/movie_1.png"" class=""exp-image"">
                    <div class=""question-area""></div> 
                </div>","null","","","","","","",""
"","","","","","html-button-response","7","46216","0.0-7.0","36B33DB420FE4083BB5D5C8854CE7718","019ce627-8dac-7d19-84ac-b89694d57efe","019ce621-c902-75a6-af36-962d82cab856","","null","
                <div class=""stimulus-container"">
                    <img src=""images/instructions/movie_1.png"" class=""exp-image"">
                    <div class=""question-area"">
                        <p style=""font-size: 20px; font-weight: bold; margin: 0;"">Was there a person in this image?</p>
                    </div>
                </div>","null","example_question","1","","","","",""
"","","","","","html-keyboard-response","8","50225","0.0-8.0","36B33DB420FE4083BB5D5C8854CE7718","019ce627-8dac-7d19-84ac-b89694d57efe","019ce621-c902-75a6-af36-962d82cab856","","null","
                <div class=""stimulus-container"">
                    <img src=""images/instructions/movie_2.png"" class=""exp-image"">
                    <div class=""question-area""></div> 
                </div>","null","","","","","","",""
"","","","","","html-button-response","9","50988","0.0-9.0","36B33DB420FE4083BB5D5C8854CE7718","019ce627-8dac-7d19-84ac-b89694d57efe","019ce621-c902-75a6-af36-962d82cab856","","760","
                <div class=""stimulus-container"">
                    <img src=""images/instructions/movie_2.png"" class=""exp-image"">
                    <div class=""question-area"">
                        <p style=""font-size: 20px; font-weight: bold; margin: 0;"">Was there a person in this image?</p>
                    </div>
                </div>","1","example_question","2","","","","",""
"","","","","","html-keyboard-response","10","54997","0.0-10.0","36B33DB420FE4083BB5D5C8854CE7718","019ce627-8dac-7d19-84ac-b89694d57efe","019ce621-c902-75a6-af36-962d82cab856","","null","
                <div class=""stimulus-container"">
                    <img src=""images/instructions/movie_3.png"" class=""exp-image"">
                    <div class=""question-area""></div> 
                </div>","null","","","","","","",""
"","","","","","html-button-response","11","55828","0.0-11.0","36B33DB420FE4083BB5D5C8854CE7718","019ce627-8dac-7d19-84ac-b89694d57efe","019ce621-c902-75a6-af36-962d82cab856","","829","
                <div class=""stimulus-container"">
                    <img src=""images/instructions/movie_3.png"" class=""exp-image"">
                    <div class=""question-area"">
                        <p style=""font-size: 20px; font-weight: bold; margin: 0;"">Was there a person in this image?</p>
                    </div>
                </div>","0","example_question","3","","","","",""
"","","","","","html-keyboard-response","12","59831","0.0-12.0","36B33DB420FE4083BB5D5C8854CE7718","019ce627-8dac-7d19-84ac-b89694d57efe","019ce621-c902-75a6-af36-962d82cab856","","null","
                <div class=""stimulus-container"">
                    <img src=""images/instructions/movie_4.png"" class=""exp-image"">
                    <div class=""question-area""></div> 
                </div>","null","","","","","","",""
"","","","","","html-button-response","13","60464","0.0-13.0","36B33DB420FE4083BB5D5C8854CE7718","019ce627-8dac-7d19-84ac-b89694d57efe","019ce621-c902-75a6-af36-962d82cab856","","630","
                <div class=""stimulus-container"">
                    <img src=""images/instructions/movie_4.png"" class=""exp-image"">
                    <div class=""question-area"">
                        <p style=""font-size: 20px; font-weight: bold; margin: 0;"">Was there a person in this image?</p>
                    </div>
                </div>","0","example_question","4","","","","",""
"","","","","","instructions","14","62959","0.0-14.0","36B33DB420FE4083BB5D5C8854CE7718","019ce627-8dac-7d19-84ac-b89694d57efe","019ce621-c902-75a6-af36-962d82cab856","[{""page_index"":0,""viewing_time"":2494}]","2495","","","","","","","","",""
"","","","","","html-keyboard-response","15","63967","0.0-15.0","36B33DB420FE4083BB5D5C8854CE7718","019ce627-8dac-7d19-84ac-b89694d57efe","019ce621-c902-75a6-af36-962d82cab856","","null","<div style=""background-color: gray; width: 100vw; height: 100vh;""></div>","null","","","","","","",""
"","","","","","html-keyboard-response","16","68976","0.0-16.0","36B33DB420FE4083BB5D5C8854CE7718","019ce627-8dac-7d19-84ac-b89694d57efe","019ce621-c902-75a6-af36-962d82cab856","","null","
                    <div class=""stimulus-container"">
                        <img src=""images/causal_sequence/saving_a_cat_causal/saving_a_cat_causal_1.png"" class=""exp-image"">
                        <div class=""question-area""></div> 
                    </div>","null","","","","","","",""
"","","","","","html-button-response","17","70549","0.0-17.0","36B33DB420FE4083BB5D5C8854CE7718","019ce627-8dac-7d19-84ac-b89694d57efe","019ce621-c902-75a6-af36-962d82cab856","","1570","
                    <div class=""stimulus-container"">
                        <img src=""images/causal_sequence/saving_a_cat_causal/saving_a_cat_causal_1.png"" class=""exp-image"">
                        <div class=""question-area"">
                            <p style=""font-size: 20px; font-weight: bold; margin: 0;"">Is there a person in this image?</p>
                        </div>
                    </div>","0","main_causal_task","1","saving_a_cat_causal","","","",""
"","","","","","html-keyboard-response","18","75558","0.0-18.0","36B33DB420FE4083BB5D5C8854CE7718","019ce627-8dac-7d19-84ac-b89694d57efe","019ce621-c902-75a6-af36-962d82cab856","","null","
                    <div class=""stimulus-container"">
                        <img src=""images/causal_sequence/saving_a_cat_causal/saving_a_cat_causal_2.png"" class=""exp-image"">
                        <div class=""question-area""></div> 
                    </div>","null","","","","","","",""
"","","","","","html-button-response","19","77260","0.0-19.0","36B33DB420FE4083BB5D5C8854CE7718","019ce627-8dac-7d19-84ac-b89694d57efe","019ce621-c902-75a6-af36-962d82cab856","","1700","
                    <div class=""stimulus-container"">
                        <img src=""images/causal_sequence/saving_a_cat_causal/saving_a_cat_causal_2.png"" class=""exp-image"">
                        <div class=""question-area"">
                            <p style=""font-size: 20px; font-weight: bold; margin: 0;"">Is there a person in this image?</p>
                        </div>
                    </div>","1","main_causal_task","2","saving_a_cat_causal","","","",""
"","","","","","html-keyboard-response","20","82268","0.0-20.0","36B33DB420FE4083BB5D5C8854CE7718","019ce627-8dac-7d19-84ac-b89694d57efe","019ce621-c902-75a6-af36-962d82cab856","","null","
                    <div class=""stimulus-container"">
                        <img src=""images/causal_sequence/saving_a_cat_causal/saving_a_cat_causal_3.png"" class=""exp-image"">
                        <div class=""question-area""></div> 
                    </div>","null","","","","","","",""
"","","","","","html-button-response","21","83907","0.0-21.0","36B33DB420FE4083BB5D5C8854CE7718","019ce627-8dac-7d19-84ac-b89694d57efe","019ce621-c902-75a6-af36-962d82cab856","","1638","
                    <div class=""stimulus-container"">
                        <img src=""images/causal_sequence/saving_a_cat_causal/saving_a_cat_causal_3.png"" class=""exp-image"">
                        <div class=""question-area"">
                            <p style=""font-size: 20px; font-weight: bold; margin: 0;"">Is there a person in this image?</p>
                        </div>
                    </div>","1","main_causal_task","3","saving_a_cat_causal","","","",""
"","","","","","html-keyboard-response","22","88913","0.0-22.0","36B33DB420FE4083BB5D5C8854CE7718","019ce627-8dac-7d19-84ac-b89694d57efe","019ce621-c902-75a6-af36-962d82cab856","","null","
                    <div class=""stimulus-container"">
                        <img src=""images/causal_sequence/saving_a_cat_causal/saving_a_cat_causal_4.png"" class=""exp-image"">
                        <div class=""question-area""></div> 
                    </div>","null","","","","","","",""
"","","","","","html-button-response","23","89870","0.0-23.0","36B33DB420FE4083BB5D5C8854CE7718","019ce627-8dac-7d19-84ac-b89694d57efe","019ce621-c902-75a6-af36-962d82cab856","","955","
                    <div class=""stimulus-container"">
                        <img src=""images/causal_sequence/saving_a_cat_causal/saving_a_cat_causal_4.png"" class=""exp-image"">
                        <div class=""question-area"">
                            <p style=""font-size: 20px; font-weight: bold; margin: 0;"">Is there a person in this image?</p>
                        </div>
                    </div>","0","main_causal_task","4","saving_a_cat_causal","","","",""
"","","","","","html-keyboard-response","24","94874","0.0-24.0","36B33DB420FE4083BB5D5C8854CE7718","019ce627-8dac-7d19-84ac-b89694d57efe","019ce621-c902-75a6-af36-962d82cab856","","null","
                    <div class=""stimulus-container"">
                        <img src=""images/causal_sequence/saving_a_cat_causal/saving_a_cat_causal_5.png"" class=""exp-image"">
                        <div class=""question-area""></div> 
                    </div>","null","","","","","","",""
"","","","","","html-button-response","25","95878","0.0-25.0","36B33DB420FE4083BB5D5C8854CE7718","019ce627-8dac-7d19-84ac-b89694d57efe","019ce621-c902-75a6-af36-962d82cab856","","1002","
                    <div class=""stimulus-container"">
                        <img src=""images/causal_sequence/saving_a_cat_causal/saving_a_cat_causal_5.png"" class=""exp-image"">
                        <div class=""question-area"">
                            <p style=""font-size: 20px; font-weight: bold; margin: 0;"">Is there a person in this image?</p>
                        </div>
                    </div>","0","main_causal_task","5","saving_a_cat_causal","","","",""
"","","","","","html-keyboard-response","26","100887","0.0-26.0","36B33DB420FE4083BB5D5C8854CE7718","019ce627-8dac-7d19-84ac-b89694d57efe","019ce621-c902-75a6-af36-962d82cab856","","null","
                    <div class=""stimulus-container"">
                        <img src=""images/causal_sequence/saving_a_cat_causal/saving_a_cat_causal_6.png"" class=""exp-image"">
                        <div class=""question-area""></div> 
                    </div>","null","","","","","","",""
"","","","","","html-button-response","27","101708","0.0-27.0","36B33DB420FE4083BB5D5C8854CE7718","019ce627-8dac-7d19-84ac-b89694d57efe","019ce621-c902-75a6-af36-962d82cab856","","817","
                    <div class=""stimulus-container"">
                        <img src=""images/causal_sequence/saving_a_cat_causal/saving_a_cat_causal_6.png"" class=""exp-image"">
                        <div class=""question-area"">
                            <p style=""font-size: 20px; font-weight: bold; margin: 0;"">Is there a person in this image?</p>
                        </div>
                    </div>","0","main_causal_task","6","saving_a_cat_causal","","","",""
"","","","","","html-keyboard-response","28","106713","0.0-28.0","36B33DB420FE4083BB5D5C8854CE7718","019ce627-8dac-7d19-84ac-b89694d57efe","019ce621-c902-75a6-af36-962d82cab856","","null","
                    <div class=""stimulus-container"">
                        <img src=""images/causal_sequence/saving_a_cat_causal/saving_a_cat_causal_7.png"" class=""exp-image"">
                        <div class=""question-area""></div> 
                    </div>","null","","","","","","",""
"","","","","","html-button-response","29","107786","0.0-29.0","36B33DB420FE4083BB5D5C8854CE7718","019ce627-8dac-7d19-84ac-b89694d57efe","019ce621-c902-75a6-af36-962d82cab856","","1071","
                    <div class=""stimulus-container"">
                        <img src=""images/causal_sequence/saving_a_cat_causal/saving_a_cat_causal_7.png"" class=""exp-image"">
                        <div class=""question-area"">
                            <p style=""font-size: 20px; font-weight: bold; margin: 0;"">Is there a person in this image?</p>
                        </div>
                    </div>","0","main_causal_task","7","saving_a_cat_causal","","","",""
"","","","","","html-keyboard-response","30","112790","0.0-30.0","36B33DB420FE4083BB5D5C8854CE7718","019ce627-8dac-7d19-84ac-b89694d57efe","019ce621-c902-75a6-af36-962d82cab856","","null","
                    <div class=""stimulus-container"">
                        <img src=""images/causal_sequence/saving_a_cat_causal/saving_a_cat_causal_8.png"" class=""exp-image"">
                        <div class=""question-area""></div> 
                    </div>","null","","","","","","",""
"","","","","","html-button-response","31","114160","0.0-31.0","36B33DB420FE4083BB5D5C8854CE7718","019ce627-8dac-7d19-84ac-b89694d57efe","019ce621-c902-75a6-af36-962d82cab856","","1368","
                    <div class=""stimulus-container"">
                        <img src=""images/causal_sequence/saving_a_cat_causal/saving_a_cat_causal_8.png"" class=""exp-image"">
                        <div class=""question-area"">
                            <p style=""font-size: 20px; font-weight: bold; margin: 0;"">Is there a person in this image?</p>
                        </div>
                    </div>","0","main_causal_task","8","saving_a_cat_causal","","","",""
"","","","","","html-keyboard-response","32","119169","0.0-32.0","36B33DB420FE4083BB5D5C8854CE7718","019ce627-8dac-7d19-84ac-b89694d57efe","019ce621-c902-75a6-af36-962d82cab856","","null","
                    <div class=""stimulus-container"">
                        <img src=""images/causal_sequence/saving_a_cat_causal/saving_a_cat_causal_9.png"" class=""exp-image"">
                        <div class=""question-area""></div> 
                    </div>","null","","","","","","",""
"","","","","","html-button-response","33","120772","0.0-33.0","36B33DB420FE4083BB5D5C8854CE7718","019ce627-8dac-7d19-84ac-b89694d57efe","019ce621-c902-75a6-af36-962d82cab856","","1601","
                    <div class=""stimulus-container"">
                        <img src=""images/causal_sequence/saving_a_cat_causal/saving_a_cat_causal_9.png"" class=""exp-image"">
                        <div class=""question-area"">
                            <p style=""font-size: 20px; font-weight: bold; margin: 0;"">Is there a person in this image?</p>
                        </div>
                    </div>","0","main_causal_task","9","saving_a_cat_causal","","","",""
"","","","","","html-keyboard-response","34","121781","0.0-34.0","36B33DB420FE4083BB5D5C8854CE7718","019ce627-8dac-7d19-84ac-b89694d57efe","019ce621-c902-75a6-af36-962d82cab856","","null","<div style=""background-color: gray; width: 100vw; height: 100vh;""></div>","null","","","","","","",""
"","","","","","html-keyboard-response","35","126786","0.0-35.0","36B33DB420FE4083BB5D5C8854CE7718","019ce627-8dac-7d19-84ac-b89694d57efe","019ce621-c902-75a6-af36-962d82cab856","","null","
                    <div class=""stimulus-container"">
                        <img src=""images/causal_sequence/the_performance_causal/the_performance_causal_1.png"" class=""exp-image"">
                        <div class=""question-area""></div> 
                    </div>","null","","","","","","",""
"","","","","","html-button-response","36","127625","0.0-36.0","36B33DB420FE4083BB5D5C8854CE7718","019ce627-8dac-7d19-84ac-b89694d57efe","019ce621-c902-75a6-af36-962d82cab856","","837","
                    <div class=""stimulus-container"">
                        <img src=""images/causal_sequence/the_performance_causal/the_performance_causal_1.png"" class=""exp-image"">
                        <div class=""question-area"">
                            <p style=""font-size: 20px; font-weight: bold; margin: 0;"">Is there a person in this image?</p>
                        </div>
                    </div>","0","main_causal_task","1","the_performance_causal","","","",""
"","","","","","html-keyboard-response","37","132630","0.0-37.0","36B33DB420FE4083BB5D5C8854CE7718","019ce627-8dac-7d19-84ac-b89694d57efe","019ce621-c902-75a6-af36-962d82cab856","","null","
                    <div class=""stimulus-container"">
                        <img src=""images/causal_sequence/the_performance_causal/the_performance_causal_2.png"" class=""exp-image"">
                        <div class=""question-area""></div> 
                    </div>","null","","","","","","",""
"","","","","","html-button-response","38","133595","0.0-38.0","36B33DB420FE4083BB5D5C8854CE7718","019ce627-8dac-7d19-84ac-b89694d57efe","019ce621-c902-75a6-af36-962d82cab856","","962","
                    <div class=""stimulus-container"">
                        <img src=""images/causal_sequence/the_performance_causal/the_performance_causal_2.png"" class=""exp-image"">
                        <div class=""question-area"">
                            <p style=""font-size: 20px; font-weight: bold; margin: 0;"">Is there a person in this image?</p>
                        </div>
                    </div>","0","main_causal_task","2","the_performance_causal","","","",""
"","","","","","html-keyboard-response","39","138599","0.0-39.0","36B33DB420FE4083BB5D5C8854CE7718","019ce627-8dac-7d19-84ac-b89694d57efe","019ce621-c902-75a6-af36-962d82cab856","","null","
                    <div class=""stimulus-container"">
                        <img src=""images/causal_sequence/the_performance_causal/the_performance_causal_3.png"" class=""exp-image"">
                        <div class=""question-area""></div> 
                    </div>","null","","","","","","",""
"","","","","","html-button-response","40","139981","0.0-40.0","36B33DB420FE4083BB5D5C8854CE7718","019ce627-8dac-7d19-84ac-b89694d57efe","019ce621-c902-75a6-af36-962d82cab856","","1380","
                    <div class=""stimulus-container"">
                        <img src=""images/causal_sequence/the_performance_causal/the_performance_causal_3.png"" class=""exp-image"">
                        <div class=""question-area"">
                            <p style=""font-size: 20px; font-weight: bold; margin: 0;"">Is there a person in this image?</p>
                        </div>
                    </div>","0","main_causal_task","3","the_performance_causal","","","",""
"","","","","","html-keyboard-response","41","144986","0.0-41.0","36B33DB420FE4083BB5D5C8854CE7718","019ce627-8dac-7d19-84ac-b89694d57efe","019ce621-c902-75a6-af36-962d82cab856","","null","
                    <div class=""stimulus-container"">
                        <img src=""images/causal_sequence/the_performance_causal/the_performance_causal_4.png"" class=""exp-image"">
                        <div class=""question-area""></div> 
                    </div>","null","","","","","","",""
"","","","","","html-button-response","42","146492","0.0-42.0","36B33DB420FE4083BB5D5C8854CE7718","019ce627-8dac-7d19-84ac-b89694d57efe","019ce621-c902-75a6-af36-962d82cab856","","1504","
                    <div class=""stimulus-container"">
                        <img src=""images/causal_sequence/the_performance_causal/the_performance_causal_4.png"" class=""exp-image"">
                        <div class=""question-area"">
                            <p style=""font-size: 20px; font-weight: bold; margin: 0;"">Is there a person in this image?</p>
                        </div>
                    </div>","0","main_causal_task","4","the_performance_causal","","","",""
"","","","","","html-keyboard-response","43","151500","0.0-43.0","36B33DB420FE4083BB5D5C8854CE7718","019ce627-8dac-7d19-84ac-b89694d57efe","019ce621-c902-75a6-af36-962d82cab856","","null","
                    <div class=""stimulus-container"">
                        <img src=""images/causal_sequence/the_performance_causal/the_performance_causal_5.png"" class=""exp-image"">
                        <div class=""question-area""></div> 
                    </div>","null","","","","","","",""
"","","","","","html-button-response","44","153389","0.0-44.0","36B33DB420FE4083BB5D5C8854CE7718","019ce627-8dac-7d19-84ac-b89694d57efe","019ce621-c902-75a6-af36-962d82cab856","","1885","
                    <div class=""stimulus-container"">
                        <img src=""images/causal_sequence/the_performance_causal/the_performance_causal_5.png"" class=""exp-image"">
                        <div class=""question-area"">
                            <p style=""font-size: 20px; font-weight: bold; margin: 0;"">Is there a person in this image?</p>
                        </div>
                    </div>","0","main_causal_task","5","the_performance_causal","","","",""
"","","","","","html-keyboard-response","45","158401","0.0-45.0","36B33DB420FE4083BB5D5C8854CE7718","019ce627-8dac-7d19-84ac-b89694d57efe","019ce621-c902-75a6-af36-962d82cab856","","null","
                    <div class=""stimulus-container"">
                        <img src=""images/causal_sequence/the_performance_causal/the_performance_causal_6.png"" class=""exp-image"">
                        <div class=""question-area""></div> 
                    </div>","null","","","","","","",""
"","","","","","html-button-response","46","159286","0.0-46.0","36B33DB420FE4083BB5D5C8854CE7718","019ce627-8dac-7d19-84ac-b89694d57efe","019ce621-c902-75a6-af36-962d82cab856","","882","
                    <div class=""stimulus-container"">
                        <img src=""images/causal_sequence/the_performance_causal/the_performance_causal_6.png"" class=""exp-image"">
                        <div class=""question-area"">
                            <p style=""font-size: 20px; font-weight: bold; margin: 0;"">Is there a person in this image?</p>
                        </div>
                    </div>","0","main_causal_task","6","the_performance_causal","","","",""
"","","","","","html-keyboard-response","47","164297","0.0-47.0","36B33DB420FE4083BB5D5C8854CE7718","019ce627-8dac-7d19-84ac-b89694d57efe","019ce621-c902-75a6-af36-962d82cab856","","null","
                    <div class=""stimulus-container"">
                        <img src=""images/causal_sequence/the_performance_causal/the_performance_causal_7.png"" class=""exp-image"">
                        <div class=""question-area""></div> 
                    </div>","null","","","","","","",""
"","","","","","html-button-response","48","165224","0.0-48.0","36B33DB420FE4083BB5D5C8854CE7718","019ce627-8dac-7d19-84ac-b89694d57efe","019ce621-c902-75a6-af36-962d82cab856","","925","
                    <div class=""stimulus-container"">
                        <img src=""images/causal_sequence/the_performance_causal/the_performance_causal_7.png"" class=""exp-image"">
                        <div class=""question-area"">
                            <p style=""font-size: 20px; font-weight: bold; margin: 0;"">Is there a person in this image?</p>
                        </div>
                    </div>","0","main_causal_task","7","the_performance_causal","","","",""
"","","","","","html-keyboard-response","49","170230","0.0-49.0","36B33DB420FE4083BB5D5C8854CE7718","019ce627-8dac-7d19-84ac-b89694d57efe","019ce621-c902-75a6-af36-962d82cab856","","null","
                    <div class=""stimulus-container"">
                        <img src=""images/causal_sequence/the_performance_causal/the_performance_causal_8.png"" class=""exp-image"">
                        <div class=""question-area""></div> 
                    </div>","null","","","","","","",""
"","","","","","html-button-response","50","171519","0.0-50.0","36B33DB420FE4083BB5D5C8854CE7718","019ce627-8dac-7d19-84ac-b89694d57efe","019ce621-c902-75a6-af36-962d82cab856","","1287","
                    <div class=""stimulus-container"">
                        <img src=""images/causal_sequence/the_performance_causal/the_performance_causal_8.png"" class=""exp-image"">
                        <div class=""question-area"">
                            <p style=""font-size: 20px; font-weight: bold; margin: 0;"">Is there a person in this image?</p>
                        </div>
                    </div>","0","main_causal_task","8","the_performance_causal","","","",""
"","","","","","html-keyboard-response","51","176528","0.0-51.0","36B33DB420FE4083BB5D5C8854CE7718","019ce627-8dac-7d19-84ac-b89694d57efe","019ce621-c902-75a6-af36-962d82cab856","","null","
                    <div class=""stimulus-container"">
                        <img src=""images/causal_sequence/the_performance_causal/the_performance_causal_9.png"" class=""exp-image"">
                        <div class=""question-area""></div> 
                    </div>","null","","","","","","",""
"","","","","","html-button-response","52","178052","0.0-52.0","36B33DB420FE4083BB5D5C8854CE7718","019ce627-8dac-7d19-84ac-b89694d57efe","019ce621-c902-75a6-af36-962d82cab856","","1520","
                    <div class=""stimulus-container"">
                        <img src=""images/causal_sequence/the_performance_causal/the_performance_causal_9.png"" class=""exp-image"">
                        <div class=""question-area"">
                            <p style=""font-size: 20px; font-weight: bold; margin: 0;"">Is there a person in this image?</p>
                        </div>
                    </div>","0","main_causal_task","9","the_performance_causal","","","",""
"","","","","","html-keyboard-response","53","179071","0.0-53.0","36B33DB420FE4083BB5D5C8854CE7718","019ce627-8dac-7d19-84ac-b89694d57efe","019ce621-c902-75a6-af36-962d82cab856","","null","<div style=""background-color: gray; width: 100vw; height: 100vh;""></div>","null","","","","","","",""
"","","","","","html-keyboard-response","54","184074","0.0-54.0","36B33DB420FE4083BB5D5C8854CE7718","019ce627-8dac-7d19-84ac-b89694d57efe","019ce621-c902-75a6-af36-962d82cab856","","null","
                    <div class=""stimulus-container"">
                        <img src=""images/causal_sequence/dog_causal/dog_causal_1.png"" class=""exp-image"">
                        <div class=""question-area""></div> 
                    </div>","null","","","","","","",""
"","","","","","html-button-response","55","185240","0.0-55.0","36B33DB420FE4083BB5D5C8854CE7718","019ce627-8dac-7d19-84ac-b89694d57efe","019ce621-c902-75a6-af36-962d82cab856","","1163","
                    <div class=""stimulus-container"">
                        <img src=""images/causal_sequence/dog_causal/dog_causal_1.png"" class=""exp-image"">
                        <div class=""question-area"">
                            <p style=""font-size: 20px; font-weight: bold; margin: 0;"">Is there a person in this image?</p>
                        </div>
                    </div>","0","main_causal_task","1","dog_causal","","","",""
"","","","","","html-keyboard-response","56","190242","0.0-56.0","36B33DB420FE4083BB5D5C8854CE7718","019ce627-8dac-7d19-84ac-b89694d57efe","019ce621-c902-75a6-af36-962d82cab856","","null","
                    <div class=""stimulus-container"">
                        <img src=""images/causal_sequence/dog_causal/dog_causal_2.png"" class=""exp-image"">
                        <div class=""question-area""></div> 
                    </div>","null","","","","","","",""
"","","","","","html-button-response","57","191197","0.0-57.0","36B33DB420FE4083BB5D5C8854CE7718","019ce627-8dac-7d19-84ac-b89694d57efe","019ce621-c902-75a6-af36-962d82cab856","","953","
                    <div class=""stimulus-container"">
                        <img src=""images/causal_sequence/dog_causal/dog_causal_2.png"" class=""exp-image"">
                        <div class=""question-area"">
                            <p style=""font-size: 20px; font-weight: bold; margin: 0;"">Is there a person in this image?</p>
                        </div>
                    </div>","0","main_causal_task","2","dog_causal","","","",""
"","","","","","html-keyboard-response","58","196202","0.0-58.0","36B33DB420FE4083BB5D5C8854CE7718","019ce627-8dac-7d19-84ac-b89694d57efe","019ce621-c902-75a6-af36-962d82cab856","","null","
                    <div class=""stimulus-container"">
                        <img src=""images/causal_sequence/dog_causal/dog_causal_3.png"" class=""exp-image"">
                        <div class=""question-area""></div> 
                    </div>","null","","","","","","",""
"","","","","","html-button-response","59","197008","0.0-59.0","36B33DB420FE4083BB5D5C8854CE7718","019ce627-8dac-7d19-84ac-b89694d57efe","019ce621-c902-75a6-af36-962d82cab856","","804","
                    <div class=""stimulus-container"">
                        <img src=""images/causal_sequence/dog_causal/dog_causal_3.png"" class=""exp-image"">
                        <div class=""question-area"">
                            <p style=""font-size: 20px; font-weight: bold; margin: 0;"">Is there a person in this image?</p>
                        </div>
                    </div>","0","main_causal_task","3","dog_causal","","","",""
"","","","","","html-keyboard-response","60","202018","0.0-60.0","36B33DB420FE4083BB5D5C8854CE7718","019ce627-8dac-7d19-84ac-b89694d57efe","019ce621-c902-75a6-af36-962d82cab856","","null","
                    <div class=""stimulus-container"">
                        <img src=""images/causal_sequence/dog_causal/dog_causal_4.png"" class=""exp-image"">
                        <div class=""question-area""></div> 
                    </div>","null","","","","","","",""
"","","","","","html-button-response","61","203304","0.0-61.0","36B33DB420FE4083BB5D5C8854CE7718","019ce627-8dac-7d19-84ac-b89694d57efe","019ce621-c902-75a6-af36-962d82cab856","","1284","
                    <div class=""stimulus-container"">
                        <img src=""images/causal_sequence/dog_causal/dog_causal_4.png"" class=""exp-image"">
                        <div class=""question-area"">
                            <p style=""font-size: 20px; font-weight: bold; margin: 0;"">Is there a person in this image?</p>
                        </div>
                    </div>","0","main_causal_task","4","dog_causal","","","",""
"","","","","","html-keyboard-response","62","208314","0.0-62.0","36B33DB420FE4083BB5D5C8854CE7718","019ce627-8dac-7d19-84ac-b89694d57efe","019ce621-c902-75a6-af36-962d82cab856","","null","
                    <div class=""stimulus-container"">
                        <img src=""images/causal_sequence/dog_causal/dog_causal_5.png"" class=""exp-image"">
                        <div class=""question-area""></div> 
                    </div>","null","","","","","","",""
"","","","","","html-button-response","63","209567","0.0-63.0","36B33DB420FE4083BB5D5C8854CE7718","019ce627-8dac-7d19-84ac-b89694d57efe","019ce621-c902-75a6-af36-962d82cab856","","1250","
                    <div class=""stimulus-container"">
                        <img src=""images/causal_sequence/dog_causal/dog_causal_5.png"" class=""exp-image"">
                        <div class=""question-area"">
                            <p style=""font-size: 20px; font-weight: bold; margin: 0;"">Is there a person in this image?</p>
                        </div>
                    </div>","0","main_causal_task","5","dog_causal","","","",""
"","","","","","html-keyboard-response","64","214573","0.0-64.0","36B33DB420FE4083BB5D5C8854CE7718","019ce627-8dac-7d19-84ac-b89694d57efe","019ce621-c902-75a6-af36-962d82cab856","","null","
                    <div class=""stimulus-container"">
                        <img src=""images/causal_sequence/dog_causal/dog_causal_6.png"" class=""exp-image"">
                        <div class=""question-area""></div> 
                    </div>","null","","","","","","",""
"","","","","","html-button-response","65","216007","0.0-65.0","36B33DB420FE4083BB5D5C8854CE7718","019ce627-8dac-7d19-84ac-b89694d57efe","019ce621-c902-75a6-af36-962d82cab856","","1432","
                    <div class=""stimulus-container"">
                        <img src=""images/causal_sequence/dog_causal/dog_causal_6.png"" class=""exp-image"">
                        <div class=""question-area"">
                            <p style=""font-size: 20px; font-weight: bold; margin: 0;"">Is there a person in this image?</p>
                        </div>
                    </div>","0","main_causal_task","6","dog_causal","","","",""
"","","","","","html-keyboard-response","66","221010","0.0-66.0","36B33DB420FE4083BB5D5C8854CE7718","019ce627-8dac-7d19-84ac-b89694d57efe","019ce621-c902-75a6-af36-962d82cab856","","null","
                    <div class=""stimulus-container"">
                        <img src=""images/causal_sequence/dog_causal/dog_causal_7.png"" class=""exp-image"">
                        <div class=""question-area""></div> 
                    </div>","null","","","","","","",""
"","","","","","html-button-response","67","221974","0.0-67.0","36B33DB420FE4083BB5D5C8854CE7718","019ce627-8dac-7d19-84ac-b89694d57efe","019ce621-c902-75a6-af36-962d82cab856","","963","
                    <div class=""stimulus-container"">
                        <img src=""images/causal_sequence/dog_causal/dog_causal_7.png"" class=""exp-image"">
                        <div class=""question-area"">
                            <p style=""font-size: 20px; font-weight: bold; margin: 0;"">Is there a person in this image?</p>
                        </div>
                    </div>","0","main_causal_task","7","dog_causal","","","",""
"","","","","","html-keyboard-response","68","226982","0.0-68.0","36B33DB420FE4083BB5D5C8854CE7718","019ce627-8dac-7d19-84ac-b89694d57efe","019ce621-c902-75a6-af36-962d82cab856","","null","
                    <div class=""stimulus-container"">
                        <img src=""images/causal_sequence/dog_causal/dog_causal_8.png"" class=""exp-image"">
                        <div class=""question-area""></div> 
                    </div>","null","","","","","","",""
"","","","","","html-button-response","69","227636","0.0-69.0","36B33DB420FE4083BB5D5C8854CE7718","019ce627-8dac-7d19-84ac-b89694d57efe","019ce621-c902-75a6-af36-962d82cab856","","651","
                    <div class=""stimulus-container"">
                        <img src=""images/causal_sequence/dog_causal/dog_causal_8.png"" class=""exp-image"">
                        <div class=""question-area"">
                            <p style=""font-size: 20px; font-weight: bold; margin: 0;"">Is there a person in this image?</p>
                        </div>
                    </div>","0","main_causal_task","8","dog_causal","","","",""
"","","","","","html-keyboard-response","70","232647","0.0-70.0","36B33DB420FE4083BB5D5C8854CE7718","019ce627-8dac-7d19-84ac-b89694d57efe","019ce621-c902-75a6-af36-962d82cab856","","null","
                    <div class=""stimulus-container"">
                        <img src=""images/causal_sequence/dog_causal/dog_causal_9.png"" class=""exp-image"">
                        <div class=""question-area""></div> 
                    </div>","null","","","","","","",""
"","","","","","html-button-response","71","233322","0.0-71.0","36B33DB420FE4083BB5D5C8854CE7718","019ce627-8dac-7d19-84ac-b89694d57efe","019ce621-c902-75a6-af36-962d82cab856","","674","
                    <div class=""stimulus-container"">
                        <img src=""images/causal_sequence/dog_causal/dog_causal_9.png"" class=""exp-image"">
                        <div class=""question-area"">
                            <p style=""font-size: 20px; font-weight: bold; margin: 0;"">Is there a person in this image?</p>
                        </div>
                    </div>","0","main_causal_task","9","dog_causal","","","",""
"","","","","","html-keyboard-response","72","234327","0.0-72.0","36B33DB420FE4083BB5D5C8854CE7718","019ce627-8dac-7d19-84ac-b89694d57efe","019ce621-c902-75a6-af36-962d82cab856","","null","<div style=""background-color: gray; width: 100vw; height: 100vh;""></div>","null","","","","","","",""
"","","","","","html-keyboard-response","73","239331","0.0-73.0","36B33DB420FE4083BB5D5C8854CE7718","019ce627-8dac-7d19-84ac-b89694d57efe","019ce621-c902-75a6-af36-962d82cab856","","null","
                    <div class=""stimulus-container"">
                        <img src=""images/causal_sequence/museum_causal/museum_causal_1.png"" class=""exp-image"">
                        <div class=""question-area""></div> 
                    </div>","null","","","","","","",""
"","","","","","html-button-response","74","240857","0.0-74.0","36B33DB420FE4083BB5D5C8854CE7718","019ce627-8dac-7d19-84ac-b89694d57efe","019ce621-c902-75a6-af36-962d82cab856","","1524","
                    <div class=""stimulus-container"">
                        <img src=""images/causal_sequence/museum_causal/museum_causal_1.png"" class=""exp-image"">
                        <div class=""question-area"">
                            <p style=""font-size: 20px; font-weight: bold; margin: 0;"">Is there a person in this image?</p>
                        </div>
                    </div>","0","main_causal_task","1","museum_causal","","","",""
"","","","","","html-keyboard-response","75","245859","0.0-75.0","36B33DB420FE4083BB5D5C8854CE7718","019ce627-8dac-7d19-84ac-b89694d57efe","019ce621-c902-75a6-af36-962d82cab856","","null","
                    <div class=""stimulus-container"">
                        <img src=""images/causal_sequence/museum_causal/museum_causal_2.png"" class=""exp-image"">
                        <div class=""question-area""></div> 
                    </div>","null","","","","","","",""
"","","","","","html-button-response","76","248212","0.0-76.0","36B33DB420FE4083BB5D5C8854CE7718","019ce627-8dac-7d19-84ac-b89694d57efe","019ce621-c902-75a6-af36-962d82cab856","","2350","
                    <div class=""stimulus-container"">
                        <img src=""images/causal_sequence/museum_causal/museum_causal_2.png"" class=""exp-image"">
                        <div class=""question-area"">
                            <p style=""font-size: 20px; font-weight: bold; margin: 0;"">Is there a person in this image?</p>
                        </div>
                    </div>","1","main_causal_task","2","museum_causal","","","",""
"","","","","","html-keyboard-response","77","253216","0.0-77.0","36B33DB420FE4083BB5D5C8854CE7718","019ce627-8dac-7d19-84ac-b89694d57efe","019ce621-c902-75a6-af36-962d82cab856","","null","
                    <div class=""stimulus-container"">
                        <img src=""images/causal_sequence/museum_causal/museum_causal_3.png"" class=""exp-image"">
                        <div class=""question-area""></div> 
                    </div>","null","","","","","","",""
"","","","","","html-button-response","78","254455","0.0-78.0","36B33DB420FE4083BB5D5C8854CE7718","019ce627-8dac-7d19-84ac-b89694d57efe","019ce621-c902-75a6-af36-962d82cab856","","1233","
                    <div class=""stimulus-container"">
                        <img src=""images/causal_sequence/museum_causal/museum_causal_3.png"" class=""exp-image"">
                        <div class=""question-area"">
                            <p style=""font-size: 20px; font-weight: bold; margin: 0;"">Is there a person in this image?</p>
                        </div>
                    </div>","0","main_causal_task","3","museum_causal","","","",""
"","","","","","html-keyboard-response","79","259467","0.0-79.0","36B33DB420FE4083BB5D5C8854CE7718","019ce627-8dac-7d19-84ac-b89694d57efe","019ce621-c902-75a6-af36-962d82cab856","","null","
                    <div class=""stimulus-container"">
                        <img src=""images/causal_sequence/museum_causal/museum_causal_4.png"" class=""exp-image"">
                        <div class=""question-area""></div> 
                    </div>","null","","","","","","",""
"","","","","","html-button-response","80","260995","0.0-80.0","36B33DB420FE4083BB5D5C8854CE7718","019ce627-8dac-7d19-84ac-b89694d57efe","019ce621-c902-75a6-af36-962d82cab856","","1526","
                    <div class=""stimulus-container"">
                        <img src=""images/causal_sequence/museum_causal/museum_causal_4.png"" class=""exp-image"">
                        <div class=""question-area"">
                            <p style=""font-size: 20px; font-weight: bold; margin: 0;"">Is there a person in this image?</p>
                        </div>
                    </div>","1","main_causal_task","4","museum_causal","","","",""
"","","","","","html-keyboard-response","81","266005","0.0-81.0","36B33DB420FE4083BB5D5C8854CE7718","019ce627-8dac-7d19-84ac-b89694d57efe","019ce621-c902-75a6-af36-962d82cab856","","null","
                    <div class=""stimulus-container"">
                        <img src=""images/causal_sequence/museum_causal/museum_causal_5.png"" class=""exp-image"">
                        <div class=""question-area""></div> 
                    </div>","null","","","","","","",""
"","","","","","html-button-response","82","267124","0.0-82.0","36B33DB420FE4083BB5D5C8854CE7718","019ce627-8dac-7d19-84ac-b89694d57efe","019ce621-c902-75a6-af36-962d82cab856","","1117","
                    <div class=""stimulus-container"">
                        <img src=""images/causal_sequence/museum_causal/museum_causal_5.png"" class=""exp-image"">
                        <div class=""question-area"">
                            <p style=""font-size: 20px; font-weight: bold; margin: 0;"">Is there a person in this image?</p>
                        </div>
                    </div>","0","main_causal_task","5","museum_causal","","","",""
"","","","","","html-keyboard-response","83","272128","0.0-83.0","36B33DB420FE4083BB5D5C8854CE7718","019ce627-8dac-7d19-84ac-b89694d57efe","019ce621-c902-75a6-af36-962d82cab856","","null","
                    <div class=""stimulus-container"">
                        <img src=""images/causal_sequence/museum_causal/museum_causal_6.png"" class=""exp-image"">
                        <div class=""question-area""></div> 
                    </div>","null","","","","","","",""
"","","","","","html-button-response","84","272873","0.0-84.0","36B33DB420FE4083BB5D5C8854CE7718","019ce627-8dac-7d19-84ac-b89694d57efe","019ce621-c902-75a6-af36-962d82cab856","","742","
                    <div class=""stimulus-container"">
                        <img src=""images/causal_sequence/museum_causal/museum_causal_6.png"" class=""exp-image"">
                        <div class=""question-area"">
                            <p style=""font-size: 20px; font-weight: bold; margin: 0;"">Is there a person in this image?</p>
                        </div>
                    </div>","0","main_causal_task","6","museum_causal","","","",""
"","","","","","html-keyboard-response","85","277878","0.0-85.0","36B33DB420FE4083BB5D5C8854CE7718","019ce627-8dac-7d19-84ac-b89694d57efe","019ce621-c902-75a6-af36-962d82cab856","","null","
                    <div class=""stimulus-container"">
                        <img src=""images/causal_sequence/museum_causal/museum_causal_7.png"" class=""exp-image"">
                        <div class=""question-area""></div> 
                    </div>","null","","","","","","",""
"","","","","","html-button-response","86","278760","0.0-86.0","36B33DB420FE4083BB5D5C8854CE7718","019ce627-8dac-7d19-84ac-b89694d57efe","019ce621-c902-75a6-af36-962d82cab856","","880","
                    <div class=""stimulus-container"">
                        <img src=""images/causal_sequence/museum_causal/museum_causal_7.png"" class=""exp-image"">
                        <div class=""question-area"">
                            <p style=""font-size: 20px; font-weight: bold; margin: 0;"">Is there a person in this image?</p>
                        </div>
                    </div>","1","main_causal_task","7","museum_causal","","","",""
"","","","","","html-keyboard-response","87","283774","0.0-87.0","36B33DB420FE4083BB5D5C8854CE7718","019ce627-8dac-7d19-84ac-b89694d57efe","019ce621-c902-75a6-af36-962d82cab856","","null","
                    <div class=""stimulus-container"">
                        <img src=""images/causal_sequence/museum_causal/museum_causal_8.png"" class=""exp-image"">
                        <div class=""question-area""></div> 
                    </div>","null","","","","","","",""
"","","","","","html-button-response","88","285280","0.0-88.0","36B33DB420FE4083BB5D5C8854CE7718","019ce627-8dac-7d19-84ac-b89694d57efe","019ce621-c902-75a6-af36-962d82cab856","","1504","
                    <div class=""stimulus-container"">
                        <img src=""images/causal_sequence/museum_causal/museum_causal_8.png"" class=""exp-image"">
                        <div class=""question-area"">
                            <p style=""font-size: 20px; font-weight: bold; margin: 0;"">Is there a person in this image?</p>
                        </div>
                    </div>","0","main_causal_task","8","museum_causal","","","",""
"","","","","","html-keyboard-response","89","290286","0.0-89.0","36B33DB420FE4083BB5D5C8854CE7718","019ce627-8dac-7d19-84ac-b89694d57efe","019ce621-c902-75a6-af36-962d82cab856","","null","
                    <div class=""stimulus-container"">
                        <img src=""images/causal_sequence/museum_causal/museum_causal_9.png"" class=""exp-image"">
                        <div class=""question-area""></div> 
                    </div>","null","","","","","","",""
"","","","","","html-button-response","90","292746","0.0-90.0","36B33DB420FE4083BB5D5C8854CE7718","019ce627-8dac-7d19-84ac-b89694d57efe","019ce621-c902-75a6-af36-962d82cab856","","2458","
                    <div class=""stimulus-container"">
                        <img src=""images/causal_sequence/museum_causal/museum_causal_9.png"" class=""exp-image"">
                        <div class=""question-area"">
                            <p style=""font-size: 20px; font-weight: bold; margin: 0;"">Is there a person in this image?</p>
                        </div>
                    </div>","1","main_causal_task","9","museum_causal","","","",""
"","","","","","html-keyboard-response","91","293753","0.0-91.0","36B33DB420FE4083BB5D5C8854CE7718","019ce627-8dac-7d19-84ac-b89694d57efe","019ce621-c902-75a6-af36-962d82cab856","","null","<div style=""background-color: gray; width: 100vw; height: 100vh;""></div>","null","","","","","","",""
"","","","","","html-keyboard-response","92","298756","0.0-92.0","36B33DB420FE4083BB5D5C8854CE7718","019ce627-8dac-7d19-84ac-b89694d57efe","019ce621-c902-75a6-af36-962d82cab856","","null","
                    <div class=""stimulus-container"">
                        <img src=""images/causal_sequence/coin_causal/coin_causal_1.png"" class=""exp-image"">
                        <div class=""question-area""></div> 
                    </div>","null","","","","","","",""
"","","","","","html-button-response","93","299788","0.0-93.0","36B33DB420FE4083BB5D5C8854CE7718","019ce627-8dac-7d19-84ac-b89694d57efe","019ce621-c902-75a6-af36-962d82cab856","","1030","
                    <div class=""stimulus-container"">
                        <img src=""images/causal_sequence/coin_causal/coin_causal_1.png"" class=""exp-image"">
                        <div class=""question-area"">
                            <p style=""font-size: 20px; font-weight: bold; margin: 0;"">Is there a person in this image?</p>
                        </div>
                    </div>","0","main_causal_task","1","coin_causal","","","",""
"","","","","","html-keyboard-response","94","304798","0.0-94.0","36B33DB420FE4083BB5D5C8854CE7718","019ce627-8dac-7d19-84ac-b89694d57efe","019ce621-c902-75a6-af36-962d82cab856","","null","
                    <div class=""stimulus-container"">
                        <img src=""images/causal_sequence/coin_causal/coin_causal_2.png"" class=""exp-image"">
                        <div class=""question-area""></div> 
                    </div>","null","","","","","","",""
"","","","","","html-button-response","95","305824","0.0-95.0","36B33DB420FE4083BB5D5C8854CE7718","019ce627-8dac-7d19-84ac-b89694d57efe","019ce621-c902-75a6-af36-962d82cab856","","1023","
                    <div class=""stimulus-container"">
                        <img src=""images/causal_sequence/coin_causal/coin_causal_2.png"" class=""exp-image"">
                        <div class=""question-area"">
                            <p style=""font-size: 20px; font-weight: bold; margin: 0;"">Is there a person in this image?</p>
                        </div>
                    </div>","0","main_causal_task","2","coin_causal","","","",""
"","","","","","html-keyboard-response","96","310832","0.0-96.0","36B33DB420FE4083BB5D5C8854CE7718","019ce627-8dac-7d19-84ac-b89694d57efe","019ce621-c902-75a6-af36-962d82cab856","","null","
                    <div class=""stimulus-container"">
                        <img src=""images/causal_sequence/coin_causal/coin_causal_3.png"" class=""exp-image"">
                        <div class=""question-area""></div> 
                    </div>","null","","","","","","",""
"","","","","","html-button-response","97","312090","0.0-97.0","36B33DB420FE4083BB5D5C8854CE7718","019ce627-8dac-7d19-84ac-b89694d57efe","019ce621-c902-75a6-af36-962d82cab856","","1256","
                    <div class=""stimulus-container"">
                        <img src=""images/causal_sequence/coin_causal/coin_causal_3.png"" class=""exp-image"">
                        <div class=""question-area"">
                            <p style=""font-size: 20px; font-weight: bold; margin: 0;"">Is there a person in this image?</p>
                        </div>
                    </div>","0","main_causal_task","3","coin_causal","","","",""
"","","","","","html-keyboard-response","98","317097","0.0-98.0","36B33DB420FE4083BB5D5C8854CE7718","019ce627-8dac-7d19-84ac-b89694d57efe","019ce621-c902-75a6-af36-962d82cab856","","null","
                    <div class=""stimulus-container"">
                        <img src=""images/causal_sequence/coin_causal/coin_causal_4.png"" class=""exp-image"">
                        <div class=""question-area""></div> 
                    </div>","null","","","","","","",""
"","","","","","html-button-response","99","318532","0.0-99.0","36B33DB420FE4083BB5D5C8854CE7718","019ce627-8dac-7d19-84ac-b89694d57efe","019ce621-c902-75a6-af36-962d82cab856","","1433","
                    <div class=""stimulus-container"">
                        <img src=""images/causal_sequence/coin_causal/coin_causal_4.png"" class=""exp-image"">
                        <div class=""question-area"">
                            <p style=""font-size: 20px; font-weight: bold; margin: 0;"">Is there a person in this image?</p>
                        </div>
                    </div>","0","main_causal_task","4","coin_causal","","","",""
"","","","","","html-keyboard-response","100","323539","0.0-100.0","36B33DB420FE4083BB5D5C8854CE7718","019ce627-8dac-7d19-84ac-b89694d57efe","019ce621-c902-75a6-af36-962d82cab856","","null","
                    <div class=""stimulus-container"">
                        <img src=""images/causal_sequence/coin_causal/coin_causal_5.png"" class=""exp-image"">
                        <div class=""question-area""></div> 
                    </div>","null","","","","","","",""
"","","","","","html-button-response","101","324685","0.0-101.0","36B33DB420FE4083BB5D5C8854CE7718","019ce627-8dac-7d19-84ac-b89694d57efe","019ce621-c902-75a6-af36-962d82cab856","","1143","
                    <div class=""stimulus-container"">
                        <img src=""images/causal_sequence/coin_causal/coin_causal_5.png"" class=""exp-image"">
                        <div class=""question-area"">
                            <p style=""font-size: 20px; font-weight: bold; margin: 0;"">Is there a person in this image?</p>
                        </div>
                    </div>","0","main_causal_task","5","coin_causal","","","",""
"","","","","","html-keyboard-response","102","329692","0.0-102.0","36B33DB420FE4083BB5D5C8854CE7718","019ce627-8dac-7d19-84ac-b89694d57efe","019ce621-c902-75a6-af36-962d82cab856","","null","
                    <div class=""stimulus-container"">
                        <img src=""images/causal_sequence/coin_causal/coin_causal_6.png"" class=""exp-image"">
                        <div class=""question-area""></div> 
                    </div>","null","","","","","","",""
"","","","","","html-button-response","103","331524","0.0-103.0","36B33DB420FE4083BB5D5C8854CE7718","019ce627-8dac-7d19-84ac-b89694d57efe","019ce621-c902-75a6-af36-962d82cab856","","1830","
                    <div class=""stimulus-container"">
                        <img src=""images/causal_sequence/coin_causal/coin_causal_6.png"" class=""exp-image"">
                        <div class=""question-area"">
                            <p style=""font-size: 20px; font-weight: bold; margin: 0;"">Is there a person in this image?</p>
                        </div>
                    </div>","0","main_causal_task","6","coin_causal","","","",""
"","","","","","html-keyboard-response","104","336529","0.0-104.0","36B33DB420FE4083BB5D5C8854CE7718","019ce627-8dac-7d19-84ac-b89694d57efe","019ce621-c902-75a6-af36-962d82cab856","","null","
                    <div class=""stimulus-container"">
                        <img src=""images/causal_sequence/coin_causal/coin_causal_7.png"" class=""exp-image"">
                        <div class=""question-area""></div> 
                    </div>","null","","","","","","",""
"","","","","","html-button-response","105","338097","0.0-105.0","36B33DB420FE4083BB5D5C8854CE7718","019ce627-8dac-7d19-84ac-b89694d57efe","019ce621-c902-75a6-af36-962d82cab856","","1566","
                    <div class=""stimulus-container"">
                        <img src=""images/causal_sequence/coin_causal/coin_causal_7.png"" class=""exp-image"">
                        <div class=""question-area"">
                            <p style=""font-size: 20px; font-weight: bold; margin: 0;"">Is there a person in this image?</p>
                        </div>
                    </div>","1","main_causal_task","7","coin_causal","","","",""
"","","","","","html-keyboard-response","106","343108","0.0-106.0","36B33DB420FE4083BB5D5C8854CE7718","019ce627-8dac-7d19-84ac-b89694d57efe","019ce621-c902-75a6-af36-962d82cab856","","null","
                    <div class=""stimulus-container"">
                        <img src=""images/causal_sequence/coin_causal/coin_causal_8.png"" class=""exp-image"">
                        <div class=""question-area""></div> 
                    </div>","null","","","","","","",""
"","","","","","html-button-response","107","345836","0.0-107.0","36B33DB420FE4083BB5D5C8854CE7718","019ce627-8dac-7d19-84ac-b89694d57efe","019ce621-c902-75a6-af36-962d82cab856","","2727","
                    <div class=""stimulus-container"">
                        <img src=""images/causal_sequence/coin_causal/coin_causal_8.png"" class=""exp-image"">
                        <div class=""question-area"">
                            <p style=""font-size: 20px; font-weight: bold; margin: 0;"">Is there a person in this image?</p>
                        </div>
                    </div>","0","main_causal_task","8","coin_causal","","","",""
"","","","","","html-keyboard-response","108","350844","0.0-108.0","36B33DB420FE4083BB5D5C8854CE7718","019ce627-8dac-7d19-84ac-b89694d57efe","019ce621-c902-75a6-af36-962d82cab856","","null","
                    <div class=""stimulus-container"">
                        <img src=""images/causal_sequence/coin_causal/coin_causal_9.png"" class=""exp-image"">
                        <div class=""question-area""></div> 
                    </div>","null","","","","","","",""
"","","","","","html-button-response","109","353248","0.0-109.0","36B33DB420FE4083BB5D5C8854CE7718","019ce627-8dac-7d19-84ac-b89694d57efe","019ce621-c902-75a6-af36-962d82cab856","","2402","
                    <div class=""stimulus-container"">
                        <img src=""images/causal_sequence/coin_causal/coin_causal_9.png"" class=""exp-image"">
                        <div class=""question-area"">
                            <p style=""font-size: 20px; font-weight: bold; margin: 0;"">Is there a person in this image?</p>
                        </div>
                    </div>","0","main_causal_task","9","coin_causal","","","",""
"","","","","","html-keyboard-response","110","354252","0.0-110.0","36B33DB420FE4083BB5D5C8854CE7718","019ce627-8dac-7d19-84ac-b89694d57efe","019ce621-c902-75a6-af36-962d82cab856","","null","<div style=""background-color: gray; width: 100vw; height: 100vh;""></div>","null","","","","","","",""
"","","","","","html-keyboard-response","111","359258","0.0-111.0","36B33DB420FE4083BB5D5C8854CE7718","019ce627-8dac-7d19-84ac-b89694d57efe","019ce621-c902-75a6-af36-962d82cab856","","null","
                    <div class=""stimulus-container"">
                        <img src=""images/causal_sequence/package_causal/package_causal_1.png"" class=""exp-image"">
                        <div class=""question-area""></div> 
                    </div>","null","","","","","","",""
"","","","","","html-button-response","112","360711","0.0-112.0","36B33DB420FE4083BB5D5C8854CE7718","019ce627-8dac-7d19-84ac-b89694d57efe","019ce621-c902-75a6-af36-962d82cab856","","1451","
                    <div class=""stimulus-container"">
                        <img src=""images/causal_sequence/package_causal/package_causal_1.png"" class=""exp-image"">
                        <div class=""question-area"">
                            <p style=""font-size: 20px; font-weight: bold; margin: 0;"">Is there a person in this image?</p>
                        </div>
                    </div>","0","main_causal_task","1","package_causal","","","",""
"","","","","","html-keyboard-response","113","365718","0.0-113.0","36B33DB420FE4083BB5D5C8854CE7718","019ce627-8dac-7d19-84ac-b89694d57efe","019ce621-c902-75a6-af36-962d82cab856","","null","
                    <div class=""stimulus-container"">
                        <img src=""images/causal_sequence/package_causal/package_causal_2.png"" class=""exp-image"">
                        <div class=""question-area""></div> 
                    </div>","null","","","","","","",""
"","","","","","html-button-response","114","367059","0.0-114.0","36B33DB420FE4083BB5D5C8854CE7718","019ce627-8dac-7d19-84ac-b89694d57efe","019ce621-c902-75a6-af36-962d82cab856","","1338","
                    <div class=""stimulus-container"">
                        <img src=""images/causal_sequence/package_causal/package_causal_2.png"" class=""exp-image"">
                        <div class=""question-area"">
                            <p style=""font-size: 20px; font-weight: bold; margin: 0;"">Is there a person in this image?</p>
                        </div>
                    </div>","0","main_causal_task","2","package_causal","","","",""
"","","","","","html-keyboard-response","115","372066","0.0-115.0","36B33DB420FE4083BB5D5C8854CE7718","019ce627-8dac-7d19-84ac-b89694d57efe","019ce621-c902-75a6-af36-962d82cab856","","null","
                    <div class=""stimulus-container"">
                        <img src=""images/causal_sequence/package_causal/package_causal_3.png"" class=""exp-image"">
                        <div class=""question-area""></div> 
                    </div>","null","","","","","","",""
"","","","","","html-button-response","116","373292","0.0-116.0","36B33DB420FE4083BB5D5C8854CE7718","019ce627-8dac-7d19-84ac-b89694d57efe","019ce621-c902-75a6-af36-962d82cab856","","1224","
                    <div class=""stimulus-container"">
                        <img src=""images/causal_sequence/package_causal/package_causal_3.png"" class=""exp-image"">
                        <div class=""question-area"">
                            <p style=""font-size: 20px; font-weight: bold; margin: 0;"">Is there a person in this image?</p>
                        </div>
                    </div>","0","main_causal_task","3","package_causal","","","",""
"","","","","","html-keyboard-response","117","378303","0.0-117.0","36B33DB420FE4083BB5D5C8854CE7718","019ce627-8dac-7d19-84ac-b89694d57efe","019ce621-c902-75a6-af36-962d82cab856","","null","
                    <div class=""stimulus-container"">
                        <img src=""images/causal_sequence/package_causal/package_causal_4.png"" class=""exp-image"">
                        <div class=""question-area""></div> 
                    </div>","null","","","","","","",""
"","","","","","html-button-response","118","379310","0.0-118.0","36B33DB420FE4083BB5D5C8854CE7718","019ce627-8dac-7d19-84ac-b89694d57efe","019ce621-c902-75a6-af36-962d82cab856","","1005","
                    <div class=""stimulus-container"">
                        <img src=""images/causal_sequence/package_causal/package_causal_4.png"" class=""exp-image"">
                        <div class=""question-area"">
                            <p style=""font-size: 20px; font-weight: bold; margin: 0;"">Is there a person in this image?</p>
                        </div>
                    </div>","1","main_causal_task","4","package_causal","","","",""
"","","","","","html-keyboard-response","119","384319","0.0-119.0","36B33DB420FE4083BB5D5C8854CE7718","019ce627-8dac-7d19-84ac-b89694d57efe","019ce621-c902-75a6-af36-962d82cab856","","null","
                    <div class=""stimulus-container"">
                        <img src=""images/causal_sequence/package_causal/package_causal_5.png"" class=""exp-image"">
                        <div class=""question-area""></div> 
                    </div>","null","","","","","","",""
"","","","","","html-button-response","120","385501","0.0-120.0","36B33DB420FE4083BB5D5C8854CE7718","019ce627-8dac-7d19-84ac-b89694d57efe","019ce621-c902-75a6-af36-962d82cab856","","1178","
                    <div class=""stimulus-container"">
                        <img src=""images/causal_sequence/package_causal/package_causal_5.png"" class=""exp-image"">
                        <div class=""question-area"">
                            <p style=""font-size: 20px; font-weight: bold; margin: 0;"">Is there a person in this image?</p>
                        </div>
                    </div>","0","main_causal_task","5","package_causal","","","",""
"","","","","","html-keyboard-response","121","390508","0.0-121.0","36B33DB420FE4083BB5D5C8854CE7718","019ce627-8dac-7d19-84ac-b89694d57efe","019ce621-c902-75a6-af36-962d82cab856","","null","
                    <div class=""stimulus-container"">
                        <img src=""images/causal_sequence/package_causal/package_causal_6.png"" class=""exp-image"">
                        <div class=""question-area""></div> 
                    </div>","null","","","","","","",""
"","","","","","html-button-response","122","392578","0.0-122.0","36B33DB420FE4083BB5D5C8854CE7718","019ce627-8dac-7d19-84ac-b89694d57efe","019ce621-c902-75a6-af36-962d82cab856","","2067","
                    <div class=""stimulus-container"">
                        <img src=""images/causal_sequence/package_causal/package_causal_6.png"" class=""exp-image"">
                        <div class=""question-area"">
                            <p style=""font-size: 20px; font-weight: bold; margin: 0;"">Is there a person in this image?</p>
                        </div>
                    </div>","0","main_causal_task","6","package_causal","","","",""
"","","","","","html-keyboard-response","123","397584","0.0-123.0","36B33DB420FE4083BB5D5C8854CE7718","019ce627-8dac-7d19-84ac-b89694d57efe","019ce621-c902-75a6-af36-962d82cab856","","null","
                    <div class=""stimulus-container"">
                        <img src=""images/causal_sequence/package_causal/package_causal_7.png"" class=""exp-image"">
                        <div class=""question-area""></div> 
                    </div>","null","","","","","","",""
"","","","","","html-button-response","124","399013","0.0-124.0","36B33DB420FE4083BB5D5C8854CE7718","019ce627-8dac-7d19-84ac-b89694d57efe","019ce621-c902-75a6-af36-962d82cab856","","1427","
                    <div class=""stimulus-container"">
                        <img src=""images/causal_sequence/package_causal/package_causal_7.png"" class=""exp-image"">
                        <div class=""question-area"">
                            <p style=""font-size: 20px; font-weight: bold; margin: 0;"">Is there a person in this image?</p>
                        </div>
                    </div>","0","main_causal_task","7","package_causal","","","",""
"","","","","","html-keyboard-response","125","404020","0.0-125.0","36B33DB420FE4083BB5D5C8854CE7718","019ce627-8dac-7d19-84ac-b89694d57efe","019ce621-c902-75a6-af36-962d82cab856","","null","
                    <div class=""stimulus-container"">
                        <img src=""images/causal_sequence/package_causal/package_causal_8.png"" class=""exp-image"">
                        <div class=""question-area""></div> 
                    </div>","null","","","","","","",""
"","","","","","html-button-response","126","404972","0.0-126.0","36B33DB420FE4083BB5D5C8854CE7718","019ce627-8dac-7d19-84ac-b89694d57efe","019ce621-c902-75a6-af36-962d82cab856","","950","
                    <div class=""stimulus-container"">
                        <img src=""images/causal_sequence/package_causal/package_causal_8.png"" class=""exp-image"">
                        <div class=""question-area"">
                            <p style=""font-size: 20px; font-weight: bold; margin: 0;"">Is there a person in this image?</p>
                        </div>
                    </div>","0","main_causal_task","8","package_causal","","","",""
"","","","","","html-keyboard-response","127","409977","0.0-127.0","36B33DB420FE4083BB5D5C8854CE7718","019ce627-8dac-7d19-84ac-b89694d57efe","019ce621-c902-75a6-af36-962d82cab856","","null","
                    <div class=""stimulus-container"">
                        <img src=""images/causal_sequence/package_causal/package_causal_9.png"" class=""exp-image"">
                        <div class=""question-area""></div> 
                    </div>","null","","","","","","",""
"","","","","","html-button-response","128","411567","0.0-128.0","36B33DB420FE4083BB5D5C8854CE7718","019ce627-8dac-7d19-84ac-b89694d57efe","019ce621-c902-75a6-af36-962d82cab856","","1587","
                    <div class=""stimulus-container"">
                        <img src=""images/causal_sequence/package_causal/package_causal_9.png"" class=""exp-image"">
                        <div class=""question-area"">
                            <p style=""font-size: 20px; font-weight: bold; margin: 0;"">Is there a person in this image?</p>
                        </div>
                    </div>","0","main_causal_task","9","package_causal","","","",""
"","","","","","instructions","129","414208","0.0-129.0","36B33DB420FE4083BB5D5C8854CE7718","019ce627-8dac-7d19-84ac-b89694d57efe","019ce621-c902-75a6-af36-962d82cab856","[{""page_index"":0,""viewing_time"":2638}]","2638","","","","","","","","",""
"","","","","","instructions","130","423252","0.0-130.0","36B33DB420FE4083BB5D5C8854CE7718","019ce627-8dac-7d19-84ac-b89694d57efe","019ce621-c902-75a6-af36-962d82cab856","[{""page_index"":0,""viewing_time"":9043}]","9043","","","","","","","","",""
"","","","","","html-keyboard-response","131","424262","0.0-131.0","36B33DB420FE4083BB5D5C8854CE7718","019ce627-8dac-7d19-84ac-b89694d57efe","019ce621-c902-75a6-af36-962d82cab856","","null","
        <div class=""stimulus-container"" style=""display: flex; align-items: center; justify-content: center; gap: 30px;"">
            <img src=""images/instructions/movie_1.png"" class=""exp-image"">
            <div style=""font-size: 40px; font-weight: bold; color: green; border: 5px solid green; padding: 25px; border-radius: 15px; background-color: #f0fff0;"">
                WORTH<br>$1
            </div>
        </div>
        <div class=""question-area""></div>","null","","","","","","",""
"","","","","","html-button-response","132","427270","0.0-132.0","36B33DB420FE4083BB5D5C8854CE7718","019ce627-8dac-7d19-84ac-b89694d57efe","019ce621-c902-75a6-af36-962d82cab856","","null","
        <div class=""stimulus-container"" style=""display: flex; align-items: center; justify-content: center; gap: 30px;"">
            <img src=""images/instructions/movie_1.png"" class=""exp-image"">
            <div style=""font-size: 40px; font-weight: bold; color: green; border: 5px solid green; padding: 25px; border-radius: 15px; background-color: #f0fff0;"">
                WORTH<br>$1
            </div>
        </div>
        <div class=""question-area"">
            <p style=""font-size: 20px; font-weight: bold; margin: 0;"">Was there a person in this image?</p>
        </div>","null","","","","","","",""
"","","","","","instructions","133","432268","0.0-133.0","36B33DB420FE4083BB5D5C8854CE7718","019ce627-8dac-7d19-84ac-b89694d57efe","019ce621-c902-75a6-af36-962d82cab856","[{""page_index"":0,""viewing_time"":4997}]","4997","","","","","","","","",""
"","","","","","html-keyboard-response","134","442277","0.0-134.0","36B33DB420FE4083BB5D5C8854CE7718","019ce627-8dac-7d19-84ac-b89694d57efe","019ce621-c902-75a6-af36-962d82cab856","","null","
            <div class=""stimulus-container"" style=""display: flex; align-items: center; justify-content: center; gap: 30px;"">
                <img src=""images/causal_sequence/saving_a_cat_causal/saving_a_cat_causal_6.png"" class=""exp-image"">
                <div style=""font-size: 40px; font-weight: bold; color: green; border: 5px solid green; padding: 25px; border-radius: 15px; background-color: #f0fff0;"">
                    WORTH<br>$1
                </div>
            </div>
            <div class=""question-area""></div>","null","","","","","","",""
"","","","","","html-button-response","135","443731","0.0-135.0","36B33DB420FE4083BB5D5C8854CE7718","019ce627-8dac-7d19-84ac-b89694d57efe","019ce621-c902-75a6-af36-962d82cab856","","1451","
            <div class=""stimulus-container"" style=""display: flex; align-items: center; justify-content: center; gap: 30px;"">
                <img src=""images/causal_sequence/saving_a_cat_causal/saving_a_cat_causal_6.png"" class=""exp-image"">
                <div style=""font-size: 40px; font-weight: bold; color: green; border: 5px solid green; padding: 25px; border-radius: 15px; background-color: #f0fff0;"">
                    WORTH<br>$1
                </div>
            </div>
            <div class=""question-area"">
                <p style=""font-size: 20px; font-weight: bold; margin: 0;"">Was there a person in this image?</p>
            </div>","0","part2_value_learning","","saving_a_cat_causal","6","","",""
"","","","","","html-keyboard-response","136","453743","0.0-136.0","36B33DB420FE4083BB5D5C8854CE7718","019ce627-8dac-7d19-84ac-b89694d57efe","019ce621-c902-75a6-af36-962d82cab856","","null","
            <div class=""stimulus-container"" style=""display: flex; align-items: center; justify-content: center; gap: 30px;"">
                <img src=""images/causal_sequence/package_causal/package_causal_7.png"" class=""exp-image"">
                <div style=""font-size: 40px; font-weight: bold; color: green; border: 5px solid green; padding: 25px; border-radius: 15px; background-color: #f0fff0;"">
                    WORTH<br>$1
                </div>
            </div>
            <div class=""question-area""></div>","null","","","","","","",""
"","","","","","html-button-response","137","455140","0.0-137.0","36B33DB420FE4083BB5D5C8854CE7718","019ce627-8dac-7d19-84ac-b89694d57efe","019ce621-c902-75a6-af36-962d82cab856","","1395","
            <div class=""stimulus-container"" style=""display: flex; align-items: center; justify-content: center; gap: 30px;"">
                <img src=""images/causal_sequence/package_causal/package_causal_7.png"" class=""exp-image"">
                <div style=""font-size: 40px; font-weight: bold; color: green; border: 5px solid green; padding: 25px; border-radius: 15px; background-color: #f0fff0;"">
                    WORTH<br>$1
                </div>
            </div>
            <div class=""question-area"">
                <p style=""font-size: 20px; font-weight: bold; margin: 0;"">Was there a person in this image?</p>
            </div>","0","part2_value_learning","","package_causal","7","","",""
"","","","","","html-keyboard-response","138","465149","0.0-138.0","36B33DB420FE4083BB5D5C8854CE7718","019ce627-8dac-7d19-84ac-b89694d57efe","019ce621-c902-75a6-af36-962d82cab856","","null","
            <div class=""stimulus-container"" style=""display: flex; align-items: center; justify-content: center; gap: 30px;"">
                <img src=""images/causal_sequence/dog_causal/dog_causal_7.png"" class=""exp-image"">
                <div style=""font-size: 40px; font-weight: bold; color: green; border: 5px solid green; padding: 25px; border-radius: 15px; background-color: #f0fff0;"">
                    WORTH<br>$1
                </div>
            </div>
            <div class=""question-area""></div>","null","","","","","","",""
"","","","","","html-button-response","139","466353","0.0-139.0","36B33DB420FE4083BB5D5C8854CE7718","019ce627-8dac-7d19-84ac-b89694d57efe","019ce621-c902-75a6-af36-962d82cab856","","1201","
            <div class=""stimulus-container"" style=""display: flex; align-items: center; justify-content: center; gap: 30px;"">
                <img src=""images/causal_sequence/dog_causal/dog_causal_7.png"" class=""exp-image"">
                <div style=""font-size: 40px; font-weight: bold; color: green; border: 5px solid green; padding: 25px; border-radius: 15px; background-color: #f0fff0;"">
                    WORTH<br>$1
                </div>
            </div>
            <div class=""question-area"">
                <p style=""font-size: 20px; font-weight: bold; margin: 0;"">Was there a person in this image?</p>
            </div>","0","part2_value_learning","","dog_causal","7","","",""
"","","","","","html-keyboard-response","140","476358","0.0-140.0","36B33DB420FE4083BB5D5C8854CE7718","019ce627-8dac-7d19-84ac-b89694d57efe","019ce621-c902-75a6-af36-962d82cab856","","null","
            <div class=""stimulus-container"" style=""display: flex; align-items: center; justify-content: center; gap: 30px;"">
                <img src=""images/causal_sequence/museum_causal/museum_causal_4.png"" class=""exp-image"">
                <div style=""font-size: 40px; font-weight: bold; color: green; border: 5px solid green; padding: 25px; border-radius: 15px; background-color: #f0fff0;"">
                    WORTH<br>$1
                </div>
            </div>
            <div class=""question-area""></div>","null","","","","","","",""
"","","","","","html-button-response","141","477587","0.0-141.0","36B33DB420FE4083BB5D5C8854CE7718","019ce627-8dac-7d19-84ac-b89694d57efe","019ce621-c902-75a6-af36-962d82cab856","","1226","
            <div class=""stimulus-container"" style=""display: flex; align-items: center; justify-content: center; gap: 30px;"">
                <img src=""images/causal_sequence/museum_causal/museum_causal_4.png"" class=""exp-image"">
                <div style=""font-size: 40px; font-weight: bold; color: green; border: 5px solid green; padding: 25px; border-radius: 15px; background-color: #f0fff0;"">
                    WORTH<br>$1
                </div>
            </div>
            <div class=""question-area"">
                <p style=""font-size: 20px; font-weight: bold; margin: 0;"">Was there a person in this image?</p>
            </div>","1","part2_value_learning","","museum_causal","4","","",""
"","","","","","html-keyboard-response","142","487593","0.0-142.0","36B33DB420FE4083BB5D5C8854CE7718","019ce627-8dac-7d19-84ac-b89694d57efe","019ce621-c902-75a6-af36-962d82cab856","","null","
            <div class=""stimulus-container"" style=""display: flex; align-items: center; justify-content: center; gap: 30px;"">
                <img src=""images/causal_sequence/the_performance_causal/the_performance_causal_7.png"" class=""exp-image"">
                <div style=""font-size: 40px; font-weight: bold; color: green; border: 5px solid green; padding: 25px; border-radius: 15px; background-color: #f0fff0;"">
                    WORTH<br>$1
                </div>
            </div>
            <div class=""question-area""></div>","null","","","","","","",""
"","","","","","html-button-response","143","488570","0.0-143.0","36B33DB420FE4083BB5D5C8854CE7718","019ce627-8dac-7d19-84ac-b89694d57efe","019ce621-c902-75a6-af36-962d82cab856","","975","
            <div class=""stimulus-container"" style=""display: flex; align-items: center; justify-content: center; gap: 30px;"">
                <img src=""images/causal_sequence/the_performance_causal/the_performance_causal_7.png"" class=""exp-image"">
                <div style=""font-size: 40px; font-weight: bold; color: green; border: 5px solid green; padding: 25px; border-radius: 15px; background-color: #f0fff0;"">
                    WORTH<br>$1
                </div>
            </div>
            <div class=""question-area"">
                <p style=""font-size: 20px; font-weight: bold; margin: 0;"">Was there a person in this image?</p>
            </div>","0","part2_value_learning","","the_performance_causal","7","","",""
"","","","","","html-keyboard-response","144","498577","0.0-144.0","36B33DB420FE4083BB5D5C8854CE7718","019ce627-8dac-7d19-84ac-b89694d57efe","019ce621-c902-75a6-af36-962d82cab856","","null","
            <div class=""stimulus-container"" style=""display: flex; align-items: center; justify-content: center; gap: 30px;"">
                <img src=""images/causal_sequence/coin_causal/coin_causal_6.png"" class=""exp-image"">
                <div style=""font-size: 40px; font-weight: bold; color: green; border: 5px solid green; padding: 25px; border-radius: 15px; background-color: #f0fff0;"">
                    WORTH<br>$1
                </div>
            </div>
            <div class=""question-area""></div>","null","","","","","","",""
"","","","","","html-button-response","145","499576","0.0-145.0","36B33DB420FE4083BB5D5C8854CE7718","019ce627-8dac-7d19-84ac-b89694d57efe","019ce621-c902-75a6-af36-962d82cab856","","997","
            <div class=""stimulus-container"" style=""display: flex; align-items: center; justify-content: center; gap: 30px;"">
                <img src=""images/causal_sequence/coin_causal/coin_causal_6.png"" class=""exp-image"">
                <div style=""font-size: 40px; font-weight: bold; color: green; border: 5px solid green; padding: 25px; border-radius: 15px; background-color: #f0fff0;"">
                    WORTH<br>$1
                </div>
            </div>
            <div class=""question-area"">
                <p style=""font-size: 20px; font-weight: bold; margin: 0;"">Was there a person in this image?</p>
            </div>","0","part2_value_learning","","coin_causal","6","","",""
"","","","","","instructions","146","501970","0.0-146.0","36B33DB420FE4083BB5D5C8854CE7718","019ce627-8dac-7d19-84ac-b89694d57efe","019ce621-c902-75a6-af36-962d82cab856","[{""page_index"":0,""viewing_time"":2392}]","2393","","","","","","","","",""
"","","","","","instructions","147","504346","0.0-147.0","36B33DB420FE4083BB5D5C8854CE7718","019ce627-8dac-7d19-84ac-b89694d57efe","019ce621-c902-75a6-af36-962d82cab856","[{""page_index"":0,""viewing_time"":2374}]","2375","","","","","","","","",""
"","","","","","html-keyboard-response","148","514356","0.0-148.0-0.0","36B33DB420FE4083BB5D5C8854CE7718","019ce627-8dac-7d19-84ac-b89694d57efe","019ce621-c902-75a6-af36-962d82cab856","","null","
                        <div style=""font-family: Arial; margin-bottom: 20px;""><h3>Which image is more valuable?</h3></div>
                        <div class=""stimulus-container"" style=""display: flex; width: 1100px; justify-content: center; gap: 50px;"">
                            <img src=""images/causal_sequence/museum_causal/museum_causal_5.png"" class=""exp-image"">
                            <img src=""images/causal_sequence/museum_causal/museum_causal_3.png"" class=""exp-image"">
                        </div>","null","","","","","","",""
"","","","","","html-button-response","149","516030","0.0-148.0-1.0","36B33DB420FE4083BB5D5C8854CE7718","019ce627-8dac-7d19-84ac-b89694d57efe","019ce621-c902-75a6-af36-962d82cab856","","1672","
                        <div style=""font-family: Arial; margin-bottom: 20px;""><h3>Which image is more valuable?</h3></div>
                        <div class=""stimulus-container"" style=""display: flex; width: 1100px; justify-content: center; gap: 50px;"">
                            <img src=""images/causal_sequence/museum_causal/museum_causal_5.png"" class=""exp-image"">
                            <img src=""images/causal_sequence/museum_causal/museum_causal_3.png"" class=""exp-image"">
                        </div>","0","part3_final_choice","","museum_causal","","4","5","1"
"","","","","","html-keyboard-response","150","526038","0.0-149.0-0.0","36B33DB420FE4083BB5D5C8854CE7718","019ce627-8dac-7d19-84ac-b89694d57efe","019ce621-c902-75a6-af36-962d82cab856","","null","
                        <div style=""font-family: Arial; margin-bottom: 20px;""><h3>Which image is more valuable?</h3></div>
                        <div class=""stimulus-container"" style=""display: flex; width: 1100px; justify-content: center; gap: 50px;"">
                            <img src=""images/causal_sequence/the_performance_causal/the_performance_causal_6.png"" class=""exp-image"">
                            <img src=""images/causal_sequence/the_performance_causal/the_performance_causal_8.png"" class=""exp-image"">
                        </div>","null","","","","","","",""
"","","","","","html-button-response","151","527034","0.0-149.0-1.0","36B33DB420FE4083BB5D5C8854CE7718","019ce627-8dac-7d19-84ac-b89694d57efe","019ce621-c902-75a6-af36-962d82cab856","","993","
                        <div style=""font-family: Arial; margin-bottom: 20px;""><h3>Which image is more valuable?</h3></div>
                        <div class=""stimulus-container"" style=""display: flex; width: 1100px; justify-content: center; gap: 50px;"">
                            <img src=""images/causal_sequence/the_performance_causal/the_performance_causal_6.png"" class=""exp-image"">
                            <img src=""images/causal_sequence/the_performance_causal/the_performance_causal_8.png"" class=""exp-image"">
                        </div>","1","part3_final_choice","","the_performance_causal","","7","8","1"
"","","","","","html-keyboard-response","152","537039","0.0-150.0-0.0","36B33DB420FE4083BB5D5C8854CE7718","019ce627-8dac-7d19-84ac-b89694d57efe","019ce621-c902-75a6-af36-962d82cab856","","null","
                        <div style=""font-family: Arial; margin-bottom: 20px;""><h3>Which image is more valuable?</h3></div>
                        <div class=""stimulus-container"" style=""display: flex; width: 1100px; justify-content: center; gap: 50px;"">
                            <img src=""images/causal_sequence/package_causal/package_causal_6.png"" class=""exp-image"">
                            <img src=""images/causal_sequence/package_causal/package_causal_8.png"" class=""exp-image"">
                        </div>","null","","","","","","",""
"","","","","","html-button-response","153","538026","0.0-150.0-1.0","36B33DB420FE4083BB5D5C8854CE7718","019ce627-8dac-7d19-84ac-b89694d57efe","019ce621-c902-75a6-af36-962d82cab856","","984","
                        <div style=""font-family: Arial; margin-bottom: 20px;""><h3>Which image is more valuable?</h3></div>
                        <div class=""stimulus-container"" style=""display: flex; width: 1100px; justify-content: center; gap: 50px;"">
                            <img src=""images/causal_sequence/package_causal/package_causal_6.png"" class=""exp-image"">
                            <img src=""images/causal_sequence/package_causal/package_causal_8.png"" class=""exp-image"">
                        </div>","1","part3_final_choice","","package_causal","","7","8","1"
"","","","","","html-keyboard-response","154","548030","0.0-151.0-0.0","36B33DB420FE4083BB5D5C8854CE7718","019ce627-8dac-7d19-84ac-b89694d57efe","019ce621-c902-75a6-af36-962d82cab856","","null","
                        <div style=""font-family: Arial; margin-bottom: 20px;""><h3>Which image is more valuable?</h3></div>
                        <div class=""stimulus-container"" style=""display: flex; width: 1100px; justify-content: center; gap: 50px;"">
                            <img src=""images/causal_sequence/coin_causal/coin_causal_7.png"" class=""exp-image"">
                            <img src=""images/causal_sequence/coin_causal/coin_causal_5.png"" class=""exp-image"">
                        </div>","null","","","","","","",""
"","","","","","html-button-response","155","551252","0.0-151.0-1.0","36B33DB420FE4083BB5D5C8854CE7718","019ce627-8dac-7d19-84ac-b89694d57efe","019ce621-c902-75a6-af36-962d82cab856","","3219","
                        <div style=""font-family: Arial; margin-bottom: 20px;""><h3>Which image is more valuable?</h3></div>
                        <div class=""stimulus-container"" style=""display: flex; width: 1100px; justify-content: center; gap: 50px;"">
                            <img src=""images/causal_sequence/coin_causal/coin_causal_7.png"" class=""exp-image"">
                            <img src=""images/causal_sequence/coin_causal/coin_causal_5.png"" class=""exp-image"">
                        </div>","0","part3_final_choice","","coin_causal","","6","7","1"
"","","","","","html-keyboard-response","156","561259","0.0-152.0-0.0","36B33DB420FE4083BB5D5C8854CE7718","019ce627-8dac-7d19-84ac-b89694d57efe","019ce621-c902-75a6-af36-962d82cab856","","null","
                        <div style=""font-family: Arial; margin-bottom: 20px;""><h3>Which image is more valuable?</h3></div>
                        <div class=""stimulus-container"" style=""display: flex; width: 1100px; justify-content: center; gap: 50px;"">
                            <img src=""images/causal_sequence/saving_a_cat_causal/saving_a_cat_causal_7.png"" class=""exp-image"">
                            <img src=""images/causal_sequence/saving_a_cat_causal/saving_a_cat_causal_5.png"" class=""exp-image"">
                        </div>","null","","","","","","",""
"","","","","","html-button-response","157","562836","0.0-152.0-1.0","36B33DB420FE4083BB5D5C8854CE7718","019ce627-8dac-7d19-84ac-b89694d57efe","019ce621-c902-75a6-af36-962d82cab856","","1575","
                        <div style=""font-family: Arial; margin-bottom: 20px;""><h3>Which image is more valuable?</h3></div>
                        <div class=""stimulus-container"" style=""display: flex; width: 1100px; justify-content: center; gap: 50px;"">
                            <img src=""images/causal_sequence/saving_a_cat_causal/saving_a_cat_causal_7.png"" class=""exp-image"">
                            <img src=""images/causal_sequence/saving_a_cat_causal/saving_a_cat_causal_5.png"" class=""exp-image"">
                        </div>","0","part3_final_choice","","saving_a_cat_causal","","6","7","1"
"","","","","","html-keyboard-response","158","572840","0.0-153.0-0.0","36B33DB420FE4083BB5D5C8854CE7718","019ce627-8dac-7d19-84ac-b89694d57efe","019ce621-c902-75a6-af36-962d82cab856","","null","
                        <div style=""font-family: Arial; margin-bottom: 20px;""><h3>Which image is more valuable?</h3></div>
                        <div class=""stimulus-container"" style=""display: flex; width: 1100px; justify-content: center; gap: 50px;"">
                            <img src=""images/causal_sequence/dog_causal/dog_causal_6.png"" class=""exp-image"">
                            <img src=""images/causal_sequence/dog_causal/dog_causal_8.png"" class=""exp-image"">
                        </div>","null","","","","","","",""
"","","","","","html-button-response","159","575567","0.0-153.0-1.0","36B33DB420FE4083BB5D5C8854CE7718","019ce627-8dac-7d19-84ac-b89694d57efe","019ce621-c902-75a6-af36-962d82cab856","","2724","
                        <div style=""font-family: Arial; margin-bottom: 20px;""><h3>Which image is more valuable?</h3></div>
                        <div class=""stimulus-container"" style=""display: flex; width: 1100px; justify-content: center; gap: 50px;"">
                            <img src=""images/causal_sequence/dog_causal/dog_causal_6.png"" class=""exp-image"">
                            <img src=""images/causal_sequence/dog_causal/dog_causal_8.png"" class=""exp-image"">
                        </div>","0","part3_final_choice","","dog_causal","","7","6","-1"
"","","","","","survey-text","160","583842","0.0-154.0","36B33DB420FE4083BB5D5C8854CE7718","019ce627-8dac-7d19-84ac-b89694d57efe","019ce621-c902-75a6-af36-962d82cab856","","8264","","{""Q0"":""FEMALE"",""Q1"":""35""}","","","","","","",""
"","","","","","instructions","161","589621","0.0-155.0","36B33DB420FE4083BB5D5C8854CE7718","019ce627-8dac-7d19-84ac-b89694d57efe","019ce621-c902-75a6-af36-962d82cab856","[{""page_index"":0,""viewing_time"":5776}]","5777","","","","","","","","",""
