"success","timeout","failed_images","failed_audio","failed_video","trial_type","trial_index","time_elapsed","internal_node_id","subject_id","study_id","session_id","view_history","rt","stimulus","response","task","image_index","folder","sequence_type","valuable_image_index","reward_type","chosen_image_index","correct_choice"
"true","false","[]","[]","[]","preload","0","9930","0.0-0.0","20C7D855D1124DEF99BC26A3724087D7","019cefb0-7de8-79b8-acb7-3772507deb4b","019cef87-c56d-7b55-9135-c5814367ec25","","","","","","","","","","","",""
"","","","","","instructions","1","98984","0.0-1.0","20C7D855D1124DEF99BC26A3724087D7","019cefb0-7de8-79b8-acb7-3772507deb4b","019cef87-c56d-7b55-9135-c5814367ec25","[{""page_index"":0,""viewing_time"":89052}]","89052","","","","","","","","","",""
"","","","","","instructions","2","109522","0.0-2.0","20C7D855D1124DEF99BC26A3724087D7","019cefb0-7de8-79b8-acb7-3772507deb4b","019cef87-c56d-7b55-9135-c5814367ec25","[{""page_index"":0,""viewing_time"":10537}]","10537","","","","","","","","","",""
"true","","","","","fullscreen","3","112460","0.0-3.0","20C7D855D1124DEF99BC26A3724087D7","019cefb0-7de8-79b8-acb7-3772507deb4b","019cef87-c56d-7b55-9135-c5814367ec25","","1918","","","","","","","","","",""
"","","","","","instructions","4","352760","0.0-4.0","20C7D855D1124DEF99BC26A3724087D7","019cefb0-7de8-79b8-acb7-3772507deb4b","019cef87-c56d-7b55-9135-c5814367ec25","[{""page_index"":0,""viewing_time"":240298}]","240298","","","","","","","","","",""
"","","","","","instructions","5","364131","0.0-5.0","20C7D855D1124DEF99BC26A3724087D7","019cefb0-7de8-79b8-acb7-3772507deb4b","019cef87-c56d-7b55-9135-c5814367ec25","[{""page_index"":0,""viewing_time"":11370}]","11371","","","","","","","","","",""
"","","","","","html-keyboard-response","6","368146","0.0-6.0","20C7D855D1124DEF99BC26A3724087D7","019cefb0-7de8-79b8-acb7-3772507deb4b","019cef87-c56d-7b55-9135-c5814367ec25","","null","
                <div class=""stimulus-container"">
                    <img src=""images/instructions/movie_1.png"" class=""exp-image"">
                    <div class=""question-area""></div> 
                </div>","null","","","","","","","",""
"","","","","","html-button-response","7","371159","0.0-7.0","20C7D855D1124DEF99BC26A3724087D7","019cefb0-7de8-79b8-acb7-3772507deb4b","019cef87-c56d-7b55-9135-c5814367ec25","","null","
                <div class=""stimulus-container"">
                    <img src=""images/instructions/movie_1.png"" class=""exp-image"">
                    <div class=""question-area"">
                        <p style=""font-size: 20px; font-weight: bold; margin: 0;"">Was there a person in this image?</p>
                    </div>
                </div>","null","example_question","1","","","","","",""
"","","","","","html-keyboard-response","8","375164","0.0-8.0","20C7D855D1124DEF99BC26A3724087D7","019cefb0-7de8-79b8-acb7-3772507deb4b","019cef87-c56d-7b55-9135-c5814367ec25","","null","
                <div class=""stimulus-container"">
                    <img src=""images/instructions/movie_2.png"" class=""exp-image"">
                    <div class=""question-area""></div> 
                </div>","null","","","","","","","",""
"","","","","","html-button-response","9","376202","0.0-9.0","20C7D855D1124DEF99BC26A3724087D7","019cefb0-7de8-79b8-acb7-3772507deb4b","019cef87-c56d-7b55-9135-c5814367ec25","","1035","
                <div class=""stimulus-container"">
                    <img src=""images/instructions/movie_2.png"" class=""exp-image"">
                    <div class=""question-area"">
                        <p style=""font-size: 20px; font-weight: bold; margin: 0;"">Was there a person in this image?</p>
                    </div>
                </div>","0","example_question","2","","","","","",""
"","","","","","html-keyboard-response","10","380217","0.0-10.0","20C7D855D1124DEF99BC26A3724087D7","019cefb0-7de8-79b8-acb7-3772507deb4b","019cef87-c56d-7b55-9135-c5814367ec25","","null","
                <div class=""stimulus-container"">
                    <img src=""images/instructions/movie_3.png"" class=""exp-image"">
                    <div class=""question-area""></div> 
                </div>","null","","","","","","","",""
"","","","","","html-button-response","11","381187","0.0-11.0","20C7D855D1124DEF99BC26A3724087D7","019cefb0-7de8-79b8-acb7-3772507deb4b","019cef87-c56d-7b55-9135-c5814367ec25","","967","
                <div class=""stimulus-container"">
                    <img src=""images/instructions/movie_3.png"" class=""exp-image"">
                    <div class=""question-area"">
                        <p style=""font-size: 20px; font-weight: bold; margin: 0;"">Was there a person in this image?</p>
                    </div>
                </div>","0","example_question","3","","","","","",""
"","","","","","html-keyboard-response","12","385190","0.0-12.0","20C7D855D1124DEF99BC26A3724087D7","019cefb0-7de8-79b8-acb7-3772507deb4b","019cef87-c56d-7b55-9135-c5814367ec25","","null","
                <div class=""stimulus-container"">
                    <img src=""images/instructions/movie_4.png"" class=""exp-image"">
                    <div class=""question-area""></div> 
                </div>","null","","","","","","","",""
"","","","","","html-button-response","13","386505","0.0-13.0","20C7D855D1124DEF99BC26A3724087D7","019cefb0-7de8-79b8-acb7-3772507deb4b","019cef87-c56d-7b55-9135-c5814367ec25","","1312","
                <div class=""stimulus-container"">
                    <img src=""images/instructions/movie_4.png"" class=""exp-image"">
                    <div class=""question-area"">
                        <p style=""font-size: 20px; font-weight: bold; margin: 0;"">Was there a person in this image?</p>
                    </div>
                </div>","0","example_question","4","","","","","",""
"","","","","","instructions","14","431671","0.0-14.0","20C7D855D1124DEF99BC26A3724087D7","019cefb0-7de8-79b8-acb7-3772507deb4b","019cef87-c56d-7b55-9135-c5814367ec25","[{""page_index"":0,""viewing_time"":45164}]","45165","","","","","","","","","",""
"","","","","","instructions","15","669219","0.0-15.0","20C7D855D1124DEF99BC26A3724087D7","019cefb0-7de8-79b8-acb7-3772507deb4b","019cef87-c56d-7b55-9135-c5814367ec25","[{""page_index"":0,""viewing_time"":237547}]","237548","","","","","","","","","",""
"","","","","","html-keyboard-response","16","670223","0.0-16.0","20C7D855D1124DEF99BC26A3724087D7","019cefb0-7de8-79b8-acb7-3772507deb4b","019cef87-c56d-7b55-9135-c5814367ec25","","null","<div style=""background-color: white; width: 100vw; height: 100vh;""></div>","null","","","","","","","",""
"","","","","","html-keyboard-response","17","675233","0.0-17.0","20C7D855D1124DEF99BC26A3724087D7","019cefb0-7de8-79b8-acb7-3772507deb4b","019cef87-c56d-7b55-9135-c5814367ec25","","null","
                <div class=""stimulus-container"">
                    <img src=""images/causal_sequence/coin_causal/coin_causal_1.png"" class=""exp-image"">
                    <div class=""question-area""></div> 
                </div>","null","","","","","","","",""
"","","","","","html-button-response","18","676420","0.0-18.0","20C7D855D1124DEF99BC26A3724087D7","019cefb0-7de8-79b8-acb7-3772507deb4b","019cef87-c56d-7b55-9135-c5814367ec25","","1186","
                <div class=""stimulus-container"">
                    <img src=""images/causal_sequence/coin_causal/coin_causal_1.png"" class=""exp-image"">
                    <div class=""question-area"">
                        <p style=""font-size: 20px; font-weight: bold; margin: 0;"">Is there a person in this image?</p>
                    </div>
                </div>","0","main_experiment_trial","1","coin_causal","causal_sequence","","","",""
"","","","","","html-keyboard-response","19","681426","0.0-19.0","20C7D855D1124DEF99BC26A3724087D7","019cefb0-7de8-79b8-acb7-3772507deb4b","019cef87-c56d-7b55-9135-c5814367ec25","","null","
                <div class=""stimulus-container"">
                    <img src=""images/causal_sequence/coin_causal/coin_causal_2.png"" class=""exp-image"">
                    <div class=""question-area""></div> 
                </div>","null","","","","","","","",""
"","","","","","html-button-response","20","682707","0.0-20.0","20C7D855D1124DEF99BC26A3724087D7","019cefb0-7de8-79b8-acb7-3772507deb4b","019cef87-c56d-7b55-9135-c5814367ec25","","1278","
                <div class=""stimulus-container"">
                    <img src=""images/causal_sequence/coin_causal/coin_causal_2.png"" class=""exp-image"">
                    <div class=""question-area"">
                        <p style=""font-size: 20px; font-weight: bold; margin: 0;"">Is there a person in this image?</p>
                    </div>
                </div>","0","main_experiment_trial","2","coin_causal","causal_sequence","","","",""
"","","","","","html-keyboard-response","21","687713","0.0-21.0","20C7D855D1124DEF99BC26A3724087D7","019cefb0-7de8-79b8-acb7-3772507deb4b","019cef87-c56d-7b55-9135-c5814367ec25","","null","
                <div class=""stimulus-container"">
                    <img src=""images/causal_sequence/coin_causal/coin_causal_3.png"" class=""exp-image"">
                    <div class=""question-area""></div> 
                </div>","null","","","","","","","",""
"","","","","","html-button-response","22","688953","0.0-22.0","20C7D855D1124DEF99BC26A3724087D7","019cefb0-7de8-79b8-acb7-3772507deb4b","019cef87-c56d-7b55-9135-c5814367ec25","","1238","
                <div class=""stimulus-container"">
                    <img src=""images/causal_sequence/coin_causal/coin_causal_3.png"" class=""exp-image"">
                    <div class=""question-area"">
                        <p style=""font-size: 20px; font-weight: bold; margin: 0;"">Is there a person in this image?</p>
                    </div>
                </div>","0","main_experiment_trial","3","coin_causal","causal_sequence","","","",""
"","","","","","html-keyboard-response","23","693965","0.0-23.0","20C7D855D1124DEF99BC26A3724087D7","019cefb0-7de8-79b8-acb7-3772507deb4b","019cef87-c56d-7b55-9135-c5814367ec25","","null","
                <div class=""stimulus-container"">
                    <img src=""images/causal_sequence/coin_causal/coin_causal_4.png"" class=""exp-image"">
                    <div class=""question-area""></div> 
                </div>","null","","","","","","","",""
"","","","","","html-button-response","24","695021","0.0-24.0","20C7D855D1124DEF99BC26A3724087D7","019cefb0-7de8-79b8-acb7-3772507deb4b","019cef87-c56d-7b55-9135-c5814367ec25","","1053","
                <div class=""stimulus-container"">
                    <img src=""images/causal_sequence/coin_causal/coin_causal_4.png"" class=""exp-image"">
                    <div class=""question-area"">
                        <p style=""font-size: 20px; font-weight: bold; margin: 0;"">Is there a person in this image?</p>
                    </div>
                </div>","0","main_experiment_trial","4","coin_causal","causal_sequence","","","",""
"","","","","","html-keyboard-response","25","700033","0.0-25.0","20C7D855D1124DEF99BC26A3724087D7","019cefb0-7de8-79b8-acb7-3772507deb4b","019cef87-c56d-7b55-9135-c5814367ec25","","null","
                <div class=""stimulus-container"">
                    <img src=""images/causal_sequence/coin_causal/coin_causal_5.png"" class=""exp-image"">
                    <div class=""question-area""></div> 
                </div>","null","","","","","","","",""
"","","","","","html-button-response","26","700771","0.0-26.0","20C7D855D1124DEF99BC26A3724087D7","019cefb0-7de8-79b8-acb7-3772507deb4b","019cef87-c56d-7b55-9135-c5814367ec25","","735","
                <div class=""stimulus-container"">
                    <img src=""images/causal_sequence/coin_causal/coin_causal_5.png"" class=""exp-image"">
                    <div class=""question-area"">
                        <p style=""font-size: 20px; font-weight: bold; margin: 0;"">Is there a person in this image?</p>
                    </div>
                </div>","0","main_experiment_trial","5","coin_causal","causal_sequence","","","",""
"","","","","","html-keyboard-response","27","705775","0.0-27.0","20C7D855D1124DEF99BC26A3724087D7","019cefb0-7de8-79b8-acb7-3772507deb4b","019cef87-c56d-7b55-9135-c5814367ec25","","null","
                <div class=""stimulus-container"">
                    <img src=""images/causal_sequence/coin_causal/coin_causal_6.png"" class=""exp-image"">
                    <div class=""question-area""></div> 
                </div>","null","","","","","","","",""
"","","","","","html-button-response","28","706570","0.0-28.0","20C7D855D1124DEF99BC26A3724087D7","019cefb0-7de8-79b8-acb7-3772507deb4b","019cef87-c56d-7b55-9135-c5814367ec25","","792","
                <div class=""stimulus-container"">
                    <img src=""images/causal_sequence/coin_causal/coin_causal_6.png"" class=""exp-image"">
                    <div class=""question-area"">
                        <p style=""font-size: 20px; font-weight: bold; margin: 0;"">Is there a person in this image?</p>
                    </div>
                </div>","0","main_experiment_trial","6","coin_causal","causal_sequence","","","",""
"","","","","","html-keyboard-response","29","711575","0.0-29.0","20C7D855D1124DEF99BC26A3724087D7","019cefb0-7de8-79b8-acb7-3772507deb4b","019cef87-c56d-7b55-9135-c5814367ec25","","null","
                <div class=""stimulus-container"">
                    <img src=""images/causal_sequence/coin_causal/coin_causal_7.png"" class=""exp-image"">
                    <div class=""question-area""></div> 
                </div>","null","","","","","","","",""
"","","","","","html-button-response","30","712452","0.0-30.0","20C7D855D1124DEF99BC26A3724087D7","019cefb0-7de8-79b8-acb7-3772507deb4b","019cef87-c56d-7b55-9135-c5814367ec25","","875","
                <div class=""stimulus-container"">
                    <img src=""images/causal_sequence/coin_causal/coin_causal_7.png"" class=""exp-image"">
                    <div class=""question-area"">
                        <p style=""font-size: 20px; font-weight: bold; margin: 0;"">Is there a person in this image?</p>
                    </div>
                </div>","0","main_experiment_trial","7","coin_causal","causal_sequence","","","",""
"","","","","","html-keyboard-response","31","717454","0.0-31.0","20C7D855D1124DEF99BC26A3724087D7","019cefb0-7de8-79b8-acb7-3772507deb4b","019cef87-c56d-7b55-9135-c5814367ec25","","null","
                <div class=""stimulus-container"">
                    <img src=""images/causal_sequence/coin_causal/coin_causal_8.png"" class=""exp-image"">
                    <div class=""question-area""></div> 
                </div>","null","","","","","","","",""
"","","","","","html-button-response","32","718170","0.0-32.0","20C7D855D1124DEF99BC26A3724087D7","019cefb0-7de8-79b8-acb7-3772507deb4b","019cef87-c56d-7b55-9135-c5814367ec25","","714","
                <div class=""stimulus-container"">
                    <img src=""images/causal_sequence/coin_causal/coin_causal_8.png"" class=""exp-image"">
                    <div class=""question-area"">
                        <p style=""font-size: 20px; font-weight: bold; margin: 0;"">Is there a person in this image?</p>
                    </div>
                </div>","0","main_experiment_trial","8","coin_causal","causal_sequence","","","",""
"","","","","","html-keyboard-response","33","723176","0.0-33.0","20C7D855D1124DEF99BC26A3724087D7","019cefb0-7de8-79b8-acb7-3772507deb4b","019cef87-c56d-7b55-9135-c5814367ec25","","null","
                <div class=""stimulus-container"">
                    <img src=""images/causal_sequence/coin_causal/coin_causal_9.png"" class=""exp-image"">
                    <div class=""question-area""></div> 
                </div>","null","","","","","","","",""
"","","","","","html-button-response","34","724008","0.0-34.0","20C7D855D1124DEF99BC26A3724087D7","019cefb0-7de8-79b8-acb7-3772507deb4b","019cef87-c56d-7b55-9135-c5814367ec25","","830","
                <div class=""stimulus-container"">
                    <img src=""images/causal_sequence/coin_causal/coin_causal_9.png"" class=""exp-image"">
                    <div class=""question-area"">
                        <p style=""font-size: 20px; font-weight: bold; margin: 0;"">Is there a person in this image?</p>
                    </div>
                </div>","0","main_experiment_trial","9","coin_causal","causal_sequence","","","",""
"","","","","","html-keyboard-response","35","729012","0.0-35.0","20C7D855D1124DEF99BC26A3724087D7","019cefb0-7de8-79b8-acb7-3772507deb4b","019cef87-c56d-7b55-9135-c5814367ec25","","null","
                <div class=""stimulus-container"">
                    <img src=""images/causal_sequence/coin_causal/coin_causal_ten.png"" class=""exp-image"">
                    <div class=""question-area""></div> 
                </div>","null","","","","","","","",""
"","","","","","html-button-response","36","729708","0.0-36.0","20C7D855D1124DEF99BC26A3724087D7","019cefb0-7de8-79b8-acb7-3772507deb4b","019cef87-c56d-7b55-9135-c5814367ec25","","693","
                <div class=""stimulus-container"">
                    <img src=""images/causal_sequence/coin_causal/coin_causal_ten.png"" class=""exp-image"">
                    <div class=""question-area"">
                        <p style=""font-size: 20px; font-weight: bold; margin: 0;"">Is there a person in this image?</p>
                    </div>
                </div>","0","main_experiment_trial","ten","coin_causal","causal_sequence","","","",""
"","","","","","html-keyboard-response","37","730722","0.0-37.0","20C7D855D1124DEF99BC26A3724087D7","019cefb0-7de8-79b8-acb7-3772507deb4b","019cef87-c56d-7b55-9135-c5814367ec25","","null","<div style=""background-color: white; width: 100vw; height: 100vh;""></div>","null","","","","","","","",""
"","","","","","html-keyboard-response","38","735727","0.0-38.0","20C7D855D1124DEF99BC26A3724087D7","019cefb0-7de8-79b8-acb7-3772507deb4b","019cef87-c56d-7b55-9135-c5814367ec25","","null","
                <div class=""stimulus-container"">
                    <img src=""images/causal_sequence/package_causal/package_causal_1.png"" class=""exp-image"">
                    <div class=""question-area""></div> 
                </div>","null","","","","","","","",""
"","","","","","html-button-response","39","736378","0.0-39.0","20C7D855D1124DEF99BC26A3724087D7","019cefb0-7de8-79b8-acb7-3772507deb4b","019cef87-c56d-7b55-9135-c5814367ec25","","649","
                <div class=""stimulus-container"">
                    <img src=""images/causal_sequence/package_causal/package_causal_1.png"" class=""exp-image"">
                    <div class=""question-area"">
                        <p style=""font-size: 20px; font-weight: bold; margin: 0;"">Is there a person in this image?</p>
                    </div>
                </div>","0","main_experiment_trial","1","package_causal","causal_sequence","","","",""
"","","","","","html-keyboard-response","40","741389","0.0-40.0","20C7D855D1124DEF99BC26A3724087D7","019cefb0-7de8-79b8-acb7-3772507deb4b","019cef87-c56d-7b55-9135-c5814367ec25","","null","
                <div class=""stimulus-container"">
                    <img src=""images/causal_sequence/package_causal/package_causal_2.png"" class=""exp-image"">
                    <div class=""question-area""></div> 
                </div>","null","","","","","","","",""
"","","","","","html-button-response","41","742305","0.0-41.0","20C7D855D1124DEF99BC26A3724087D7","019cefb0-7de8-79b8-acb7-3772507deb4b","019cef87-c56d-7b55-9135-c5814367ec25","","913","
                <div class=""stimulus-container"">
                    <img src=""images/causal_sequence/package_causal/package_causal_2.png"" class=""exp-image"">
                    <div class=""question-area"">
                        <p style=""font-size: 20px; font-weight: bold; margin: 0;"">Is there a person in this image?</p>
                    </div>
                </div>","0","main_experiment_trial","2","package_causal","causal_sequence","","","",""
"","","","","","html-keyboard-response","42","747312","0.0-42.0","20C7D855D1124DEF99BC26A3724087D7","019cefb0-7de8-79b8-acb7-3772507deb4b","019cef87-c56d-7b55-9135-c5814367ec25","","null","
                <div class=""stimulus-container"">
                    <img src=""images/causal_sequence/package_causal/package_causal_3.png"" class=""exp-image"">
                    <div class=""question-area""></div> 
                </div>","null","","","","","","","",""
"","","","","","html-button-response","43","747945","0.0-43.0","20C7D855D1124DEF99BC26A3724087D7","019cefb0-7de8-79b8-acb7-3772507deb4b","019cef87-c56d-7b55-9135-c5814367ec25","","630","
                <div class=""stimulus-container"">
                    <img src=""images/causal_sequence/package_causal/package_causal_3.png"" class=""exp-image"">
                    <div class=""question-area"">
                        <p style=""font-size: 20px; font-weight: bold; margin: 0;"">Is there a person in this image?</p>
                    </div>
                </div>","0","main_experiment_trial","3","package_causal","causal_sequence","","","",""
"","","","","","html-keyboard-response","44","752960","0.0-44.0","20C7D855D1124DEF99BC26A3724087D7","019cefb0-7de8-79b8-acb7-3772507deb4b","019cef87-c56d-7b55-9135-c5814367ec25","","null","
                <div class=""stimulus-container"">
                    <img src=""images/causal_sequence/package_causal/package_causal_4.png"" class=""exp-image"">
                    <div class=""question-area""></div> 
                </div>","null","","","","","","","",""
"","","","","","html-button-response","45","753660","0.0-45.0","20C7D855D1124DEF99BC26A3724087D7","019cefb0-7de8-79b8-acb7-3772507deb4b","019cef87-c56d-7b55-9135-c5814367ec25","","698","
                <div class=""stimulus-container"">
                    <img src=""images/causal_sequence/package_causal/package_causal_4.png"" class=""exp-image"">
                    <div class=""question-area"">
                        <p style=""font-size: 20px; font-weight: bold; margin: 0;"">Is there a person in this image?</p>
                    </div>
                </div>","1","main_experiment_trial","4","package_causal","causal_sequence","","","",""
"","","","","","html-keyboard-response","46","758663","0.0-46.0","20C7D855D1124DEF99BC26A3724087D7","019cefb0-7de8-79b8-acb7-3772507deb4b","019cef87-c56d-7b55-9135-c5814367ec25","","null","
                <div class=""stimulus-container"">
                    <img src=""images/causal_sequence/package_causal/package_causal_5.png"" class=""exp-image"">
                    <div class=""question-area""></div> 
                </div>","null","","","","","","","",""
"","","","","","html-button-response","47","759744","0.0-47.0","20C7D855D1124DEF99BC26A3724087D7","019cefb0-7de8-79b8-acb7-3772507deb4b","019cef87-c56d-7b55-9135-c5814367ec25","","1079","
                <div class=""stimulus-container"">
                    <img src=""images/causal_sequence/package_causal/package_causal_5.png"" class=""exp-image"">
                    <div class=""question-area"">
                        <p style=""font-size: 20px; font-weight: bold; margin: 0;"">Is there a person in this image?</p>
                    </div>
                </div>","0","main_experiment_trial","5","package_causal","causal_sequence","","","",""
"","","","","","html-keyboard-response","48","764761","0.0-48.0","20C7D855D1124DEF99BC26A3724087D7","019cefb0-7de8-79b8-acb7-3772507deb4b","019cef87-c56d-7b55-9135-c5814367ec25","","null","
                <div class=""stimulus-container"">
                    <img src=""images/causal_sequence/package_causal/package_causal_6.png"" class=""exp-image"">
                    <div class=""question-area""></div> 
                </div>","null","","","","","","","",""
"","","","","","html-button-response","49","765724","0.0-49.0","20C7D855D1124DEF99BC26A3724087D7","019cefb0-7de8-79b8-acb7-3772507deb4b","019cef87-c56d-7b55-9135-c5814367ec25","","960","
                <div class=""stimulus-container"">
                    <img src=""images/causal_sequence/package_causal/package_causal_6.png"" class=""exp-image"">
                    <div class=""question-area"">
                        <p style=""font-size: 20px; font-weight: bold; margin: 0;"">Is there a person in this image?</p>
                    </div>
                </div>","0","main_experiment_trial","6","package_causal","causal_sequence","","","",""
"","","","","","html-keyboard-response","50","770741","0.0-50.0","20C7D855D1124DEF99BC26A3724087D7","019cefb0-7de8-79b8-acb7-3772507deb4b","019cef87-c56d-7b55-9135-c5814367ec25","","null","
                <div class=""stimulus-container"">
                    <img src=""images/causal_sequence/package_causal/package_causal_7.png"" class=""exp-image"">
                    <div class=""question-area""></div> 
                </div>","null","","","","","","","",""
"","","","","","html-button-response","51","771676","0.0-51.0","20C7D855D1124DEF99BC26A3724087D7","019cefb0-7de8-79b8-acb7-3772507deb4b","019cef87-c56d-7b55-9135-c5814367ec25","","932","
                <div class=""stimulus-container"">
                    <img src=""images/causal_sequence/package_causal/package_causal_7.png"" class=""exp-image"">
                    <div class=""question-area"">
                        <p style=""font-size: 20px; font-weight: bold; margin: 0;"">Is there a person in this image?</p>
                    </div>
                </div>","0","main_experiment_trial","7","package_causal","causal_sequence","","","",""
"","","","","","html-keyboard-response","52","776690","0.0-52.0","20C7D855D1124DEF99BC26A3724087D7","019cefb0-7de8-79b8-acb7-3772507deb4b","019cef87-c56d-7b55-9135-c5814367ec25","","null","
                <div class=""stimulus-container"">
                    <img src=""images/causal_sequence/package_causal/package_causal_8.png"" class=""exp-image"">
                    <div class=""question-area""></div> 
                </div>","null","","","","","","","",""
"","","","","","html-button-response","53","777379","0.0-53.0","20C7D855D1124DEF99BC26A3724087D7","019cefb0-7de8-79b8-acb7-3772507deb4b","019cef87-c56d-7b55-9135-c5814367ec25","","685","
                <div class=""stimulus-container"">
                    <img src=""images/causal_sequence/package_causal/package_causal_8.png"" class=""exp-image"">
                    <div class=""question-area"">
                        <p style=""font-size: 20px; font-weight: bold; margin: 0;"">Is there a person in this image?</p>
                    </div>
                </div>","0","main_experiment_trial","8","package_causal","causal_sequence","","","",""
"","","","","","html-keyboard-response","54","782387","0.0-54.0","20C7D855D1124DEF99BC26A3724087D7","019cefb0-7de8-79b8-acb7-3772507deb4b","019cef87-c56d-7b55-9135-c5814367ec25","","null","
                <div class=""stimulus-container"">
                    <img src=""images/causal_sequence/package_causal/package_causal_9.png"" class=""exp-image"">
                    <div class=""question-area""></div> 
                </div>","null","","","","","","","",""
"","","","","","html-button-response","55","783141","0.0-55.0","20C7D855D1124DEF99BC26A3724087D7","019cefb0-7de8-79b8-acb7-3772507deb4b","019cef87-c56d-7b55-9135-c5814367ec25","","752","
                <div class=""stimulus-container"">
                    <img src=""images/causal_sequence/package_causal/package_causal_9.png"" class=""exp-image"">
                    <div class=""question-area"">
                        <p style=""font-size: 20px; font-weight: bold; margin: 0;"">Is there a person in this image?</p>
                    </div>
                </div>","0","main_experiment_trial","9","package_causal","causal_sequence","","","",""
"","","","","","html-keyboard-response","56","788143","0.0-56.0","20C7D855D1124DEF99BC26A3724087D7","019cefb0-7de8-79b8-acb7-3772507deb4b","019cef87-c56d-7b55-9135-c5814367ec25","","null","
                <div class=""stimulus-container"">
                    <img src=""images/causal_sequence/package_causal/package_causal_ten.png"" class=""exp-image"">
                    <div class=""question-area""></div> 
                </div>","null","","","","","","","",""
"","","","","","html-button-response","57","789061","0.0-57.0","20C7D855D1124DEF99BC26A3724087D7","019cefb0-7de8-79b8-acb7-3772507deb4b","019cef87-c56d-7b55-9135-c5814367ec25","","915","
                <div class=""stimulus-container"">
                    <img src=""images/causal_sequence/package_causal/package_causal_ten.png"" class=""exp-image"">
                    <div class=""question-area"">
                        <p style=""font-size: 20px; font-weight: bold; margin: 0;"">Is there a person in this image?</p>
                    </div>
                </div>","0","main_experiment_trial","ten","package_causal","causal_sequence","","","",""
"","","","","","html-keyboard-response","58","790065","0.0-58.0","20C7D855D1124DEF99BC26A3724087D7","019cefb0-7de8-79b8-acb7-3772507deb4b","019cef87-c56d-7b55-9135-c5814367ec25","","null","<div style=""background-color: white; width: 100vw; height: 100vh;""></div>","null","","","","","","","",""
"","","","","","html-keyboard-response","59","795074","0.0-59.0","20C7D855D1124DEF99BC26A3724087D7","019cefb0-7de8-79b8-acb7-3772507deb4b","019cef87-c56d-7b55-9135-c5814367ec25","","null","
                <div class=""stimulus-container"">
                    <img src=""images/schematic_sequence/interview_scheme/interview_scheme_1.png"" class=""exp-image"">
                    <div class=""question-area""></div> 
                </div>","null","","","","","","","",""
"","","","","","html-button-response","60","796189","0.0-60.0","20C7D855D1124DEF99BC26A3724087D7","019cefb0-7de8-79b8-acb7-3772507deb4b","019cef87-c56d-7b55-9135-c5814367ec25","","1112","
                <div class=""stimulus-container"">
                    <img src=""images/schematic_sequence/interview_scheme/interview_scheme_1.png"" class=""exp-image"">
                    <div class=""question-area"">
                        <p style=""font-size: 20px; font-weight: bold; margin: 0;"">Is there a person in this image?</p>
                    </div>
                </div>","1","main_experiment_trial","1","interview_scheme","schematic_sequence","","","",""
"","","","","","html-keyboard-response","61","801198","0.0-61.0","20C7D855D1124DEF99BC26A3724087D7","019cefb0-7de8-79b8-acb7-3772507deb4b","019cef87-c56d-7b55-9135-c5814367ec25","","null","
                <div class=""stimulus-container"">
                    <img src=""images/schematic_sequence/interview_scheme/interview_scheme_2.png"" class=""exp-image"">
                    <div class=""question-area""></div> 
                </div>","null","","","","","","","",""
"","","","","","html-button-response","62","802391","0.0-62.0","20C7D855D1124DEF99BC26A3724087D7","019cefb0-7de8-79b8-acb7-3772507deb4b","019cef87-c56d-7b55-9135-c5814367ec25","","1191","
                <div class=""stimulus-container"">
                    <img src=""images/schematic_sequence/interview_scheme/interview_scheme_2.png"" class=""exp-image"">
                    <div class=""question-area"">
                        <p style=""font-size: 20px; font-weight: bold; margin: 0;"">Is there a person in this image?</p>
                    </div>
                </div>","1","main_experiment_trial","2","interview_scheme","schematic_sequence","","","",""
"","","","","","html-keyboard-response","63","807404","0.0-63.0","20C7D855D1124DEF99BC26A3724087D7","019cefb0-7de8-79b8-acb7-3772507deb4b","019cef87-c56d-7b55-9135-c5814367ec25","","null","
                <div class=""stimulus-container"">
                    <img src=""images/schematic_sequence/interview_scheme/interview_scheme_3.png"" class=""exp-image"">
                    <div class=""question-area""></div> 
                </div>","null","","","","","","","",""
"","","","","","html-button-response","64","808057","0.0-64.0","20C7D855D1124DEF99BC26A3724087D7","019cefb0-7de8-79b8-acb7-3772507deb4b","019cef87-c56d-7b55-9135-c5814367ec25","","650","
                <div class=""stimulus-container"">
                    <img src=""images/schematic_sequence/interview_scheme/interview_scheme_3.png"" class=""exp-image"">
                    <div class=""question-area"">
                        <p style=""font-size: 20px; font-weight: bold; margin: 0;"">Is there a person in this image?</p>
                    </div>
                </div>","1","main_experiment_trial","3","interview_scheme","schematic_sequence","","","",""
"","","","","","html-keyboard-response","65","813059","0.0-65.0","20C7D855D1124DEF99BC26A3724087D7","019cefb0-7de8-79b8-acb7-3772507deb4b","019cef87-c56d-7b55-9135-c5814367ec25","","null","
                <div class=""stimulus-container"">
                    <img src=""images/schematic_sequence/interview_scheme/interview_scheme_4.png"" class=""exp-image"">
                    <div class=""question-area""></div> 
                </div>","null","","","","","","","",""
"","","","","","html-button-response","66","813758","0.0-66.0","20C7D855D1124DEF99BC26A3724087D7","019cefb0-7de8-79b8-acb7-3772507deb4b","019cef87-c56d-7b55-9135-c5814367ec25","","697","
                <div class=""stimulus-container"">
                    <img src=""images/schematic_sequence/interview_scheme/interview_scheme_4.png"" class=""exp-image"">
                    <div class=""question-area"">
                        <p style=""font-size: 20px; font-weight: bold; margin: 0;"">Is there a person in this image?</p>
                    </div>
                </div>","1","main_experiment_trial","4","interview_scheme","schematic_sequence","","","",""
"","","","","","html-keyboard-response","67","818772","0.0-67.0","20C7D855D1124DEF99BC26A3724087D7","019cefb0-7de8-79b8-acb7-3772507deb4b","019cef87-c56d-7b55-9135-c5814367ec25","","null","
                <div class=""stimulus-container"">
                    <img src=""images/schematic_sequence/interview_scheme/interview_scheme_5.png"" class=""exp-image"">
                    <div class=""question-area""></div> 
                </div>","null","","","","","","","",""
"","","","","","html-button-response","68","820117","0.0-68.0","20C7D855D1124DEF99BC26A3724087D7","019cefb0-7de8-79b8-acb7-3772507deb4b","019cef87-c56d-7b55-9135-c5814367ec25","","1342","
                <div class=""stimulus-container"">
                    <img src=""images/schematic_sequence/interview_scheme/interview_scheme_5.png"" class=""exp-image"">
                    <div class=""question-area"">
                        <p style=""font-size: 20px; font-weight: bold; margin: 0;"">Is there a person in this image?</p>
                    </div>
                </div>","0","main_experiment_trial","5","interview_scheme","schematic_sequence","","","",""
"","","","","","html-keyboard-response","69","825122","0.0-69.0","20C7D855D1124DEF99BC26A3724087D7","019cefb0-7de8-79b8-acb7-3772507deb4b","019cef87-c56d-7b55-9135-c5814367ec25","","null","
                <div class=""stimulus-container"">
                    <img src=""images/schematic_sequence/interview_scheme/interview_scheme_6.png"" class=""exp-image"">
                    <div class=""question-area""></div> 
                </div>","null","","","","","","","",""
"","","","","","html-button-response","70","825964","0.0-70.0","20C7D855D1124DEF99BC26A3724087D7","019cefb0-7de8-79b8-acb7-3772507deb4b","019cef87-c56d-7b55-9135-c5814367ec25","","839","
                <div class=""stimulus-container"">
                    <img src=""images/schematic_sequence/interview_scheme/interview_scheme_6.png"" class=""exp-image"">
                    <div class=""question-area"">
                        <p style=""font-size: 20px; font-weight: bold; margin: 0;"">Is there a person in this image?</p>
                    </div>
                </div>","0","main_experiment_trial","6","interview_scheme","schematic_sequence","","","",""
"","","","","","html-keyboard-response","71","830975","0.0-71.0","20C7D855D1124DEF99BC26A3724087D7","019cefb0-7de8-79b8-acb7-3772507deb4b","019cef87-c56d-7b55-9135-c5814367ec25","","null","
                <div class=""stimulus-container"">
                    <img src=""images/schematic_sequence/interview_scheme/interview_scheme_7.png"" class=""exp-image"">
                    <div class=""question-area""></div> 
                </div>","null","","","","","","","",""
"","","","","","html-button-response","72","831632","0.0-72.0","20C7D855D1124DEF99BC26A3724087D7","019cefb0-7de8-79b8-acb7-3772507deb4b","019cef87-c56d-7b55-9135-c5814367ec25","","654","
                <div class=""stimulus-container"">
                    <img src=""images/schematic_sequence/interview_scheme/interview_scheme_7.png"" class=""exp-image"">
                    <div class=""question-area"">
                        <p style=""font-size: 20px; font-weight: bold; margin: 0;"">Is there a person in this image?</p>
                    </div>
                </div>","0","main_experiment_trial","7","interview_scheme","schematic_sequence","","","",""
"","","","","","html-keyboard-response","73","836642","0.0-73.0","20C7D855D1124DEF99BC26A3724087D7","019cefb0-7de8-79b8-acb7-3772507deb4b","019cef87-c56d-7b55-9135-c5814367ec25","","null","
                <div class=""stimulus-container"">
                    <img src=""images/schematic_sequence/interview_scheme/interview_scheme_8.png"" class=""exp-image"">
                    <div class=""question-area""></div> 
                </div>","null","","","","","","","",""
"","","","","","html-button-response","74","837267","0.0-74.0","20C7D855D1124DEF99BC26A3724087D7","019cefb0-7de8-79b8-acb7-3772507deb4b","019cef87-c56d-7b55-9135-c5814367ec25","","622","
                <div class=""stimulus-container"">
                    <img src=""images/schematic_sequence/interview_scheme/interview_scheme_8.png"" class=""exp-image"">
                    <div class=""question-area"">
                        <p style=""font-size: 20px; font-weight: bold; margin: 0;"">Is there a person in this image?</p>
                    </div>
                </div>","0","main_experiment_trial","8","interview_scheme","schematic_sequence","","","",""
"","","","","","html-keyboard-response","75","842278","0.0-75.0","20C7D855D1124DEF99BC26A3724087D7","019cefb0-7de8-79b8-acb7-3772507deb4b","019cef87-c56d-7b55-9135-c5814367ec25","","null","
                <div class=""stimulus-container"">
                    <img src=""images/schematic_sequence/interview_scheme/interview_scheme_9.png"" class=""exp-image"">
                    <div class=""question-area""></div> 
                </div>","null","","","","","","","",""
"","","","","","html-button-response","76","842932","0.0-76.0","20C7D855D1124DEF99BC26A3724087D7","019cefb0-7de8-79b8-acb7-3772507deb4b","019cef87-c56d-7b55-9135-c5814367ec25","","651","
                <div class=""stimulus-container"">
                    <img src=""images/schematic_sequence/interview_scheme/interview_scheme_9.png"" class=""exp-image"">
                    <div class=""question-area"">
                        <p style=""font-size: 20px; font-weight: bold; margin: 0;"">Is there a person in this image?</p>
                    </div>
                </div>","0","main_experiment_trial","9","interview_scheme","schematic_sequence","","","",""
"","","","","","html-keyboard-response","77","847940","0.0-77.0","20C7D855D1124DEF99BC26A3724087D7","019cefb0-7de8-79b8-acb7-3772507deb4b","019cef87-c56d-7b55-9135-c5814367ec25","","null","
                <div class=""stimulus-container"">
                    <img src=""images/schematic_sequence/interview_scheme/interview_scheme_ten.png"" class=""exp-image"">
                    <div class=""question-area""></div> 
                </div>","null","","","","","","","",""
"","","","","","html-button-response","78","848777","0.0-78.0","20C7D855D1124DEF99BC26A3724087D7","019cefb0-7de8-79b8-acb7-3772507deb4b","019cef87-c56d-7b55-9135-c5814367ec25","","835","
                <div class=""stimulus-container"">
                    <img src=""images/schematic_sequence/interview_scheme/interview_scheme_ten.png"" class=""exp-image"">
                    <div class=""question-area"">
                        <p style=""font-size: 20px; font-weight: bold; margin: 0;"">Is there a person in this image?</p>
                    </div>
                </div>","0","main_experiment_trial","ten","interview_scheme","schematic_sequence","","","",""
"","","","","","html-keyboard-response","79","849783","0.0-79.0","20C7D855D1124DEF99BC26A3724087D7","019cefb0-7de8-79b8-acb7-3772507deb4b","019cef87-c56d-7b55-9135-c5814367ec25","","null","<div style=""background-color: white; width: 100vw; height: 100vh;""></div>","null","","","","","","","",""
"","","","","","html-keyboard-response","80","854791","0.0-80.0","20C7D855D1124DEF99BC26A3724087D7","019cefb0-7de8-79b8-acb7-3772507deb4b","019cef87-c56d-7b55-9135-c5814367ec25","","null","
                <div class=""stimulus-container"">
                    <img src=""images/causal_sequence/dog_causal/dog_causal_1.png"" class=""exp-image"">
                    <div class=""question-area""></div> 
                </div>","null","","","","","","","",""
"","","","","","html-button-response","81","856531","0.0-81.0","20C7D855D1124DEF99BC26A3724087D7","019cefb0-7de8-79b8-acb7-3772507deb4b","019cef87-c56d-7b55-9135-c5814367ec25","","1737","
                <div class=""stimulus-container"">
                    <img src=""images/causal_sequence/dog_causal/dog_causal_1.png"" class=""exp-image"">
                    <div class=""question-area"">
                        <p style=""font-size: 20px; font-weight: bold; margin: 0;"">Is there a person in this image?</p>
                    </div>
                </div>","0","main_experiment_trial","1","dog_causal","causal_sequence","","","",""
"","","","","","html-keyboard-response","82","861542","0.0-82.0","20C7D855D1124DEF99BC26A3724087D7","019cefb0-7de8-79b8-acb7-3772507deb4b","019cef87-c56d-7b55-9135-c5814367ec25","","null","
                <div class=""stimulus-container"">
                    <img src=""images/causal_sequence/dog_causal/dog_causal_2.png"" class=""exp-image"">
                    <div class=""question-area""></div> 
                </div>","null","","","","","","","",""
"","","","","","html-button-response","83","864001","0.0-83.0","20C7D855D1124DEF99BC26A3724087D7","019cefb0-7de8-79b8-acb7-3772507deb4b","019cef87-c56d-7b55-9135-c5814367ec25","","2456","
                <div class=""stimulus-container"">
                    <img src=""images/causal_sequence/dog_causal/dog_causal_2.png"" class=""exp-image"">
                    <div class=""question-area"">
                        <p style=""font-size: 20px; font-weight: bold; margin: 0;"">Is there a person in this image?</p>
                    </div>
                </div>","0","main_experiment_trial","2","dog_causal","causal_sequence","","","",""
"","","","","","html-keyboard-response","84","869007","0.0-84.0","20C7D855D1124DEF99BC26A3724087D7","019cefb0-7de8-79b8-acb7-3772507deb4b","019cef87-c56d-7b55-9135-c5814367ec25","","null","
                <div class=""stimulus-container"">
                    <img src=""images/causal_sequence/dog_causal/dog_causal_3.png"" class=""exp-image"">
                    <div class=""question-area""></div> 
                </div>","null","","","","","","","",""
"","","","","","html-button-response","85","871914","0.0-85.0","20C7D855D1124DEF99BC26A3724087D7","019cefb0-7de8-79b8-acb7-3772507deb4b","019cef87-c56d-7b55-9135-c5814367ec25","","2905","
                <div class=""stimulus-container"">
                    <img src=""images/causal_sequence/dog_causal/dog_causal_3.png"" class=""exp-image"">
                    <div class=""question-area"">
                        <p style=""font-size: 20px; font-weight: bold; margin: 0;"">Is there a person in this image?</p>
                    </div>
                </div>","0","main_experiment_trial","3","dog_causal","causal_sequence","","","",""
"","","","","","html-keyboard-response","86","876924","0.0-86.0","20C7D855D1124DEF99BC26A3724087D7","019cefb0-7de8-79b8-acb7-3772507deb4b","019cef87-c56d-7b55-9135-c5814367ec25","","null","
                <div class=""stimulus-container"">
                    <img src=""images/causal_sequence/dog_causal/dog_causal_4.png"" class=""exp-image"">
                    <div class=""question-area""></div> 
                </div>","null","","","","","","","",""
"","","","","","html-button-response","87","879941","0.0-87.0","20C7D855D1124DEF99BC26A3724087D7","019cefb0-7de8-79b8-acb7-3772507deb4b","019cef87-c56d-7b55-9135-c5814367ec25","","null","
                <div class=""stimulus-container"">
                    <img src=""images/causal_sequence/dog_causal/dog_causal_4.png"" class=""exp-image"">
                    <div class=""question-area"">
                        <p style=""font-size: 20px; font-weight: bold; margin: 0;"">Is there a person in this image?</p>
                    </div>
                </div>","null","main_experiment_trial","4","dog_causal","causal_sequence","","","",""
"","","","","","html-keyboard-response","88","884950","0.0-88.0","20C7D855D1124DEF99BC26A3724087D7","019cefb0-7de8-79b8-acb7-3772507deb4b","019cef87-c56d-7b55-9135-c5814367ec25","","null","
                <div class=""stimulus-container"">
                    <img src=""images/causal_sequence/dog_causal/dog_causal_5.png"" class=""exp-image"">
                    <div class=""question-area""></div> 
                </div>","null","","","","","","","",""
"","","","","","html-button-response","89","887959","0.0-89.0","20C7D855D1124DEF99BC26A3724087D7","019cefb0-7de8-79b8-acb7-3772507deb4b","019cef87-c56d-7b55-9135-c5814367ec25","","null","
                <div class=""stimulus-container"">
                    <img src=""images/causal_sequence/dog_causal/dog_causal_5.png"" class=""exp-image"">
                    <div class=""question-area"">
                        <p style=""font-size: 20px; font-weight: bold; margin: 0;"">Is there a person in this image?</p>
                    </div>
                </div>","null","main_experiment_trial","5","dog_causal","causal_sequence","","","",""
"","","","","","html-keyboard-response","90","892964","0.0-90.0","20C7D855D1124DEF99BC26A3724087D7","019cefb0-7de8-79b8-acb7-3772507deb4b","019cef87-c56d-7b55-9135-c5814367ec25","","null","
                <div class=""stimulus-container"">
                    <img src=""images/causal_sequence/dog_causal/dog_causal_6.png"" class=""exp-image"">
                    <div class=""question-area""></div> 
                </div>","null","","","","","","","",""
"","","","","","html-button-response","91","893781","0.0-91.0","20C7D855D1124DEF99BC26A3724087D7","019cefb0-7de8-79b8-acb7-3772507deb4b","019cef87-c56d-7b55-9135-c5814367ec25","","814","
                <div class=""stimulus-container"">
                    <img src=""images/causal_sequence/dog_causal/dog_causal_6.png"" class=""exp-image"">
                    <div class=""question-area"">
                        <p style=""font-size: 20px; font-weight: bold; margin: 0;"">Is there a person in this image?</p>
                    </div>
                </div>","0","main_experiment_trial","6","dog_causal","causal_sequence","","","",""
"","","","","","html-keyboard-response","92","898792","0.0-92.0","20C7D855D1124DEF99BC26A3724087D7","019cefb0-7de8-79b8-acb7-3772507deb4b","019cef87-c56d-7b55-9135-c5814367ec25","","null","
                <div class=""stimulus-container"">
                    <img src=""images/causal_sequence/dog_causal/dog_causal_7.png"" class=""exp-image"">
                    <div class=""question-area""></div> 
                </div>","null","","","","","","","",""
"","","","","","html-button-response","93","899403","0.0-93.0","20C7D855D1124DEF99BC26A3724087D7","019cefb0-7de8-79b8-acb7-3772507deb4b","019cef87-c56d-7b55-9135-c5814367ec25","","609","
                <div class=""stimulus-container"">
                    <img src=""images/causal_sequence/dog_causal/dog_causal_7.png"" class=""exp-image"">
                    <div class=""question-area"">
                        <p style=""font-size: 20px; font-weight: bold; margin: 0;"">Is there a person in this image?</p>
                    </div>
                </div>","0","main_experiment_trial","7","dog_causal","causal_sequence","","","",""
"","","","","","html-keyboard-response","94","904417","0.0-94.0","20C7D855D1124DEF99BC26A3724087D7","019cefb0-7de8-79b8-acb7-3772507deb4b","019cef87-c56d-7b55-9135-c5814367ec25","","null","
                <div class=""stimulus-container"">
                    <img src=""images/causal_sequence/dog_causal/dog_causal_8.png"" class=""exp-image"">
                    <div class=""question-area""></div> 
                </div>","null","","","","","","","",""
"","","","","","html-button-response","95","905149","0.0-95.0","20C7D855D1124DEF99BC26A3724087D7","019cefb0-7de8-79b8-acb7-3772507deb4b","019cef87-c56d-7b55-9135-c5814367ec25","","730","
                <div class=""stimulus-container"">
                    <img src=""images/causal_sequence/dog_causal/dog_causal_8.png"" class=""exp-image"">
                    <div class=""question-area"">
                        <p style=""font-size: 20px; font-weight: bold; margin: 0;"">Is there a person in this image?</p>
                    </div>
                </div>","0","main_experiment_trial","8","dog_causal","causal_sequence","","","",""
"","","","","","html-keyboard-response","96","910152","0.0-96.0","20C7D855D1124DEF99BC26A3724087D7","019cefb0-7de8-79b8-acb7-3772507deb4b","019cef87-c56d-7b55-9135-c5814367ec25","","null","
                <div class=""stimulus-container"">
                    <img src=""images/causal_sequence/dog_causal/dog_causal_9.png"" class=""exp-image"">
                    <div class=""question-area""></div> 
                </div>","null","","","","","","","",""
"","","","","","html-button-response","97","910851","0.0-97.0","20C7D855D1124DEF99BC26A3724087D7","019cefb0-7de8-79b8-acb7-3772507deb4b","019cef87-c56d-7b55-9135-c5814367ec25","","697","
                <div class=""stimulus-container"">
                    <img src=""images/causal_sequence/dog_causal/dog_causal_9.png"" class=""exp-image"">
                    <div class=""question-area"">
                        <p style=""font-size: 20px; font-weight: bold; margin: 0;"">Is there a person in this image?</p>
                    </div>
                </div>","0","main_experiment_trial","9","dog_causal","causal_sequence","","","",""
"","","","","","html-keyboard-response","98","915860","0.0-98.0","20C7D855D1124DEF99BC26A3724087D7","019cefb0-7de8-79b8-acb7-3772507deb4b","019cef87-c56d-7b55-9135-c5814367ec25","","null","
                <div class=""stimulus-container"">
                    <img src=""images/causal_sequence/dog_causal/dog_causal_ten.png"" class=""exp-image"">
                    <div class=""question-area""></div> 
                </div>","null","","","","","","","",""
"","","","","","html-button-response","99","916714","0.0-99.0","20C7D855D1124DEF99BC26A3724087D7","019cefb0-7de8-79b8-acb7-3772507deb4b","019cef87-c56d-7b55-9135-c5814367ec25","","852","
                <div class=""stimulus-container"">
                    <img src=""images/causal_sequence/dog_causal/dog_causal_ten.png"" class=""exp-image"">
                    <div class=""question-area"">
                        <p style=""font-size: 20px; font-weight: bold; margin: 0;"">Is there a person in this image?</p>
                    </div>
                </div>","0","main_experiment_trial","ten","dog_causal","causal_sequence","","","",""
"","","","","","html-keyboard-response","100","917720","0.0-100.0","20C7D855D1124DEF99BC26A3724087D7","019cefb0-7de8-79b8-acb7-3772507deb4b","019cef87-c56d-7b55-9135-c5814367ec25","","null","<div style=""background-color: white; width: 100vw; height: 100vh;""></div>","null","","","","","","","",""
"","","","","","html-keyboard-response","101","922723","0.0-101.0","20C7D855D1124DEF99BC26A3724087D7","019cefb0-7de8-79b8-acb7-3772507deb4b","019cef87-c56d-7b55-9135-c5814367ec25","","null","
                <div class=""stimulus-container"">
                    <img src=""images/schematic_sequence/hotel_scheme/hotel_scheme_1.png"" class=""exp-image"">
                    <div class=""question-area""></div> 
                </div>","null","","","","","","","",""
"","","","","","html-button-response","102","924043","0.0-102.0","20C7D855D1124DEF99BC26A3724087D7","019cefb0-7de8-79b8-acb7-3772507deb4b","019cef87-c56d-7b55-9135-c5814367ec25","","1318","
                <div class=""stimulus-container"">
                    <img src=""images/schematic_sequence/hotel_scheme/hotel_scheme_1.png"" class=""exp-image"">
                    <div class=""question-area"">
                        <p style=""font-size: 20px; font-weight: bold; margin: 0;"">Is there a person in this image?</p>
                    </div>
                </div>","1","main_experiment_trial","1","hotel_scheme","schematic_sequence","","","",""
"","","","","","html-keyboard-response","103","929058","0.0-103.0","20C7D855D1124DEF99BC26A3724087D7","019cefb0-7de8-79b8-acb7-3772507deb4b","019cef87-c56d-7b55-9135-c5814367ec25","","null","
                <div class=""stimulus-container"">
                    <img src=""images/schematic_sequence/hotel_scheme/hotel_scheme_2.png"" class=""exp-image"">
                    <div class=""question-area""></div> 
                </div>","null","","","","","","","",""
"","","","","","html-button-response","104","929736","0.0-104.0","20C7D855D1124DEF99BC26A3724087D7","019cefb0-7de8-79b8-acb7-3772507deb4b","019cef87-c56d-7b55-9135-c5814367ec25","","676","
                <div class=""stimulus-container"">
                    <img src=""images/schematic_sequence/hotel_scheme/hotel_scheme_2.png"" class=""exp-image"">
                    <div class=""question-area"">
                        <p style=""font-size: 20px; font-weight: bold; margin: 0;"">Is there a person in this image?</p>
                    </div>
                </div>","0","main_experiment_trial","2","hotel_scheme","schematic_sequence","","","",""
"","","","","","html-keyboard-response","105","934747","0.0-105.0","20C7D855D1124DEF99BC26A3724087D7","019cefb0-7de8-79b8-acb7-3772507deb4b","019cef87-c56d-7b55-9135-c5814367ec25","","null","
                <div class=""stimulus-container"">
                    <img src=""images/schematic_sequence/hotel_scheme/hotel_scheme_3.png"" class=""exp-image"">
                    <div class=""question-area""></div> 
                </div>","null","","","","","","","",""
"","","","","","html-button-response","106","935672","0.0-106.0","20C7D855D1124DEF99BC26A3724087D7","019cefb0-7de8-79b8-acb7-3772507deb4b","019cef87-c56d-7b55-9135-c5814367ec25","","923","
                <div class=""stimulus-container"">
                    <img src=""images/schematic_sequence/hotel_scheme/hotel_scheme_3.png"" class=""exp-image"">
                    <div class=""question-area"">
                        <p style=""font-size: 20px; font-weight: bold; margin: 0;"">Is there a person in this image?</p>
                    </div>
                </div>","0","main_experiment_trial","3","hotel_scheme","schematic_sequence","","","",""
"","","","","","html-keyboard-response","107","940675","0.0-107.0","20C7D855D1124DEF99BC26A3724087D7","019cefb0-7de8-79b8-acb7-3772507deb4b","019cef87-c56d-7b55-9135-c5814367ec25","","null","
                <div class=""stimulus-container"">
                    <img src=""images/schematic_sequence/hotel_scheme/hotel_scheme_4.png"" class=""exp-image"">
                    <div class=""question-area""></div> 
                </div>","null","","","","","","","",""
"","","","","","html-button-response","108","941453","0.0-108.0","20C7D855D1124DEF99BC26A3724087D7","019cefb0-7de8-79b8-acb7-3772507deb4b","019cef87-c56d-7b55-9135-c5814367ec25","","776","
                <div class=""stimulus-container"">
                    <img src=""images/schematic_sequence/hotel_scheme/hotel_scheme_4.png"" class=""exp-image"">
                    <div class=""question-area"">
                        <p style=""font-size: 20px; font-weight: bold; margin: 0;"">Is there a person in this image?</p>
                    </div>
                </div>","1","main_experiment_trial","4","hotel_scheme","schematic_sequence","","","",""
"","","","","","html-keyboard-response","109","946457","0.0-109.0","20C7D855D1124DEF99BC26A3724087D7","019cefb0-7de8-79b8-acb7-3772507deb4b","019cef87-c56d-7b55-9135-c5814367ec25","","null","
                <div class=""stimulus-container"">
                    <img src=""images/schematic_sequence/hotel_scheme/hotel_scheme_5.png"" class=""exp-image"">
                    <div class=""question-area""></div> 
                </div>","null","","","","","","","",""
"","","","","","html-button-response","110","947175","0.0-110.0","20C7D855D1124DEF99BC26A3724087D7","019cefb0-7de8-79b8-acb7-3772507deb4b","019cef87-c56d-7b55-9135-c5814367ec25","","715","
                <div class=""stimulus-container"">
                    <img src=""images/schematic_sequence/hotel_scheme/hotel_scheme_5.png"" class=""exp-image"">
                    <div class=""question-area"">
                        <p style=""font-size: 20px; font-weight: bold; margin: 0;"">Is there a person in this image?</p>
                    </div>
                </div>","0","main_experiment_trial","5","hotel_scheme","schematic_sequence","","","",""
"","","","","","html-keyboard-response","111","952183","0.0-111.0","20C7D855D1124DEF99BC26A3724087D7","019cefb0-7de8-79b8-acb7-3772507deb4b","019cef87-c56d-7b55-9135-c5814367ec25","","null","
                <div class=""stimulus-container"">
                    <img src=""images/schematic_sequence/hotel_scheme/hotel_scheme_6.png"" class=""exp-image"">
                    <div class=""question-area""></div> 
                </div>","null","","","","","","","",""
"","","","","","html-button-response","112","952610","0.0-112.0","20C7D855D1124DEF99BC26A3724087D7","019cefb0-7de8-79b8-acb7-3772507deb4b","019cef87-c56d-7b55-9135-c5814367ec25","","425","
                <div class=""stimulus-container"">
                    <img src=""images/schematic_sequence/hotel_scheme/hotel_scheme_6.png"" class=""exp-image"">
                    <div class=""question-area"">
                        <p style=""font-size: 20px; font-weight: bold; margin: 0;"">Is there a person in this image?</p>
                    </div>
                </div>","0","main_experiment_trial","6","hotel_scheme","schematic_sequence","","","",""
"","","","","","html-keyboard-response","113","957626","0.0-113.0","20C7D855D1124DEF99BC26A3724087D7","019cefb0-7de8-79b8-acb7-3772507deb4b","019cef87-c56d-7b55-9135-c5814367ec25","","null","
                <div class=""stimulus-container"">
                    <img src=""images/schematic_sequence/hotel_scheme/hotel_scheme_7.png"" class=""exp-image"">
                    <div class=""question-area""></div> 
                </div>","null","","","","","","","",""
"","","","","","html-button-response","114","958227","0.0-114.0","20C7D855D1124DEF99BC26A3724087D7","019cefb0-7de8-79b8-acb7-3772507deb4b","019cef87-c56d-7b55-9135-c5814367ec25","","599","
                <div class=""stimulus-container"">
                    <img src=""images/schematic_sequence/hotel_scheme/hotel_scheme_7.png"" class=""exp-image"">
                    <div class=""question-area"">
                        <p style=""font-size: 20px; font-weight: bold; margin: 0;"">Is there a person in this image?</p>
                    </div>
                </div>","0","main_experiment_trial","7","hotel_scheme","schematic_sequence","","","",""
"","","","","","html-keyboard-response","115","963236","0.0-115.0","20C7D855D1124DEF99BC26A3724087D7","019cefb0-7de8-79b8-acb7-3772507deb4b","019cef87-c56d-7b55-9135-c5814367ec25","","null","
                <div class=""stimulus-container"">
                    <img src=""images/schematic_sequence/hotel_scheme/hotel_scheme_8.png"" class=""exp-image"">
                    <div class=""question-area""></div> 
                </div>","null","","","","","","","",""
"","","","","","html-button-response","116","963868","0.0-116.0","20C7D855D1124DEF99BC26A3724087D7","019cefb0-7de8-79b8-acb7-3772507deb4b","019cef87-c56d-7b55-9135-c5814367ec25","","630","
                <div class=""stimulus-container"">
                    <img src=""images/schematic_sequence/hotel_scheme/hotel_scheme_8.png"" class=""exp-image"">
                    <div class=""question-area"">
                        <p style=""font-size: 20px; font-weight: bold; margin: 0;"">Is there a person in this image?</p>
                    </div>
                </div>","0","main_experiment_trial","8","hotel_scheme","schematic_sequence","","","",""
"","","","","","html-keyboard-response","117","968884","0.0-117.0","20C7D855D1124DEF99BC26A3724087D7","019cefb0-7de8-79b8-acb7-3772507deb4b","019cef87-c56d-7b55-9135-c5814367ec25","","null","
                <div class=""stimulus-container"">
                    <img src=""images/schematic_sequence/hotel_scheme/hotel_scheme_9.png"" class=""exp-image"">
                    <div class=""question-area""></div> 
                </div>","null","","","","","","","",""
"","","","","","html-button-response","118","969557","0.0-118.0","20C7D855D1124DEF99BC26A3724087D7","019cefb0-7de8-79b8-acb7-3772507deb4b","019cef87-c56d-7b55-9135-c5814367ec25","","670","
                <div class=""stimulus-container"">
                    <img src=""images/schematic_sequence/hotel_scheme/hotel_scheme_9.png"" class=""exp-image"">
                    <div class=""question-area"">
                        <p style=""font-size: 20px; font-weight: bold; margin: 0;"">Is there a person in this image?</p>
                    </div>
                </div>","0","main_experiment_trial","9","hotel_scheme","schematic_sequence","","","",""
"","","","","","html-keyboard-response","119","974568","0.0-119.0","20C7D855D1124DEF99BC26A3724087D7","019cefb0-7de8-79b8-acb7-3772507deb4b","019cef87-c56d-7b55-9135-c5814367ec25","","null","
                <div class=""stimulus-container"">
                    <img src=""images/schematic_sequence/hotel_scheme/hotel_scheme_ten.png"" class=""exp-image"">
                    <div class=""question-area""></div> 
                </div>","null","","","","","","","",""
"","","","","","html-button-response","120","975156","0.0-120.0","20C7D855D1124DEF99BC26A3724087D7","019cefb0-7de8-79b8-acb7-3772507deb4b","019cef87-c56d-7b55-9135-c5814367ec25","","586","
                <div class=""stimulus-container"">
                    <img src=""images/schematic_sequence/hotel_scheme/hotel_scheme_ten.png"" class=""exp-image"">
                    <div class=""question-area"">
                        <p style=""font-size: 20px; font-weight: bold; margin: 0;"">Is there a person in this image?</p>
                    </div>
                </div>","0","main_experiment_trial","ten","hotel_scheme","schematic_sequence","","","",""
"","","","","","html-keyboard-response","121","976160","0.0-121.0","20C7D855D1124DEF99BC26A3724087D7","019cefb0-7de8-79b8-acb7-3772507deb4b","019cef87-c56d-7b55-9135-c5814367ec25","","null","<div style=""background-color: white; width: 100vw; height: 100vh;""></div>","null","","","","","","","",""
"","","","","","html-keyboard-response","122","981166","0.0-122.0","20C7D855D1124DEF99BC26A3724087D7","019cefb0-7de8-79b8-acb7-3772507deb4b","019cef87-c56d-7b55-9135-c5814367ec25","","null","
                <div class=""stimulus-container"">
                    <img src=""images/schematic_sequence/flight_scheme/flight_scheme_1.png"" class=""exp-image"">
                    <div class=""question-area""></div> 
                </div>","null","","","","","","","",""
"","","","","","html-button-response","123","983691","0.0-123.0","20C7D855D1124DEF99BC26A3724087D7","019cefb0-7de8-79b8-acb7-3772507deb4b","019cef87-c56d-7b55-9135-c5814367ec25","","2521","
                <div class=""stimulus-container"">
                    <img src=""images/schematic_sequence/flight_scheme/flight_scheme_1.png"" class=""exp-image"">
                    <div class=""question-area"">
                        <p style=""font-size: 20px; font-weight: bold; margin: 0;"">Is there a person in this image?</p>
                    </div>
                </div>","0","main_experiment_trial","1","flight_scheme","schematic_sequence","","","",""
"","","","","","html-keyboard-response","124","988707","0.0-124.0","20C7D855D1124DEF99BC26A3724087D7","019cefb0-7de8-79b8-acb7-3772507deb4b","019cef87-c56d-7b55-9135-c5814367ec25","","null","
                <div class=""stimulus-container"">
                    <img src=""images/schematic_sequence/flight_scheme/flight_scheme_2.png"" class=""exp-image"">
                    <div class=""question-area""></div> 
                </div>","null","","","","","","","",""
"","","","","","html-button-response","125","989285","0.0-125.0","20C7D855D1124DEF99BC26A3724087D7","019cefb0-7de8-79b8-acb7-3772507deb4b","019cef87-c56d-7b55-9135-c5814367ec25","","576","
                <div class=""stimulus-container"">
                    <img src=""images/schematic_sequence/flight_scheme/flight_scheme_2.png"" class=""exp-image"">
                    <div class=""question-area"">
                        <p style=""font-size: 20px; font-weight: bold; margin: 0;"">Is there a person in this image?</p>
                    </div>
                </div>","1","main_experiment_trial","2","flight_scheme","schematic_sequence","","","",""
"","","","","","html-keyboard-response","126","994303","0.0-126.0","20C7D855D1124DEF99BC26A3724087D7","019cefb0-7de8-79b8-acb7-3772507deb4b","019cef87-c56d-7b55-9135-c5814367ec25","","null","
                <div class=""stimulus-container"">
                    <img src=""images/schematic_sequence/flight_scheme/flight_scheme_3.png"" class=""exp-image"">
                    <div class=""question-area""></div> 
                </div>","null","","","","","","","",""
"","","","","","html-button-response","127","995353","0.0-127.0","20C7D855D1124DEF99BC26A3724087D7","019cefb0-7de8-79b8-acb7-3772507deb4b","019cef87-c56d-7b55-9135-c5814367ec25","","1047","
                <div class=""stimulus-container"">
                    <img src=""images/schematic_sequence/flight_scheme/flight_scheme_3.png"" class=""exp-image"">
                    <div class=""question-area"">
                        <p style=""font-size: 20px; font-weight: bold; margin: 0;"">Is there a person in this image?</p>
                    </div>
                </div>","0","main_experiment_trial","3","flight_scheme","schematic_sequence","","","",""
"","","","","","html-keyboard-response","128","1000360","0.0-128.0","20C7D855D1124DEF99BC26A3724087D7","019cefb0-7de8-79b8-acb7-3772507deb4b","019cef87-c56d-7b55-9135-c5814367ec25","","null","
                <div class=""stimulus-container"">
                    <img src=""images/schematic_sequence/flight_scheme/flight_scheme_4.png"" class=""exp-image"">
                    <div class=""question-area""></div> 
                </div>","null","","","","","","","",""
"","","","","","html-button-response","129","1001440","0.0-129.0","20C7D855D1124DEF99BC26A3724087D7","019cefb0-7de8-79b8-acb7-3772507deb4b","019cef87-c56d-7b55-9135-c5814367ec25","","1078","
                <div class=""stimulus-container"">
                    <img src=""images/schematic_sequence/flight_scheme/flight_scheme_4.png"" class=""exp-image"">
                    <div class=""question-area"">
                        <p style=""font-size: 20px; font-weight: bold; margin: 0;"">Is there a person in this image?</p>
                    </div>
                </div>","0","main_experiment_trial","4","flight_scheme","schematic_sequence","","","",""
"","","","","","html-keyboard-response","130","1006447","0.0-130.0","20C7D855D1124DEF99BC26A3724087D7","019cefb0-7de8-79b8-acb7-3772507deb4b","019cef87-c56d-7b55-9135-c5814367ec25","","null","
                <div class=""stimulus-container"">
                    <img src=""images/schematic_sequence/flight_scheme/flight_scheme_5.png"" class=""exp-image"">
                    <div class=""question-area""></div> 
                </div>","null","","","","","","","",""
"","","","","","html-button-response","131","1007143","0.0-131.0","20C7D855D1124DEF99BC26A3724087D7","019cefb0-7de8-79b8-acb7-3772507deb4b","019cef87-c56d-7b55-9135-c5814367ec25","","694","
                <div class=""stimulus-container"">
                    <img src=""images/schematic_sequence/flight_scheme/flight_scheme_5.png"" class=""exp-image"">
                    <div class=""question-area"">
                        <p style=""font-size: 20px; font-weight: bold; margin: 0;"">Is there a person in this image?</p>
                    </div>
                </div>","0","main_experiment_trial","5","flight_scheme","schematic_sequence","","","",""
"","","","","","html-keyboard-response","132","1012155","0.0-132.0","20C7D855D1124DEF99BC26A3724087D7","019cefb0-7de8-79b8-acb7-3772507deb4b","019cef87-c56d-7b55-9135-c5814367ec25","","null","
                <div class=""stimulus-container"">
                    <img src=""images/schematic_sequence/flight_scheme/flight_scheme_6.png"" class=""exp-image"">
                    <div class=""question-area""></div> 
                </div>","null","","","","","","","",""
"","","","","","html-button-response","133","1012774","0.0-133.0","20C7D855D1124DEF99BC26A3724087D7","019cefb0-7de8-79b8-acb7-3772507deb4b","019cef87-c56d-7b55-9135-c5814367ec25","","617","
                <div class=""stimulus-container"">
                    <img src=""images/schematic_sequence/flight_scheme/flight_scheme_6.png"" class=""exp-image"">
                    <div class=""question-area"">
                        <p style=""font-size: 20px; font-weight: bold; margin: 0;"">Is there a person in this image?</p>
                    </div>
                </div>","1","main_experiment_trial","6","flight_scheme","schematic_sequence","","","",""
"","","","","","html-keyboard-response","134","1017788","0.0-134.0","20C7D855D1124DEF99BC26A3724087D7","019cefb0-7de8-79b8-acb7-3772507deb4b","019cef87-c56d-7b55-9135-c5814367ec25","","null","
                <div class=""stimulus-container"">
                    <img src=""images/schematic_sequence/flight_scheme/flight_scheme_7.png"" class=""exp-image"">
                    <div class=""question-area""></div> 
                </div>","null","","","","","","","",""
"","","","","","html-button-response","135","1018421","0.0-135.0","20C7D855D1124DEF99BC26A3724087D7","019cefb0-7de8-79b8-acb7-3772507deb4b","019cef87-c56d-7b55-9135-c5814367ec25","","630","
                <div class=""stimulus-container"">
                    <img src=""images/schematic_sequence/flight_scheme/flight_scheme_7.png"" class=""exp-image"">
                    <div class=""question-area"">
                        <p style=""font-size: 20px; font-weight: bold; margin: 0;"">Is there a person in this image?</p>
                    </div>
                </div>","1","main_experiment_trial","7","flight_scheme","schematic_sequence","","","",""
"","","","","","html-keyboard-response","136","1023424","0.0-136.0","20C7D855D1124DEF99BC26A3724087D7","019cefb0-7de8-79b8-acb7-3772507deb4b","019cef87-c56d-7b55-9135-c5814367ec25","","null","
                <div class=""stimulus-container"">
                    <img src=""images/schematic_sequence/flight_scheme/flight_scheme_8.png"" class=""exp-image"">
                    <div class=""question-area""></div> 
                </div>","null","","","","","","","",""
"","","","","","html-button-response","137","1024039","0.0-137.0","20C7D855D1124DEF99BC26A3724087D7","019cefb0-7de8-79b8-acb7-3772507deb4b","019cef87-c56d-7b55-9135-c5814367ec25","","613","
                <div class=""stimulus-container"">
                    <img src=""images/schematic_sequence/flight_scheme/flight_scheme_8.png"" class=""exp-image"">
                    <div class=""question-area"">
                        <p style=""font-size: 20px; font-weight: bold; margin: 0;"">Is there a person in this image?</p>
                    </div>
                </div>","1","main_experiment_trial","8","flight_scheme","schematic_sequence","","","",""
"","","","","","html-keyboard-response","138","1029045","0.0-138.0","20C7D855D1124DEF99BC26A3724087D7","019cefb0-7de8-79b8-acb7-3772507deb4b","019cef87-c56d-7b55-9135-c5814367ec25","","null","
                <div class=""stimulus-container"">
                    <img src=""images/schematic_sequence/flight_scheme/flight_scheme_9.png"" class=""exp-image"">
                    <div class=""question-area""></div> 
                </div>","null","","","","","","","",""
"","","","","","html-button-response","139","1030138","0.0-139.0","20C7D855D1124DEF99BC26A3724087D7","019cefb0-7de8-79b8-acb7-3772507deb4b","019cef87-c56d-7b55-9135-c5814367ec25","","1091","
                <div class=""stimulus-container"">
                    <img src=""images/schematic_sequence/flight_scheme/flight_scheme_9.png"" class=""exp-image"">
                    <div class=""question-area"">
                        <p style=""font-size: 20px; font-weight: bold; margin: 0;"">Is there a person in this image?</p>
                    </div>
                </div>","0","main_experiment_trial","9","flight_scheme","schematic_sequence","","","",""
"","","","","","html-keyboard-response","140","1035144","0.0-140.0","20C7D855D1124DEF99BC26A3724087D7","019cefb0-7de8-79b8-acb7-3772507deb4b","019cef87-c56d-7b55-9135-c5814367ec25","","null","
                <div class=""stimulus-container"">
                    <img src=""images/schematic_sequence/flight_scheme/flight_scheme_ten.png"" class=""exp-image"">
                    <div class=""question-area""></div> 
                </div>","null","","","","","","","",""
"","","","","","html-button-response","141","1035845","0.0-141.0","20C7D855D1124DEF99BC26A3724087D7","019cefb0-7de8-79b8-acb7-3772507deb4b","019cef87-c56d-7b55-9135-c5814367ec25","","698","
                <div class=""stimulus-container"">
                    <img src=""images/schematic_sequence/flight_scheme/flight_scheme_ten.png"" class=""exp-image"">
                    <div class=""question-area"">
                        <p style=""font-size: 20px; font-weight: bold; margin: 0;"">Is there a person in this image?</p>
                    </div>
                </div>","0","main_experiment_trial","ten","flight_scheme","schematic_sequence","","","",""
"","","","","","html-keyboard-response","142","1036847","0.0-142.0","20C7D855D1124DEF99BC26A3724087D7","019cefb0-7de8-79b8-acb7-3772507deb4b","019cef87-c56d-7b55-9135-c5814367ec25","","null","<div style=""background-color: white; width: 100vw; height: 100vh;""></div>","null","","","","","","","",""
"","","","","","html-keyboard-response","143","1041851","0.0-143.0","20C7D855D1124DEF99BC26A3724087D7","019cefb0-7de8-79b8-acb7-3772507deb4b","019cef87-c56d-7b55-9135-c5814367ec25","","null","
                <div class=""stimulus-container"">
                    <img src=""images/schematic_sequence/dinner_party_scheme/dinner_party_scheme_1.png"" class=""exp-image"">
                    <div class=""question-area""></div> 
                </div>","null","","","","","","","",""
"","","","","","html-button-response","144","1043774","0.0-144.0","20C7D855D1124DEF99BC26A3724087D7","019cefb0-7de8-79b8-acb7-3772507deb4b","019cef87-c56d-7b55-9135-c5814367ec25","","1921","
                <div class=""stimulus-container"">
                    <img src=""images/schematic_sequence/dinner_party_scheme/dinner_party_scheme_1.png"" class=""exp-image"">
                    <div class=""question-area"">
                        <p style=""font-size: 20px; font-weight: bold; margin: 0;"">Is there a person in this image?</p>
                    </div>
                </div>","0","main_experiment_trial","1","dinner_party_scheme","schematic_sequence","","","",""
"","","","","","html-keyboard-response","145","1048779","0.0-145.0","20C7D855D1124DEF99BC26A3724087D7","019cefb0-7de8-79b8-acb7-3772507deb4b","019cef87-c56d-7b55-9135-c5814367ec25","","null","
                <div class=""stimulus-container"">
                    <img src=""images/schematic_sequence/dinner_party_scheme/dinner_party_scheme_2.png"" class=""exp-image"">
                    <div class=""question-area""></div> 
                </div>","null","","","","","","","",""
"","","","","","html-button-response","146","1051785","0.0-146.0","20C7D855D1124DEF99BC26A3724087D7","019cefb0-7de8-79b8-acb7-3772507deb4b","019cef87-c56d-7b55-9135-c5814367ec25","","null","
                <div class=""stimulus-container"">
                    <img src=""images/schematic_sequence/dinner_party_scheme/dinner_party_scheme_2.png"" class=""exp-image"">
                    <div class=""question-area"">
                        <p style=""font-size: 20px; font-weight: bold; margin: 0;"">Is there a person in this image?</p>
                    </div>
                </div>","null","main_experiment_trial","2","dinner_party_scheme","schematic_sequence","","","",""
"","","","","","html-keyboard-response","147","1056794","0.0-147.0","20C7D855D1124DEF99BC26A3724087D7","019cefb0-7de8-79b8-acb7-3772507deb4b","019cef87-c56d-7b55-9135-c5814367ec25","","null","
                <div class=""stimulus-container"">
                    <img src=""images/schematic_sequence/dinner_party_scheme/dinner_party_scheme_3.png"" class=""exp-image"">
                    <div class=""question-area""></div> 
                </div>","null","","","","","","","",""
"","","","","","html-button-response","148","1059478","0.0-148.0","20C7D855D1124DEF99BC26A3724087D7","019cefb0-7de8-79b8-acb7-3772507deb4b","019cef87-c56d-7b55-9135-c5814367ec25","","2680","
                <div class=""stimulus-container"">
                    <img src=""images/schematic_sequence/dinner_party_scheme/dinner_party_scheme_3.png"" class=""exp-image"">
                    <div class=""question-area"">
                        <p style=""font-size: 20px; font-weight: bold; margin: 0;"">Is there a person in this image?</p>
                    </div>
                </div>","0","main_experiment_trial","3","dinner_party_scheme","schematic_sequence","","","",""
"","","","","","html-keyboard-response","149","1064485","0.0-149.0","20C7D855D1124DEF99BC26A3724087D7","019cefb0-7de8-79b8-acb7-3772507deb4b","019cef87-c56d-7b55-9135-c5814367ec25","","null","
                <div class=""stimulus-container"">
                    <img src=""images/schematic_sequence/dinner_party_scheme/dinner_party_scheme_4.png"" class=""exp-image"">
                    <div class=""question-area""></div> 
                </div>","null","","","","","","","",""
"","","","","","html-button-response","150","1065244","0.0-150.0","20C7D855D1124DEF99BC26A3724087D7","019cefb0-7de8-79b8-acb7-3772507deb4b","019cef87-c56d-7b55-9135-c5814367ec25","","757","
                <div class=""stimulus-container"">
                    <img src=""images/schematic_sequence/dinner_party_scheme/dinner_party_scheme_4.png"" class=""exp-image"">
                    <div class=""question-area"">
                        <p style=""font-size: 20px; font-weight: bold; margin: 0;"">Is there a person in this image?</p>
                    </div>
                </div>","0","main_experiment_trial","4","dinner_party_scheme","schematic_sequence","","","",""
"","","","","","html-keyboard-response","151","1070252","0.0-151.0","20C7D855D1124DEF99BC26A3724087D7","019cefb0-7de8-79b8-acb7-3772507deb4b","019cef87-c56d-7b55-9135-c5814367ec25","","null","
                <div class=""stimulus-container"">
                    <img src=""images/schematic_sequence/dinner_party_scheme/dinner_party_scheme_5.png"" class=""exp-image"">
                    <div class=""question-area""></div> 
                </div>","null","","","","","","","",""
"","","","","","html-button-response","152","1071916","0.0-152.0","20C7D855D1124DEF99BC26A3724087D7","019cefb0-7de8-79b8-acb7-3772507deb4b","019cef87-c56d-7b55-9135-c5814367ec25","","1661","
                <div class=""stimulus-container"">
                    <img src=""images/schematic_sequence/dinner_party_scheme/dinner_party_scheme_5.png"" class=""exp-image"">
                    <div class=""question-area"">
                        <p style=""font-size: 20px; font-weight: bold; margin: 0;"">Is there a person in this image?</p>
                    </div>
                </div>","0","main_experiment_trial","5","dinner_party_scheme","schematic_sequence","","","",""
"","","","","","html-keyboard-response","153","1076921","0.0-153.0","20C7D855D1124DEF99BC26A3724087D7","019cefb0-7de8-79b8-acb7-3772507deb4b","019cef87-c56d-7b55-9135-c5814367ec25","","null","
                <div class=""stimulus-container"">
                    <img src=""images/schematic_sequence/dinner_party_scheme/dinner_party_scheme_6.png"" class=""exp-image"">
                    <div class=""question-area""></div> 
                </div>","null","","","","","","","",""
"","","","","","html-button-response","154","1077951","0.0-154.0","20C7D855D1124DEF99BC26A3724087D7","019cefb0-7de8-79b8-acb7-3772507deb4b","019cef87-c56d-7b55-9135-c5814367ec25","","1027","
                <div class=""stimulus-container"">
                    <img src=""images/schematic_sequence/dinner_party_scheme/dinner_party_scheme_6.png"" class=""exp-image"">
                    <div class=""question-area"">
                        <p style=""font-size: 20px; font-weight: bold; margin: 0;"">Is there a person in this image?</p>
                    </div>
                </div>","0","main_experiment_trial","6","dinner_party_scheme","schematic_sequence","","","",""
"","","","","","html-keyboard-response","155","1082965","0.0-155.0","20C7D855D1124DEF99BC26A3724087D7","019cefb0-7de8-79b8-acb7-3772507deb4b","019cef87-c56d-7b55-9135-c5814367ec25","","null","
                <div class=""stimulus-container"">
                    <img src=""images/schematic_sequence/dinner_party_scheme/dinner_party_scheme_7.png"" class=""exp-image"">
                    <div class=""question-area""></div> 
                </div>","null","","","","","","","",""
"","","","","","html-button-response","156","1083564","0.0-156.0","20C7D855D1124DEF99BC26A3724087D7","019cefb0-7de8-79b8-acb7-3772507deb4b","019cef87-c56d-7b55-9135-c5814367ec25","","596","
                <div class=""stimulus-container"">
                    <img src=""images/schematic_sequence/dinner_party_scheme/dinner_party_scheme_7.png"" class=""exp-image"">
                    <div class=""question-area"">
                        <p style=""font-size: 20px; font-weight: bold; margin: 0;"">Is there a person in this image?</p>
                    </div>
                </div>","0","main_experiment_trial","7","dinner_party_scheme","schematic_sequence","","","",""
"","","","","","html-keyboard-response","157","1088579","0.0-157.0","20C7D855D1124DEF99BC26A3724087D7","019cefb0-7de8-79b8-acb7-3772507deb4b","019cef87-c56d-7b55-9135-c5814367ec25","","null","
                <div class=""stimulus-container"">
                    <img src=""images/schematic_sequence/dinner_party_scheme/dinner_party_scheme_8.png"" class=""exp-image"">
                    <div class=""question-area""></div> 
                </div>","null","","","","","","","",""
"","","","","","html-button-response","158","1089244","0.0-158.0","20C7D855D1124DEF99BC26A3724087D7","019cefb0-7de8-79b8-acb7-3772507deb4b","019cef87-c56d-7b55-9135-c5814367ec25","","662","
                <div class=""stimulus-container"">
                    <img src=""images/schematic_sequence/dinner_party_scheme/dinner_party_scheme_8.png"" class=""exp-image"">
                    <div class=""question-area"">
                        <p style=""font-size: 20px; font-weight: bold; margin: 0;"">Is there a person in this image?</p>
                    </div>
                </div>","0","main_experiment_trial","8","dinner_party_scheme","schematic_sequence","","","",""
"","","","","","html-keyboard-response","159","1094256","0.0-159.0","20C7D855D1124DEF99BC26A3724087D7","019cefb0-7de8-79b8-acb7-3772507deb4b","019cef87-c56d-7b55-9135-c5814367ec25","","null","
                <div class=""stimulus-container"">
                    <img src=""images/schematic_sequence/dinner_party_scheme/dinner_party_scheme_9.png"" class=""exp-image"">
                    <div class=""question-area""></div> 
                </div>","null","","","","","","","",""
"","","","","","html-button-response","160","1094865","0.0-160.0","20C7D855D1124DEF99BC26A3724087D7","019cefb0-7de8-79b8-acb7-3772507deb4b","019cef87-c56d-7b55-9135-c5814367ec25","","606","
                <div class=""stimulus-container"">
                    <img src=""images/schematic_sequence/dinner_party_scheme/dinner_party_scheme_9.png"" class=""exp-image"">
                    <div class=""question-area"">
                        <p style=""font-size: 20px; font-weight: bold; margin: 0;"">Is there a person in this image?</p>
                    </div>
                </div>","0","main_experiment_trial","9","dinner_party_scheme","schematic_sequence","","","",""
"","","","","","html-keyboard-response","161","1099869","0.0-161.0","20C7D855D1124DEF99BC26A3724087D7","019cefb0-7de8-79b8-acb7-3772507deb4b","019cef87-c56d-7b55-9135-c5814367ec25","","null","
                <div class=""stimulus-container"">
                    <img src=""images/schematic_sequence/dinner_party_scheme/dinner_party_scheme_ten.png"" class=""exp-image"">
                    <div class=""question-area""></div> 
                </div>","null","","","","","","","",""
"","","","","","html-button-response","162","1100429","0.0-162.0","20C7D855D1124DEF99BC26A3724087D7","019cefb0-7de8-79b8-acb7-3772507deb4b","019cef87-c56d-7b55-9135-c5814367ec25","","557","
                <div class=""stimulus-container"">
                    <img src=""images/schematic_sequence/dinner_party_scheme/dinner_party_scheme_ten.png"" class=""exp-image"">
                    <div class=""question-area"">
                        <p style=""font-size: 20px; font-weight: bold; margin: 0;"">Is there a person in this image?</p>
                    </div>
                </div>","0","main_experiment_trial","ten","dinner_party_scheme","schematic_sequence","","","",""
"","","","","","html-keyboard-response","163","1101431","0.0-163.0","20C7D855D1124DEF99BC26A3724087D7","019cefb0-7de8-79b8-acb7-3772507deb4b","019cef87-c56d-7b55-9135-c5814367ec25","","null","<div style=""background-color: white; width: 100vw; height: 100vh;""></div>","null","","","","","","","",""
"","","","","","html-keyboard-response","164","1106436","0.0-164.0","20C7D855D1124DEF99BC26A3724087D7","019cefb0-7de8-79b8-acb7-3772507deb4b","019cef87-c56d-7b55-9135-c5814367ec25","","null","
                <div class=""stimulus-container"">
                    <img src=""images/causal_sequence/the_performance_causal/the_performance_causal_1.png"" class=""exp-image"">
                    <div class=""question-area""></div> 
                </div>","null","","","","","","","",""
"","","","","","html-button-response","165","1107135","0.0-165.0","20C7D855D1124DEF99BC26A3724087D7","019cefb0-7de8-79b8-acb7-3772507deb4b","019cef87-c56d-7b55-9135-c5814367ec25","","697","
                <div class=""stimulus-container"">
                    <img src=""images/causal_sequence/the_performance_causal/the_performance_causal_1.png"" class=""exp-image"">
                    <div class=""question-area"">
                        <p style=""font-size: 20px; font-weight: bold; margin: 0;"">Is there a person in this image?</p>
                    </div>
                </div>","0","main_experiment_trial","1","the_performance_causal","causal_sequence","","","",""
"","","","","","html-keyboard-response","166","1112137","0.0-166.0","20C7D855D1124DEF99BC26A3724087D7","019cefb0-7de8-79b8-acb7-3772507deb4b","019cef87-c56d-7b55-9135-c5814367ec25","","null","
                <div class=""stimulus-container"">
                    <img src=""images/causal_sequence/the_performance_causal/the_performance_causal_2.png"" class=""exp-image"">
                    <div class=""question-area""></div> 
                </div>","null","","","","","","","",""
"","","","","","html-button-response","167","1112812","0.0-167.0","20C7D855D1124DEF99BC26A3724087D7","019cefb0-7de8-79b8-acb7-3772507deb4b","019cef87-c56d-7b55-9135-c5814367ec25","","672","
                <div class=""stimulus-container"">
                    <img src=""images/causal_sequence/the_performance_causal/the_performance_causal_2.png"" class=""exp-image"">
                    <div class=""question-area"">
                        <p style=""font-size: 20px; font-weight: bold; margin: 0;"">Is there a person in this image?</p>
                    </div>
                </div>","0","main_experiment_trial","2","the_performance_causal","causal_sequence","","","",""
"","","","","","html-keyboard-response","168","1117825","0.0-168.0","20C7D855D1124DEF99BC26A3724087D7","019cefb0-7de8-79b8-acb7-3772507deb4b","019cef87-c56d-7b55-9135-c5814367ec25","","null","
                <div class=""stimulus-container"">
                    <img src=""images/causal_sequence/the_performance_causal/the_performance_causal_3.png"" class=""exp-image"">
                    <div class=""question-area""></div> 
                </div>","null","","","","","","","",""
"","","","","","html-button-response","169","1118458","0.0-169.0","20C7D855D1124DEF99BC26A3724087D7","019cefb0-7de8-79b8-acb7-3772507deb4b","019cef87-c56d-7b55-9135-c5814367ec25","","630","
                <div class=""stimulus-container"">
                    <img src=""images/causal_sequence/the_performance_causal/the_performance_causal_3.png"" class=""exp-image"">
                    <div class=""question-area"">
                        <p style=""font-size: 20px; font-weight: bold; margin: 0;"">Is there a person in this image?</p>
                    </div>
                </div>","0","main_experiment_trial","3","the_performance_causal","causal_sequence","","","",""
"","","","","","html-keyboard-response","170","1123469","0.0-170.0","20C7D855D1124DEF99BC26A3724087D7","019cefb0-7de8-79b8-acb7-3772507deb4b","019cef87-c56d-7b55-9135-c5814367ec25","","null","
                <div class=""stimulus-container"">
                    <img src=""images/causal_sequence/the_performance_causal/the_performance_causal_4.png"" class=""exp-image"">
                    <div class=""question-area""></div> 
                </div>","null","","","","","","","",""
"","","","","","html-button-response","171","1124383","0.0-171.0","20C7D855D1124DEF99BC26A3724087D7","019cefb0-7de8-79b8-acb7-3772507deb4b","019cef87-c56d-7b55-9135-c5814367ec25","","911","
                <div class=""stimulus-container"">
                    <img src=""images/causal_sequence/the_performance_causal/the_performance_causal_4.png"" class=""exp-image"">
                    <div class=""question-area"">
                        <p style=""font-size: 20px; font-weight: bold; margin: 0;"">Is there a person in this image?</p>
                    </div>
                </div>","0","main_experiment_trial","4","the_performance_causal","causal_sequence","","","",""
"","","","","","html-keyboard-response","172","1129392","0.0-172.0","20C7D855D1124DEF99BC26A3724087D7","019cefb0-7de8-79b8-acb7-3772507deb4b","019cef87-c56d-7b55-9135-c5814367ec25","","null","
                <div class=""stimulus-container"">
                    <img src=""images/causal_sequence/the_performance_causal/the_performance_causal_5.png"" class=""exp-image"">
                    <div class=""question-area""></div> 
                </div>","null","","","","","","","",""
"","","","","","html-button-response","173","1130113","0.0-173.0","20C7D855D1124DEF99BC26A3724087D7","019cefb0-7de8-79b8-acb7-3772507deb4b","019cef87-c56d-7b55-9135-c5814367ec25","","719","
                <div class=""stimulus-container"">
                    <img src=""images/causal_sequence/the_performance_causal/the_performance_causal_5.png"" class=""exp-image"">
                    <div class=""question-area"">
                        <p style=""font-size: 20px; font-weight: bold; margin: 0;"">Is there a person in this image?</p>
                    </div>
                </div>","0","main_experiment_trial","5","the_performance_causal","causal_sequence","","","",""
"","","","","","html-keyboard-response","174","1135127","0.0-174.0","20C7D855D1124DEF99BC26A3724087D7","019cefb0-7de8-79b8-acb7-3772507deb4b","019cef87-c56d-7b55-9135-c5814367ec25","","null","
                <div class=""stimulus-container"">
                    <img src=""images/causal_sequence/the_performance_causal/the_performance_causal_6.png"" class=""exp-image"">
                    <div class=""question-area""></div> 
                </div>","null","","","","","","","",""
"","","","","","html-button-response","175","1135748","0.0-175.0","20C7D855D1124DEF99BC26A3724087D7","019cefb0-7de8-79b8-acb7-3772507deb4b","019cef87-c56d-7b55-9135-c5814367ec25","","618","
                <div class=""stimulus-container"">
                    <img src=""images/causal_sequence/the_performance_causal/the_performance_causal_6.png"" class=""exp-image"">
                    <div class=""question-area"">
                        <p style=""font-size: 20px; font-weight: bold; margin: 0;"">Is there a person in this image?</p>
                    </div>
                </div>","0","main_experiment_trial","6","the_performance_causal","causal_sequence","","","",""
"","","","","","html-keyboard-response","176","1140761","0.0-176.0","20C7D855D1124DEF99BC26A3724087D7","019cefb0-7de8-79b8-acb7-3772507deb4b","019cef87-c56d-7b55-9135-c5814367ec25","","null","
                <div class=""stimulus-container"">
                    <img src=""images/causal_sequence/the_performance_causal/the_performance_causal_7.png"" class=""exp-image"">
                    <div class=""question-area""></div> 
                </div>","null","","","","","","","",""
"","","","","","html-button-response","177","1141524","0.0-177.0","20C7D855D1124DEF99BC26A3724087D7","019cefb0-7de8-79b8-acb7-3772507deb4b","019cef87-c56d-7b55-9135-c5814367ec25","","761","
                <div class=""stimulus-container"">
                    <img src=""images/causal_sequence/the_performance_causal/the_performance_causal_7.png"" class=""exp-image"">
                    <div class=""question-area"">
                        <p style=""font-size: 20px; font-weight: bold; margin: 0;"">Is there a person in this image?</p>
                    </div>
                </div>","0","main_experiment_trial","7","the_performance_causal","causal_sequence","","","",""
"","","","","","html-keyboard-response","178","1146531","0.0-178.0","20C7D855D1124DEF99BC26A3724087D7","019cefb0-7de8-79b8-acb7-3772507deb4b","019cef87-c56d-7b55-9135-c5814367ec25","","null","
                <div class=""stimulus-container"">
                    <img src=""images/causal_sequence/the_performance_causal/the_performance_causal_8.png"" class=""exp-image"">
                    <div class=""question-area""></div> 
                </div>","null","","","","","","","",""
"","","","","","html-button-response","179","1147162","0.0-179.0","20C7D855D1124DEF99BC26A3724087D7","019cefb0-7de8-79b8-acb7-3772507deb4b","019cef87-c56d-7b55-9135-c5814367ec25","","628","
                <div class=""stimulus-container"">
                    <img src=""images/causal_sequence/the_performance_causal/the_performance_causal_8.png"" class=""exp-image"">
                    <div class=""question-area"">
                        <p style=""font-size: 20px; font-weight: bold; margin: 0;"">Is there a person in this image?</p>
                    </div>
                </div>","0","main_experiment_trial","8","the_performance_causal","causal_sequence","","","",""
"","","","","","html-keyboard-response","180","1152174","0.0-180.0","20C7D855D1124DEF99BC26A3724087D7","019cefb0-7de8-79b8-acb7-3772507deb4b","019cef87-c56d-7b55-9135-c5814367ec25","","null","
                <div class=""stimulus-container"">
                    <img src=""images/causal_sequence/the_performance_causal/the_performance_causal_9.png"" class=""exp-image"">
                    <div class=""question-area""></div> 
                </div>","null","","","","","","","",""
"","","","","","html-button-response","181","1152890","0.0-181.0","20C7D855D1124DEF99BC26A3724087D7","019cefb0-7de8-79b8-acb7-3772507deb4b","019cef87-c56d-7b55-9135-c5814367ec25","","714","
                <div class=""stimulus-container"">
                    <img src=""images/causal_sequence/the_performance_causal/the_performance_causal_9.png"" class=""exp-image"">
                    <div class=""question-area"">
                        <p style=""font-size: 20px; font-weight: bold; margin: 0;"">Is there a person in this image?</p>
                    </div>
                </div>","0","main_experiment_trial","9","the_performance_causal","causal_sequence","","","",""
"","","","","","html-keyboard-response","182","1157901","0.0-182.0","20C7D855D1124DEF99BC26A3724087D7","019cefb0-7de8-79b8-acb7-3772507deb4b","019cef87-c56d-7b55-9135-c5814367ec25","","null","
                <div class=""stimulus-container"">
                    <img src=""images/causal_sequence/the_performance_causal/the_performance_causal_ten.png"" class=""exp-image"">
                    <div class=""question-area""></div> 
                </div>","null","","","","","","","",""
"","","","","","html-button-response","183","1160710","0.0-183.0","20C7D855D1124DEF99BC26A3724087D7","019cefb0-7de8-79b8-acb7-3772507deb4b","019cef87-c56d-7b55-9135-c5814367ec25","","2807","
                <div class=""stimulus-container"">
                    <img src=""images/causal_sequence/the_performance_causal/the_performance_causal_ten.png"" class=""exp-image"">
                    <div class=""question-area"">
                        <p style=""font-size: 20px; font-weight: bold; margin: 0;"">Is there a person in this image?</p>
                    </div>
                </div>","0","main_experiment_trial","ten","the_performance_causal","causal_sequence","","","",""
"","","","","","html-keyboard-response","184","1161719","0.0-184.0","20C7D855D1124DEF99BC26A3724087D7","019cefb0-7de8-79b8-acb7-3772507deb4b","019cef87-c56d-7b55-9135-c5814367ec25","","null","<div style=""background-color: white; width: 100vw; height: 100vh;""></div>","null","","","","","","","",""
"","","","","","html-keyboard-response","185","1166728","0.0-185.0","20C7D855D1124DEF99BC26A3724087D7","019cefb0-7de8-79b8-acb7-3772507deb4b","019cef87-c56d-7b55-9135-c5814367ec25","","null","
                <div class=""stimulus-container"">
                    <img src=""images/schematic_sequence/restaurant_scheme/restaurant_scheme_1.png"" class=""exp-image"">
