"success","timeout","failed_images","failed_audio","failed_video","trial_type","trial_index","time_elapsed","internal_node_id","subject_id","study_id","session_id","view_history","rt","stimulus","response","task","image_index","folder","sequence_type","valuable_image_index","reward_type","correct_choice","chosen_image_index","target_X"
"true","false","[]","[]","[]","preload","0","8695","0.0-0.0","65AE24F70B1543EC97B19DE2C86978E5","019cf4ec-4ed9-75b0-be3b-e7135e87bb73","019cf4c8-1de8-79ec-b3bd-d98520647593","","","","","","","","","","","","",""
"","","","","","instructions","1","73595","0.0-1.0","65AE24F70B1543EC97B19DE2C86978E5","019cf4ec-4ed9-75b0-be3b-e7135e87bb73","019cf4c8-1de8-79ec-b3bd-d98520647593","[{""page_index"":0,""viewing_time"":64900}]","64900","","","","","","","","","","",""
"","","","","","instructions","2","273186","0.0-2.0","65AE24F70B1543EC97B19DE2C86978E5","019cf4ec-4ed9-75b0-be3b-e7135e87bb73","019cf4c8-1de8-79ec-b3bd-d98520647593","[{""page_index"":0,""viewing_time"":199590}]","199591","","","","","","","","","","",""
"true","","","","","fullscreen","3","277855","0.0-3.0","65AE24F70B1543EC97B19DE2C86978E5","019cf4ec-4ed9-75b0-be3b-e7135e87bb73","019cf4c8-1de8-79ec-b3bd-d98520647593","","3655","","","","","","","","","","",""
"","","","","","instructions","4","314690","0.0-4.0","65AE24F70B1543EC97B19DE2C86978E5","019cf4ec-4ed9-75b0-be3b-e7135e87bb73","019cf4c8-1de8-79ec-b3bd-d98520647593","[{""page_index"":0,""viewing_time"":36835}]","36835","","","","","","","","","","",""
"","","","","","instructions","5","333986","0.0-5.0","65AE24F70B1543EC97B19DE2C86978E5","019cf4ec-4ed9-75b0-be3b-e7135e87bb73","019cf4c8-1de8-79ec-b3bd-d98520647593","[{""page_index"":0,""viewing_time"":19295}]","19296","","","","","","","","","","",""
"","","","","","html-keyboard-response","6","337995","0.0-6.0","65AE24F70B1543EC97B19DE2C86978E5","019cf4ec-4ed9-75b0-be3b-e7135e87bb73","019cf4c8-1de8-79ec-b3bd-d98520647593","","null","
                <div class=""stimulus-container"">
                    <img src=""images/instructions/movie_1.png"" class=""exp-image"">
                    <div class=""question-area""></div> 
                </div>","null","","","","","","","","",""
"","","","","","html-button-response","7","341006","0.0-7.0","65AE24F70B1543EC97B19DE2C86978E5","019cf4ec-4ed9-75b0-be3b-e7135e87bb73","019cf4c8-1de8-79ec-b3bd-d98520647593","","null","
                <div class=""stimulus-container"">
                    <img src=""images/instructions/movie_1.png"" class=""exp-image"">
                    <div class=""question-area"">
                        <p style=""font-size: 20px; font-weight: bold; margin: 0;"">Was there a person in this image?</p>
                    </div>
                </div>","null","example_question","1","","","","","","",""
"","","","","","html-keyboard-response","8","345019","0.0-8.0","65AE24F70B1543EC97B19DE2C86978E5","019cf4ec-4ed9-75b0-be3b-e7135e87bb73","019cf4c8-1de8-79ec-b3bd-d98520647593","","null","
                <div class=""stimulus-container"">
                    <img src=""images/instructions/movie_2.png"" class=""exp-image"">
                    <div class=""question-area""></div> 
                </div>","null","","","","","","","","",""
"","","","","","html-button-response","9","345914","0.0-9.0","65AE24F70B1543EC97B19DE2C86978E5","019cf4ec-4ed9-75b0-be3b-e7135e87bb73","019cf4c8-1de8-79ec-b3bd-d98520647593","","894","
                <div class=""stimulus-container"">
                    <img src=""images/instructions/movie_2.png"" class=""exp-image"">
                    <div class=""question-area"">
                        <p style=""font-size: 20px; font-weight: bold; margin: 0;"">Was there a person in this image?</p>
                    </div>
                </div>","1","example_question","2","","","","","","",""
"","","","","","html-keyboard-response","10","349923","0.0-10.0","65AE24F70B1543EC97B19DE2C86978E5","019cf4ec-4ed9-75b0-be3b-e7135e87bb73","019cf4c8-1de8-79ec-b3bd-d98520647593","","null","
                <div class=""stimulus-container"">
                    <img src=""images/instructions/movie_3.png"" class=""exp-image"">
                    <div class=""question-area""></div> 
                </div>","null","","","","","","","","",""
"","","","","","html-button-response","11","350850","0.0-11.0","65AE24F70B1543EC97B19DE2C86978E5","019cf4ec-4ed9-75b0-be3b-e7135e87bb73","019cf4c8-1de8-79ec-b3bd-d98520647593","","927","
                <div class=""stimulus-container"">
                    <img src=""images/instructions/movie_3.png"" class=""exp-image"">
                    <div class=""question-area"">
                        <p style=""font-size: 20px; font-weight: bold; margin: 0;"">Was there a person in this image?</p>
                    </div>
                </div>","0","example_question","3","","","","","","",""
"","","","","","html-keyboard-response","12","354859","0.0-12.0","65AE24F70B1543EC97B19DE2C86978E5","019cf4ec-4ed9-75b0-be3b-e7135e87bb73","019cf4c8-1de8-79ec-b3bd-d98520647593","","null","
                <div class=""stimulus-container"">
                    <img src=""images/instructions/movie_4.png"" class=""exp-image"">
                    <div class=""question-area""></div> 
                </div>","null","","","","","","","","",""
"","","","","","html-button-response","13","355890","0.0-13.0","65AE24F70B1543EC97B19DE2C86978E5","019cf4ec-4ed9-75b0-be3b-e7135e87bb73","019cf4c8-1de8-79ec-b3bd-d98520647593","","1030","
                <div class=""stimulus-container"">
                    <img src=""images/instructions/movie_4.png"" class=""exp-image"">
                    <div class=""question-area"">
                        <p style=""font-size: 20px; font-weight: bold; margin: 0;"">Was there a person in this image?</p>
                    </div>
                </div>","0","example_question","4","","","","","","",""
"","","","","","instructions","14","370650","0.0-14.0","65AE24F70B1543EC97B19DE2C86978E5","019cf4ec-4ed9-75b0-be3b-e7135e87bb73","019cf4c8-1de8-79ec-b3bd-d98520647593","[{""page_index"":0,""viewing_time"":14759}]","14760","","","","","","","","","","",""
"","","","","","instructions","15","392938","0.0-15.0","65AE24F70B1543EC97B19DE2C86978E5","019cf4ec-4ed9-75b0-be3b-e7135e87bb73","019cf4c8-1de8-79ec-b3bd-d98520647593","[{""page_index"":0,""viewing_time"":22288}]","22288","","","","","","","","","","",""
"","","","","","html-keyboard-response","16","393939","0.0-16.0","65AE24F70B1543EC97B19DE2C86978E5","019cf4ec-4ed9-75b0-be3b-e7135e87bb73","019cf4c8-1de8-79ec-b3bd-d98520647593","","null","<div style=""background-color: white; width: 100vw; height: 100vh;""></div>","null","","","","","","","","",""
"","","","","","html-keyboard-response","17","398947","0.0-17.0","65AE24F70B1543EC97B19DE2C86978E5","019cf4ec-4ed9-75b0-be3b-e7135e87bb73","019cf4c8-1de8-79ec-b3bd-d98520647593","","null","
                <div class=""stimulus-container"">
                    <img src=""images/schematic_sequence/dinner_party_scheme/dinner_party_scheme_1.png"" class=""exp-image"">
                    <div class=""question-area""></div> 
                </div>","null","","","","","","","","",""
"","","","","","html-button-response","18","400186","0.0-18.0","65AE24F70B1543EC97B19DE2C86978E5","019cf4ec-4ed9-75b0-be3b-e7135e87bb73","019cf4c8-1de8-79ec-b3bd-d98520647593","","1238","
                <div class=""stimulus-container"">
                    <img src=""images/schematic_sequence/dinner_party_scheme/dinner_party_scheme_1.png"" class=""exp-image"">
                    <div class=""question-area"">
                        <p style=""font-size: 20px; font-weight: bold; margin: 0;"">Is there a person in this image?</p>
                    </div>
                </div>","0","main_experiment_trial","1","dinner_party_scheme","schematic_sequence","","","","",""
"","","","","","html-keyboard-response","19","405192","0.0-19.0","65AE24F70B1543EC97B19DE2C86978E5","019cf4ec-4ed9-75b0-be3b-e7135e87bb73","019cf4c8-1de8-79ec-b3bd-d98520647593","","null","
                <div class=""stimulus-container"">
                    <img src=""images/schematic_sequence/dinner_party_scheme/dinner_party_scheme_2.png"" class=""exp-image"">
                    <div class=""question-area""></div> 
                </div>","null","","","","","","","","",""
"","","","","","html-button-response","20","406081","0.0-20.0","65AE24F70B1543EC97B19DE2C86978E5","019cf4ec-4ed9-75b0-be3b-e7135e87bb73","019cf4c8-1de8-79ec-b3bd-d98520647593","","888","
                <div class=""stimulus-container"">
                    <img src=""images/schematic_sequence/dinner_party_scheme/dinner_party_scheme_2.png"" class=""exp-image"">
                    <div class=""question-area"">
                        <p style=""font-size: 20px; font-weight: bold; margin: 0;"">Is there a person in this image?</p>
                    </div>
                </div>","0","main_experiment_trial","2","dinner_party_scheme","schematic_sequence","","","","",""
"","","","","","html-keyboard-response","21","411091","0.0-21.0","65AE24F70B1543EC97B19DE2C86978E5","019cf4ec-4ed9-75b0-be3b-e7135e87bb73","019cf4c8-1de8-79ec-b3bd-d98520647593","","null","
                <div class=""stimulus-container"">
                    <img src=""images/schematic_sequence/dinner_party_scheme/dinner_party_scheme_3.png"" class=""exp-image"">
                    <div class=""question-area""></div> 
                </div>","null","","","","","","","","",""
"","","","","","html-button-response","22","411618","0.0-22.0","65AE24F70B1543EC97B19DE2C86978E5","019cf4ec-4ed9-75b0-be3b-e7135e87bb73","019cf4c8-1de8-79ec-b3bd-d98520647593","","526","
                <div class=""stimulus-container"">
                    <img src=""images/schematic_sequence/dinner_party_scheme/dinner_party_scheme_3.png"" class=""exp-image"">
                    <div class=""question-area"">
                        <p style=""font-size: 20px; font-weight: bold; margin: 0;"">Is there a person in this image?</p>
                    </div>
                </div>","0","main_experiment_trial","3","dinner_party_scheme","schematic_sequence","","","","",""
"","","","","","html-keyboard-response","23","416623","0.0-23.0","65AE24F70B1543EC97B19DE2C86978E5","019cf4ec-4ed9-75b0-be3b-e7135e87bb73","019cf4c8-1de8-79ec-b3bd-d98520647593","","null","
                <div class=""stimulus-container"">
                    <img src=""images/schematic_sequence/dinner_party_scheme/dinner_party_scheme_4.png"" class=""exp-image"">
                    <div class=""question-area""></div> 
                </div>","null","","","","","","","","",""
"","","","","","html-button-response","24","417362","0.0-24.0","65AE24F70B1543EC97B19DE2C86978E5","019cf4ec-4ed9-75b0-be3b-e7135e87bb73","019cf4c8-1de8-79ec-b3bd-d98520647593","","738","
                <div class=""stimulus-container"">
                    <img src=""images/schematic_sequence/dinner_party_scheme/dinner_party_scheme_4.png"" class=""exp-image"">
                    <div class=""question-area"">
                        <p style=""font-size: 20px; font-weight: bold; margin: 0;"">Is there a person in this image?</p>
                    </div>
                </div>","0","main_experiment_trial","4","dinner_party_scheme","schematic_sequence","","","","",""
"","","","","","html-keyboard-response","25","422365","0.0-25.0","65AE24F70B1543EC97B19DE2C86978E5","019cf4ec-4ed9-75b0-be3b-e7135e87bb73","019cf4c8-1de8-79ec-b3bd-d98520647593","","null","
                <div class=""stimulus-container"">
                    <img src=""images/schematic_sequence/dinner_party_scheme/dinner_party_scheme_5.png"" class=""exp-image"">
                    <div class=""question-area""></div> 
                </div>","null","","","","","","","","",""
"","","","","","html-button-response","26","422986","0.0-26.0","65AE24F70B1543EC97B19DE2C86978E5","019cf4ec-4ed9-75b0-be3b-e7135e87bb73","019cf4c8-1de8-79ec-b3bd-d98520647593","","620","
                <div class=""stimulus-container"">
                    <img src=""images/schematic_sequence/dinner_party_scheme/dinner_party_scheme_5.png"" class=""exp-image"">
                    <div class=""question-area"">
                        <p style=""font-size: 20px; font-weight: bold; margin: 0;"">Is there a person in this image?</p>
                    </div>
                </div>","0","main_experiment_trial","5","dinner_party_scheme","schematic_sequence","","","","",""
"","","","","","html-keyboard-response","27","427994","0.0-27.0","65AE24F70B1543EC97B19DE2C86978E5","019cf4ec-4ed9-75b0-be3b-e7135e87bb73","019cf4c8-1de8-79ec-b3bd-d98520647593","","null","
                <div class=""stimulus-container"">
                    <img src=""images/schematic_sequence/dinner_party_scheme/dinner_party_scheme_6.png"" class=""exp-image"">
                    <div class=""question-area""></div> 
                </div>","null","","","","","","","","",""
"","","","","","html-button-response","28","428642","0.0-28.0","65AE24F70B1543EC97B19DE2C86978E5","019cf4ec-4ed9-75b0-be3b-e7135e87bb73","019cf4c8-1de8-79ec-b3bd-d98520647593","","647","
                <div class=""stimulus-container"">
                    <img src=""images/schematic_sequence/dinner_party_scheme/dinner_party_scheme_6.png"" class=""exp-image"">
                    <div class=""question-area"">
                        <p style=""font-size: 20px; font-weight: bold; margin: 0;"">Is there a person in this image?</p>
                    </div>
                </div>","0","main_experiment_trial","6","dinner_party_scheme","schematic_sequence","","","","",""
"","","","","","html-keyboard-response","29","433645","0.0-29.0","65AE24F70B1543EC97B19DE2C86978E5","019cf4ec-4ed9-75b0-be3b-e7135e87bb73","019cf4c8-1de8-79ec-b3bd-d98520647593","","null","
                <div class=""stimulus-container"">
                    <img src=""images/schematic_sequence/dinner_party_scheme/dinner_party_scheme_7.png"" class=""exp-image"">
                    <div class=""question-area""></div> 
                </div>","null","","","","","","","","",""
"","","","","","html-button-response","30","434354","0.0-30.0","65AE24F70B1543EC97B19DE2C86978E5","019cf4ec-4ed9-75b0-be3b-e7135e87bb73","019cf4c8-1de8-79ec-b3bd-d98520647593","","708","
                <div class=""stimulus-container"">
                    <img src=""images/schematic_sequence/dinner_party_scheme/dinner_party_scheme_7.png"" class=""exp-image"">
                    <div class=""question-area"">
                        <p style=""font-size: 20px; font-weight: bold; margin: 0;"">Is there a person in this image?</p>
                    </div>
                </div>","0","main_experiment_trial","7","dinner_party_scheme","schematic_sequence","","","","",""
"","","","","","html-keyboard-response","31","439367","0.0-31.0","65AE24F70B1543EC97B19DE2C86978E5","019cf4ec-4ed9-75b0-be3b-e7135e87bb73","019cf4c8-1de8-79ec-b3bd-d98520647593","","null","
                <div class=""stimulus-container"">
                    <img src=""images/schematic_sequence/dinner_party_scheme/dinner_party_scheme_8.png"" class=""exp-image"">
                    <div class=""question-area""></div> 
                </div>","null","","","","","","","","",""
"","","","","","html-button-response","32","439842","0.0-32.0","65AE24F70B1543EC97B19DE2C86978E5","019cf4ec-4ed9-75b0-be3b-e7135e87bb73","019cf4c8-1de8-79ec-b3bd-d98520647593","","474","
                <div class=""stimulus-container"">
                    <img src=""images/schematic_sequence/dinner_party_scheme/dinner_party_scheme_8.png"" class=""exp-image"">
                    <div class=""question-area"">
                        <p style=""font-size: 20px; font-weight: bold; margin: 0;"">Is there a person in this image?</p>
                    </div>
                </div>","0","main_experiment_trial","8","dinner_party_scheme","schematic_sequence","","","","",""
"","","","","","html-keyboard-response","33","444844","0.0-33.0","65AE24F70B1543EC97B19DE2C86978E5","019cf4ec-4ed9-75b0-be3b-e7135e87bb73","019cf4c8-1de8-79ec-b3bd-d98520647593","","null","
                <div class=""stimulus-container"">
                    <img src=""images/schematic_sequence/dinner_party_scheme/dinner_party_scheme_9.png"" class=""exp-image"">
                    <div class=""question-area""></div> 
                </div>","null","","","","","","","","",""
"","","","","","html-button-response","34","445418","0.0-34.0","65AE24F70B1543EC97B19DE2C86978E5","019cf4ec-4ed9-75b0-be3b-e7135e87bb73","019cf4c8-1de8-79ec-b3bd-d98520647593","","573","
                <div class=""stimulus-container"">
                    <img src=""images/schematic_sequence/dinner_party_scheme/dinner_party_scheme_9.png"" class=""exp-image"">
                    <div class=""question-area"">
                        <p style=""font-size: 20px; font-weight: bold; margin: 0;"">Is there a person in this image?</p>
                    </div>
                </div>","0","main_experiment_trial","9","dinner_party_scheme","schematic_sequence","","","","",""
"","","","","","html-keyboard-response","35","450419","0.0-35.0","65AE24F70B1543EC97B19DE2C86978E5","019cf4ec-4ed9-75b0-be3b-e7135e87bb73","019cf4c8-1de8-79ec-b3bd-d98520647593","","null","
                <div class=""stimulus-container"">
                    <img src=""images/schematic_sequence/dinner_party_scheme/dinner_party_scheme_ten.png"" class=""exp-image"">
                    <div class=""question-area""></div> 
                </div>","null","","","","","","","","",""
"","","","","","html-button-response","36","451186","0.0-36.0","65AE24F70B1543EC97B19DE2C86978E5","019cf4ec-4ed9-75b0-be3b-e7135e87bb73","019cf4c8-1de8-79ec-b3bd-d98520647593","","766","
                <div class=""stimulus-container"">
                    <img src=""images/schematic_sequence/dinner_party_scheme/dinner_party_scheme_ten.png"" class=""exp-image"">
                    <div class=""question-area"">
                        <p style=""font-size: 20px; font-weight: bold; margin: 0;"">Is there a person in this image?</p>
                    </div>
                </div>","0","main_experiment_trial","ten","dinner_party_scheme","schematic_sequence","","","","",""
"","","","","","html-keyboard-response","37","452193","0.0-37.0","65AE24F70B1543EC97B19DE2C86978E5","019cf4ec-4ed9-75b0-be3b-e7135e87bb73","019cf4c8-1de8-79ec-b3bd-d98520647593","","null","<div style=""background-color: white; width: 100vw; height: 100vh;""></div>","null","","","","","","","","",""
"","","","","","html-keyboard-response","38","457198","0.0-38.0","65AE24F70B1543EC97B19DE2C86978E5","019cf4ec-4ed9-75b0-be3b-e7135e87bb73","019cf4c8-1de8-79ec-b3bd-d98520647593","","null","
                <div class=""stimulus-container"">
                    <img src=""images/causal_sequence/package_causal/package_causal_1.png"" class=""exp-image"">
                    <div class=""question-area""></div> 
                </div>","null","","","","","","","","",""
"","","","","","html-button-response","39","457921","0.0-39.0","65AE24F70B1543EC97B19DE2C86978E5","019cf4ec-4ed9-75b0-be3b-e7135e87bb73","019cf4c8-1de8-79ec-b3bd-d98520647593","","722","
                <div class=""stimulus-container"">
                    <img src=""images/causal_sequence/package_causal/package_causal_1.png"" class=""exp-image"">
                    <div class=""question-area"">
                        <p style=""font-size: 20px; font-weight: bold; margin: 0;"">Is there a person in this image?</p>
                    </div>
                </div>","0","main_experiment_trial","1","package_causal","causal_sequence","","","","",""
"","","","","","html-keyboard-response","40","462931","0.0-40.0","65AE24F70B1543EC97B19DE2C86978E5","019cf4ec-4ed9-75b0-be3b-e7135e87bb73","019cf4c8-1de8-79ec-b3bd-d98520647593","","null","
                <div class=""stimulus-container"">
                    <img src=""images/causal_sequence/package_causal/package_causal_2.png"" class=""exp-image"">
                    <div class=""question-area""></div> 
                </div>","null","","","","","","","","",""
"","","","","","html-button-response","41","463673","0.0-41.0","65AE24F70B1543EC97B19DE2C86978E5","019cf4ec-4ed9-75b0-be3b-e7135e87bb73","019cf4c8-1de8-79ec-b3bd-d98520647593","","742","
                <div class=""stimulus-container"">
                    <img src=""images/causal_sequence/package_causal/package_causal_2.png"" class=""exp-image"">
                    <div class=""question-area"">
                        <p style=""font-size: 20px; font-weight: bold; margin: 0;"">Is there a person in this image?</p>
                    </div>
                </div>","0","main_experiment_trial","2","package_causal","causal_sequence","","","","",""
"","","","","","html-keyboard-response","42","468677","0.0-42.0","65AE24F70B1543EC97B19DE2C86978E5","019cf4ec-4ed9-75b0-be3b-e7135e87bb73","019cf4c8-1de8-79ec-b3bd-d98520647593","","null","
                <div class=""stimulus-container"">
                    <img src=""images/causal_sequence/package_causal/package_causal_3.png"" class=""exp-image"">
                    <div class=""question-area""></div> 
                </div>","null","","","","","","","","",""
"","","","","","html-button-response","43","469449","0.0-43.0","65AE24F70B1543EC97B19DE2C86978E5","019cf4ec-4ed9-75b0-be3b-e7135e87bb73","019cf4c8-1de8-79ec-b3bd-d98520647593","","772","
                <div class=""stimulus-container"">
                    <img src=""images/causal_sequence/package_causal/package_causal_3.png"" class=""exp-image"">
                    <div class=""question-area"">
                        <p style=""font-size: 20px; font-weight: bold; margin: 0;"">Is there a person in this image?</p>
                    </div>
                </div>","0","main_experiment_trial","3","package_causal","causal_sequence","","","","",""
"","","","","","html-keyboard-response","44","474458","0.0-44.0","65AE24F70B1543EC97B19DE2C86978E5","019cf4ec-4ed9-75b0-be3b-e7135e87bb73","019cf4c8-1de8-79ec-b3bd-d98520647593","","null","
                <div class=""stimulus-container"">
                    <img src=""images/causal_sequence/package_causal/package_causal_4.png"" class=""exp-image"">
                    <div class=""question-area""></div> 
                </div>","null","","","","","","","","",""
"","","","","","html-button-response","45","475185","0.0-45.0","65AE24F70B1543EC97B19DE2C86978E5","019cf4ec-4ed9-75b0-be3b-e7135e87bb73","019cf4c8-1de8-79ec-b3bd-d98520647593","","726","
                <div class=""stimulus-container"">
                    <img src=""images/causal_sequence/package_causal/package_causal_4.png"" class=""exp-image"">
                    <div class=""question-area"">
                        <p style=""font-size: 20px; font-weight: bold; margin: 0;"">Is there a person in this image?</p>
                    </div>
                </div>","1","main_experiment_trial","4","package_causal","causal_sequence","","","","",""
"","","","","","html-keyboard-response","46","480192","0.0-46.0","65AE24F70B1543EC97B19DE2C86978E5","019cf4ec-4ed9-75b0-be3b-e7135e87bb73","019cf4c8-1de8-79ec-b3bd-d98520647593","","null","
                <div class=""stimulus-container"">
                    <img src=""images/causal_sequence/package_causal/package_causal_5.png"" class=""exp-image"">
                    <div class=""question-area""></div> 
                </div>","null","","","","","","","","",""
"","","","","","html-button-response","47","481049","0.0-47.0","65AE24F70B1543EC97B19DE2C86978E5","019cf4ec-4ed9-75b0-be3b-e7135e87bb73","019cf4c8-1de8-79ec-b3bd-d98520647593","","856","
                <div class=""stimulus-container"">
                    <img src=""images/causal_sequence/package_causal/package_causal_5.png"" class=""exp-image"">
                    <div class=""question-area"">
                        <p style=""font-size: 20px; font-weight: bold; margin: 0;"">Is there a person in this image?</p>
                    </div>
                </div>","0","main_experiment_trial","5","package_causal","causal_sequence","","","","",""
"","","","","","html-keyboard-response","48","486052","0.0-48.0","65AE24F70B1543EC97B19DE2C86978E5","019cf4ec-4ed9-75b0-be3b-e7135e87bb73","019cf4c8-1de8-79ec-b3bd-d98520647593","","null","
                <div class=""stimulus-container"">
                    <img src=""images/causal_sequence/package_causal/package_causal_6.png"" class=""exp-image"">
                    <div class=""question-area""></div> 
                </div>","null","","","","","","","","",""
"","","","","","html-button-response","49","486577","0.0-49.0","65AE24F70B1543EC97B19DE2C86978E5","019cf4ec-4ed9-75b0-be3b-e7135e87bb73","019cf4c8-1de8-79ec-b3bd-d98520647593","","525","
                <div class=""stimulus-container"">
                    <img src=""images/causal_sequence/package_causal/package_causal_6.png"" class=""exp-image"">
                    <div class=""question-area"">
                        <p style=""font-size: 20px; font-weight: bold; margin: 0;"">Is there a person in this image?</p>
                    </div>
                </div>","0","main_experiment_trial","6","package_causal","causal_sequence","","","","",""
"","","","","","html-keyboard-response","50","491590","0.0-50.0","65AE24F70B1543EC97B19DE2C86978E5","019cf4ec-4ed9-75b0-be3b-e7135e87bb73","019cf4c8-1de8-79ec-b3bd-d98520647593","","null","
                <div class=""stimulus-container"">
                    <img src=""images/causal_sequence/package_causal/package_causal_7.png"" class=""exp-image"">
                    <div class=""question-area""></div> 
                </div>","null","","","","","","","","",""
"","","","","","html-button-response","51","492097","0.0-51.0","65AE24F70B1543EC97B19DE2C86978E5","019cf4ec-4ed9-75b0-be3b-e7135e87bb73","019cf4c8-1de8-79ec-b3bd-d98520647593","","507","
                <div class=""stimulus-container"">
                    <img src=""images/causal_sequence/package_causal/package_causal_7.png"" class=""exp-image"">
                    <div class=""question-area"">
                        <p style=""font-size: 20px; font-weight: bold; margin: 0;"">Is there a person in this image?</p>
                    </div>
                </div>","0","main_experiment_trial","7","package_causal","causal_sequence","","","","",""
"","","","","","html-keyboard-response","52","497099","0.0-52.0","65AE24F70B1543EC97B19DE2C86978E5","019cf4ec-4ed9-75b0-be3b-e7135e87bb73","019cf4c8-1de8-79ec-b3bd-d98520647593","","null","
                <div class=""stimulus-container"">
                    <img src=""images/causal_sequence/package_causal/package_causal_8.png"" class=""exp-image"">
                    <div class=""question-area""></div> 
                </div>","null","","","","","","","","",""
"","","","","","html-button-response","53","497633","0.0-53.0","65AE24F70B1543EC97B19DE2C86978E5","019cf4ec-4ed9-75b0-be3b-e7135e87bb73","019cf4c8-1de8-79ec-b3bd-d98520647593","","534","
                <div class=""stimulus-container"">
                    <img src=""images/causal_sequence/package_causal/package_causal_8.png"" class=""exp-image"">
                    <div class=""question-area"">
                        <p style=""font-size: 20px; font-weight: bold; margin: 0;"">Is there a person in this image?</p>
                    </div>
                </div>","0","main_experiment_trial","8","package_causal","causal_sequence","","","","",""
"","","","","","html-keyboard-response","54","502635","0.0-54.0","65AE24F70B1543EC97B19DE2C86978E5","019cf4ec-4ed9-75b0-be3b-e7135e87bb73","019cf4c8-1de8-79ec-b3bd-d98520647593","","null","
                <div class=""stimulus-container"">
                    <img src=""images/causal_sequence/package_causal/package_causal_9.png"" class=""exp-image"">
                    <div class=""question-area""></div> 
                </div>","null","","","","","","","","",""
"","","","","","html-button-response","55","503313","0.0-55.0","65AE24F70B1543EC97B19DE2C86978E5","019cf4ec-4ed9-75b0-be3b-e7135e87bb73","019cf4c8-1de8-79ec-b3bd-d98520647593","","678","
                <div class=""stimulus-container"">
                    <img src=""images/causal_sequence/package_causal/package_causal_9.png"" class=""exp-image"">
                    <div class=""question-area"">
                        <p style=""font-size: 20px; font-weight: bold; margin: 0;"">Is there a person in this image?</p>
                    </div>
                </div>","0","main_experiment_trial","9","package_causal","causal_sequence","","","","",""
"","","","","","html-keyboard-response","56","508316","0.0-56.0","65AE24F70B1543EC97B19DE2C86978E5","019cf4ec-4ed9-75b0-be3b-e7135e87bb73","019cf4c8-1de8-79ec-b3bd-d98520647593","","null","
                <div class=""stimulus-container"">
                    <img src=""images/causal_sequence/package_causal/package_causal_ten.png"" class=""exp-image"">
                    <div class=""question-area""></div> 
                </div>","null","","","","","","","","",""
"","","","","","html-button-response","57","509033","0.0-57.0","65AE24F70B1543EC97B19DE2C86978E5","019cf4ec-4ed9-75b0-be3b-e7135e87bb73","019cf4c8-1de8-79ec-b3bd-d98520647593","","717","
                <div class=""stimulus-container"">
                    <img src=""images/causal_sequence/package_causal/package_causal_ten.png"" class=""exp-image"">
                    <div class=""question-area"">
                        <p style=""font-size: 20px; font-weight: bold; margin: 0;"">Is there a person in this image?</p>
                    </div>
                </div>","0","main_experiment_trial","ten","package_causal","causal_sequence","","","","",""
"","","","","","html-keyboard-response","58","510039","0.0-58.0","65AE24F70B1543EC97B19DE2C86978E5","019cf4ec-4ed9-75b0-be3b-e7135e87bb73","019cf4c8-1de8-79ec-b3bd-d98520647593","","null","<div style=""background-color: white; width: 100vw; height: 100vh;""></div>","null","","","","","","","","",""
"","","","","","html-keyboard-response","59","515064","0.0-59.0","65AE24F70B1543EC97B19DE2C86978E5","019cf4ec-4ed9-75b0-be3b-e7135e87bb73","019cf4c8-1de8-79ec-b3bd-d98520647593","","null","
                <div class=""stimulus-container"">
                    <img src=""images/schematic_sequence/flight_scheme/flight_scheme_1.png"" class=""exp-image"">
                    <div class=""question-area""></div> 
                </div>","null","","","","","","","","",""
"","","","","","html-button-response","60","516129","0.0-60.0","65AE24F70B1543EC97B19DE2C86978E5","019cf4ec-4ed9-75b0-be3b-e7135e87bb73","019cf4c8-1de8-79ec-b3bd-d98520647593","","1064","
                <div class=""stimulus-container"">
                    <img src=""images/schematic_sequence/flight_scheme/flight_scheme_1.png"" class=""exp-image"">
                    <div class=""question-area"">
                        <p style=""font-size: 20px; font-weight: bold; margin: 0;"">Is there a person in this image?</p>
                    </div>
                </div>","0","main_experiment_trial","1","flight_scheme","schematic_sequence","","","","",""
"","","","","","html-keyboard-response","61","521146","0.0-61.0","65AE24F70B1543EC97B19DE2C86978E5","019cf4ec-4ed9-75b0-be3b-e7135e87bb73","019cf4c8-1de8-79ec-b3bd-d98520647593","","null","
                <div class=""stimulus-container"">
                    <img src=""images/schematic_sequence/flight_scheme/flight_scheme_2.png"" class=""exp-image"">
                    <div class=""question-area""></div> 
                </div>","null","","","","","","","","",""
"","","","","","html-button-response","62","522025","0.0-62.0","65AE24F70B1543EC97B19DE2C86978E5","019cf4ec-4ed9-75b0-be3b-e7135e87bb73","019cf4c8-1de8-79ec-b3bd-d98520647593","","879","
                <div class=""stimulus-container"">
                    <img src=""images/schematic_sequence/flight_scheme/flight_scheme_2.png"" class=""exp-image"">
                    <div class=""question-area"">
                        <p style=""font-size: 20px; font-weight: bold; margin: 0;"">Is there a person in this image?</p>
                    </div>
                </div>","1","main_experiment_trial","2","flight_scheme","schematic_sequence","","","","",""
"","","","","","html-keyboard-response","63","527036","0.0-63.0","65AE24F70B1543EC97B19DE2C86978E5","019cf4ec-4ed9-75b0-be3b-e7135e87bb73","019cf4c8-1de8-79ec-b3bd-d98520647593","","null","
                <div class=""stimulus-container"">
                    <img src=""images/schematic_sequence/flight_scheme/flight_scheme_3.png"" class=""exp-image"">
                    <div class=""question-area""></div> 
                </div>","null","","","","","","","","",""
"","","","","","html-button-response","64","527777","0.0-64.0","65AE24F70B1543EC97B19DE2C86978E5","019cf4ec-4ed9-75b0-be3b-e7135e87bb73","019cf4c8-1de8-79ec-b3bd-d98520647593","","740","
                <div class=""stimulus-container"">
                    <img src=""images/schematic_sequence/flight_scheme/flight_scheme_3.png"" class=""exp-image"">
                    <div class=""question-area"">
                        <p style=""font-size: 20px; font-weight: bold; margin: 0;"">Is there a person in this image?</p>
                    </div>
                </div>","0","main_experiment_trial","3","flight_scheme","schematic_sequence","","","","",""
"","","","","","html-keyboard-response","65","532794","0.0-65.0","65AE24F70B1543EC97B19DE2C86978E5","019cf4ec-4ed9-75b0-be3b-e7135e87bb73","019cf4c8-1de8-79ec-b3bd-d98520647593","","null","
                <div class=""stimulus-container"">
                    <img src=""images/schematic_sequence/flight_scheme/flight_scheme_4.png"" class=""exp-image"">
                    <div class=""question-area""></div> 
                </div>","null","","","","","","","","",""
"","","","","","html-button-response","66","533561","0.0-66.0","65AE24F70B1543EC97B19DE2C86978E5","019cf4ec-4ed9-75b0-be3b-e7135e87bb73","019cf4c8-1de8-79ec-b3bd-d98520647593","","767","
                <div class=""stimulus-container"">
                    <img src=""images/schematic_sequence/flight_scheme/flight_scheme_4.png"" class=""exp-image"">
                    <div class=""question-area"">
                        <p style=""font-size: 20px; font-weight: bold; margin: 0;"">Is there a person in this image?</p>
                    </div>
                </div>","0","main_experiment_trial","4","flight_scheme","schematic_sequence","","","","",""
"","","","","","html-keyboard-response","67","538579","0.0-67.0","65AE24F70B1543EC97B19DE2C86978E5","019cf4ec-4ed9-75b0-be3b-e7135e87bb73","019cf4c8-1de8-79ec-b3bd-d98520647593","","null","
                <div class=""stimulus-container"">
                    <img src=""images/schematic_sequence/flight_scheme/flight_scheme_5.png"" class=""exp-image"">
                    <div class=""question-area""></div> 
                </div>","null","","","","","","","","",""
"","","","","","html-button-response","68","539441","0.0-68.0","65AE24F70B1543EC97B19DE2C86978E5","019cf4ec-4ed9-75b0-be3b-e7135e87bb73","019cf4c8-1de8-79ec-b3bd-d98520647593","","861","
                <div class=""stimulus-container"">
                    <img src=""images/schematic_sequence/flight_scheme/flight_scheme_5.png"" class=""exp-image"">
                    <div class=""question-area"">
                        <p style=""font-size: 20px; font-weight: bold; margin: 0;"">Is there a person in this image?</p>
                    </div>
                </div>","0","main_experiment_trial","5","flight_scheme","schematic_sequence","","","","",""
"","","","","","html-keyboard-response","69","544442","0.0-69.0","65AE24F70B1543EC97B19DE2C86978E5","019cf4ec-4ed9-75b0-be3b-e7135e87bb73","019cf4c8-1de8-79ec-b3bd-d98520647593","","null","
                <div class=""stimulus-container"">
                    <img src=""images/schematic_sequence/flight_scheme/flight_scheme_6.png"" class=""exp-image"">
                    <div class=""question-area""></div> 
                </div>","null","","","","","","","","",""
"","","","","","html-button-response","70","545153","0.0-70.0","65AE24F70B1543EC97B19DE2C86978E5","019cf4ec-4ed9-75b0-be3b-e7135e87bb73","019cf4c8-1de8-79ec-b3bd-d98520647593","","711","
                <div class=""stimulus-container"">
                    <img src=""images/schematic_sequence/flight_scheme/flight_scheme_6.png"" class=""exp-image"">
                    <div class=""question-area"">
                        <p style=""font-size: 20px; font-weight: bold; margin: 0;"">Is there a person in this image?</p>
                    </div>
                </div>","1","main_experiment_trial","6","flight_scheme","schematic_sequence","","","","",""
"","","","","","html-keyboard-response","71","550177","0.0-71.0","65AE24F70B1543EC97B19DE2C86978E5","019cf4ec-4ed9-75b0-be3b-e7135e87bb73","019cf4c8-1de8-79ec-b3bd-d98520647593","","null","
                <div class=""stimulus-container"">
                    <img src=""images/schematic_sequence/flight_scheme/flight_scheme_7.png"" class=""exp-image"">
                    <div class=""question-area""></div> 
                </div>","null","","","","","","","","",""
"","","","","","html-button-response","72","550785","0.0-72.0","65AE24F70B1543EC97B19DE2C86978E5","019cf4ec-4ed9-75b0-be3b-e7135e87bb73","019cf4c8-1de8-79ec-b3bd-d98520647593","","607","
                <div class=""stimulus-container"">
                    <img src=""images/schematic_sequence/flight_scheme/flight_scheme_7.png"" class=""exp-image"">
                    <div class=""question-area"">
                        <p style=""font-size: 20px; font-weight: bold; margin: 0;"">Is there a person in this image?</p>
                    </div>
                </div>","1","main_experiment_trial","7","flight_scheme","schematic_sequence","","","","",""
"","","","","","html-keyboard-response","73","555786","0.0-73.0","65AE24F70B1543EC97B19DE2C86978E5","019cf4ec-4ed9-75b0-be3b-e7135e87bb73","019cf4c8-1de8-79ec-b3bd-d98520647593","","null","
                <div class=""stimulus-container"">
                    <img src=""images/schematic_sequence/flight_scheme/flight_scheme_8.png"" class=""exp-image"">
                    <div class=""question-area""></div> 
                </div>","null","","","","","","","","",""
"","","","","","html-button-response","74","556281","0.0-74.0","65AE24F70B1543EC97B19DE2C86978E5","019cf4ec-4ed9-75b0-be3b-e7135e87bb73","019cf4c8-1de8-79ec-b3bd-d98520647593","","494","
                <div class=""stimulus-container"">
                    <img src=""images/schematic_sequence/flight_scheme/flight_scheme_8.png"" class=""exp-image"">
                    <div class=""question-area"">
                        <p style=""font-size: 20px; font-weight: bold; margin: 0;"">Is there a person in this image?</p>
                    </div>
                </div>","1","main_experiment_trial","8","flight_scheme","schematic_sequence","","","","",""
"","","","","","html-keyboard-response","75","561294","0.0-75.0","65AE24F70B1543EC97B19DE2C86978E5","019cf4ec-4ed9-75b0-be3b-e7135e87bb73","019cf4c8-1de8-79ec-b3bd-d98520647593","","null","
                <div class=""stimulus-container"">
                    <img src=""images/schematic_sequence/flight_scheme/flight_scheme_9.png"" class=""exp-image"">
                    <div class=""question-area""></div> 
                </div>","null","","","","","","","","",""
"","","","","","html-button-response","76","562121","0.0-76.0","65AE24F70B1543EC97B19DE2C86978E5","019cf4ec-4ed9-75b0-be3b-e7135e87bb73","019cf4c8-1de8-79ec-b3bd-d98520647593","","827","
                <div class=""stimulus-container"">
                    <img src=""images/schematic_sequence/flight_scheme/flight_scheme_9.png"" class=""exp-image"">
                    <div class=""question-area"">
                        <p style=""font-size: 20px; font-weight: bold; margin: 0;"">Is there a person in this image?</p>
                    </div>
                </div>","0","main_experiment_trial","9","flight_scheme","schematic_sequence","","","","",""
"","","","","","html-keyboard-response","77","567123","0.0-77.0","65AE24F70B1543EC97B19DE2C86978E5","019cf4ec-4ed9-75b0-be3b-e7135e87bb73","019cf4c8-1de8-79ec-b3bd-d98520647593","","null","
                <div class=""stimulus-container"">
                    <img src=""images/schematic_sequence/flight_scheme/flight_scheme_ten.png"" class=""exp-image"">
                    <div class=""question-area""></div> 
                </div>","null","","","","","","","","",""
"","","","","","html-button-response","78","567801","0.0-78.0","65AE24F70B1543EC97B19DE2C86978E5","019cf4ec-4ed9-75b0-be3b-e7135e87bb73","019cf4c8-1de8-79ec-b3bd-d98520647593","","677","
                <div class=""stimulus-container"">
                    <img src=""images/schematic_sequence/flight_scheme/flight_scheme_ten.png"" class=""exp-image"">
                    <div class=""question-area"">
                        <p style=""font-size: 20px; font-weight: bold; margin: 0;"">Is there a person in this image?</p>
                    </div>
                </div>","0","main_experiment_trial","ten","flight_scheme","schematic_sequence","","","","",""
"","","","","","html-keyboard-response","79","568808","0.0-79.0","65AE24F70B1543EC97B19DE2C86978E5","019cf4ec-4ed9-75b0-be3b-e7135e87bb73","019cf4c8-1de8-79ec-b3bd-d98520647593","","null","<div style=""background-color: white; width: 100vw; height: 100vh;""></div>","null","","","","","","","","",""
"","","","","","html-keyboard-response","80","573811","0.0-80.0","65AE24F70B1543EC97B19DE2C86978E5","019cf4ec-4ed9-75b0-be3b-e7135e87bb73","019cf4c8-1de8-79ec-b3bd-d98520647593","","null","
                <div class=""stimulus-container"">
                    <img src=""images/causal_sequence/museum_causal/museum_causal_1.png"" class=""exp-image"">
                    <div class=""question-area""></div> 
                </div>","null","","","","","","","","",""
"","","","","","html-button-response","81","574921","0.0-81.0","65AE24F70B1543EC97B19DE2C86978E5","019cf4ec-4ed9-75b0-be3b-e7135e87bb73","019cf4c8-1de8-79ec-b3bd-d98520647593","","1109","
                <div class=""stimulus-container"">
                    <img src=""images/causal_sequence/museum_causal/museum_causal_1.png"" class=""exp-image"">
                    <div class=""question-area"">
                        <p style=""font-size: 20px; font-weight: bold; margin: 0;"">Is there a person in this image?</p>
                    </div>
                </div>","0","main_experiment_trial","1","museum_causal","causal_sequence","","","","",""
"","","","","","html-keyboard-response","82","579927","0.0-82.0","65AE24F70B1543EC97B19DE2C86978E5","019cf4ec-4ed9-75b0-be3b-e7135e87bb73","019cf4c8-1de8-79ec-b3bd-d98520647593","","null","
                <div class=""stimulus-container"">
                    <img src=""images/causal_sequence/museum_causal/museum_causal_2.png"" class=""exp-image"">
                    <div class=""question-area""></div> 
                </div>","null","","","","","","","","",""
"","","","","","html-button-response","83","580889","0.0-83.0","65AE24F70B1543EC97B19DE2C86978E5","019cf4ec-4ed9-75b0-be3b-e7135e87bb73","019cf4c8-1de8-79ec-b3bd-d98520647593","","961","
                <div class=""stimulus-container"">
                    <img src=""images/causal_sequence/museum_causal/museum_causal_2.png"" class=""exp-image"">
                    <div class=""question-area"">
                        <p style=""font-size: 20px; font-weight: bold; margin: 0;"">Is there a person in this image?</p>
                    </div>
                </div>","0","main_experiment_trial","2","museum_causal","causal_sequence","","","","",""
"","","","","","html-keyboard-response","84","585904","0.0-84.0","65AE24F70B1543EC97B19DE2C86978E5","019cf4ec-4ed9-75b0-be3b-e7135e87bb73","019cf4c8-1de8-79ec-b3bd-d98520647593","","null","
                <div class=""stimulus-container"">
                    <img src=""images/causal_sequence/museum_causal/museum_causal_3.png"" class=""exp-image"">
                    <div class=""question-area""></div> 
                </div>","null","","","","","","","","",""
"","","","","","html-button-response","85","586633","0.0-85.0","65AE24F70B1543EC97B19DE2C86978E5","019cf4ec-4ed9-75b0-be3b-e7135e87bb73","019cf4c8-1de8-79ec-b3bd-d98520647593","","728","
                <div class=""stimulus-container"">
                    <img src=""images/causal_sequence/museum_causal/museum_causal_3.png"" class=""exp-image"">
                    <div class=""question-area"">
                        <p style=""font-size: 20px; font-weight: bold; margin: 0;"">Is there a person in this image?</p>
                    </div>
                </div>","0","main_experiment_trial","3","museum_causal","causal_sequence","","","","",""
"","","","","","html-keyboard-response","86","591634","0.0-86.0","65AE24F70B1543EC97B19DE2C86978E5","019cf4ec-4ed9-75b0-be3b-e7135e87bb73","019cf4c8-1de8-79ec-b3bd-d98520647593","","null","
                <div class=""stimulus-container"">
                    <img src=""images/causal_sequence/museum_causal/museum_causal_4.png"" class=""exp-image"">
                    <div class=""question-area""></div> 
                </div>","null","","","","","","","","",""
"","","","","","html-button-response","87","592361","0.0-87.0","65AE24F70B1543EC97B19DE2C86978E5","019cf4ec-4ed9-75b0-be3b-e7135e87bb73","019cf4c8-1de8-79ec-b3bd-d98520647593","","727","
                <div class=""stimulus-container"">
                    <img src=""images/causal_sequence/museum_causal/museum_causal_4.png"" class=""exp-image"">
                    <div class=""question-area"">
                        <p style=""font-size: 20px; font-weight: bold; margin: 0;"">Is there a person in this image?</p>
                    </div>
                </div>","1","main_experiment_trial","4","museum_causal","causal_sequence","","","","",""
"","","","","","html-keyboard-response","88","597362","0.0-88.0","65AE24F70B1543EC97B19DE2C86978E5","019cf4ec-4ed9-75b0-be3b-e7135e87bb73","019cf4c8-1de8-79ec-b3bd-d98520647593","","null","
                <div class=""stimulus-container"">
                    <img src=""images/causal_sequence/museum_causal/museum_causal_5.png"" class=""exp-image"">
                    <div class=""question-area""></div> 
                </div>","null","","","","","","","","",""
"","","","","","html-button-response","89","598033","0.0-89.0","65AE24F70B1543EC97B19DE2C86978E5","019cf4ec-4ed9-75b0-be3b-e7135e87bb73","019cf4c8-1de8-79ec-b3bd-d98520647593","","671","
                <div class=""stimulus-container"">
                    <img src=""images/causal_sequence/museum_causal/museum_causal_5.png"" class=""exp-image"">
                    <div class=""question-area"">
                        <p style=""font-size: 20px; font-weight: bold; margin: 0;"">Is there a person in this image?</p>
                    </div>
                </div>","0","main_experiment_trial","5","museum_causal","causal_sequence","","","","",""
"","","","","","html-keyboard-response","90","603045","0.0-90.0","65AE24F70B1543EC97B19DE2C86978E5","019cf4ec-4ed9-75b0-be3b-e7135e87bb73","019cf4c8-1de8-79ec-b3bd-d98520647593","","null","
                <div class=""stimulus-container"">
                    <img src=""images/causal_sequence/museum_causal/museum_causal_6.png"" class=""exp-image"">
                    <div class=""question-area""></div> 
                </div>","null","","","","","","","","",""
"","","","","","html-button-response","91","603737","0.0-91.0","65AE24F70B1543EC97B19DE2C86978E5","019cf4ec-4ed9-75b0-be3b-e7135e87bb73","019cf4c8-1de8-79ec-b3bd-d98520647593","","691","
                <div class=""stimulus-container"">
                    <img src=""images/causal_sequence/museum_causal/museum_causal_6.png"" class=""exp-image"">
                    <div class=""question-area"">
                        <p style=""font-size: 20px; font-weight: bold; margin: 0;"">Is there a person in this image?</p>
                    </div>
                </div>","0","main_experiment_trial","6","museum_causal","causal_sequence","","","","",""
"","","","","","html-keyboard-response","92","608739","0.0-92.0","65AE24F70B1543EC97B19DE2C86978E5","019cf4ec-4ed9-75b0-be3b-e7135e87bb73","019cf4c8-1de8-79ec-b3bd-d98520647593","","null","
                <div class=""stimulus-container"">
                    <img src=""images/causal_sequence/museum_causal/museum_causal_7.png"" class=""exp-image"">
                    <div class=""question-area""></div> 
                </div>","null","","","","","","","","",""
"","","","","","html-button-response","93","609521","0.0-93.0","65AE24F70B1543EC97B19DE2C86978E5","019cf4ec-4ed9-75b0-be3b-e7135e87bb73","019cf4c8-1de8-79ec-b3bd-d98520647593","","781","
                <div class=""stimulus-container"">
                    <img src=""images/causal_sequence/museum_causal/museum_causal_7.png"" class=""exp-image"">
                    <div class=""question-area"">
                        <p style=""font-size: 20px; font-weight: bold; margin: 0;"">Is there a person in this image?</p>
                    </div>
                </div>","1","main_experiment_trial","7","museum_causal","causal_sequence","","","","",""
"","","","","","html-keyboard-response","94","614529","0.0-94.0","65AE24F70B1543EC97B19DE2C86978E5","019cf4ec-4ed9-75b0-be3b-e7135e87bb73","019cf4c8-1de8-79ec-b3bd-d98520647593","","null","
                <div class=""stimulus-container"">
                    <img src=""images/causal_sequence/museum_causal/museum_causal_8.png"" class=""exp-image"">
                    <div class=""question-area""></div> 
                </div>","null","","","","","","","","",""
"","","","","","html-button-response","95","615305","0.0-95.0","65AE24F70B1543EC97B19DE2C86978E5","019cf4ec-4ed9-75b0-be3b-e7135e87bb73","019cf4c8-1de8-79ec-b3bd-d98520647593","","776","
                <div class=""stimulus-container"">
                    <img src=""images/causal_sequence/museum_causal/museum_causal_8.png"" class=""exp-image"">
                    <div class=""question-area"">
                        <p style=""font-size: 20px; font-weight: bold; margin: 0;"">Is there a person in this image?</p>
                    </div>
                </div>","0","main_experiment_trial","8","museum_causal","causal_sequence","","","","",""
"","","","","","html-keyboard-response","96","620318","0.0-96.0","65AE24F70B1543EC97B19DE2C86978E5","019cf4ec-4ed9-75b0-be3b-e7135e87bb73","019cf4c8-1de8-79ec-b3bd-d98520647593","","null","
                <div class=""stimulus-container"">
                    <img src=""images/causal_sequence/museum_causal/museum_causal_9.png"" class=""exp-image"">
                    <div class=""question-area""></div> 
                </div>","null","","","","","","","","",""
"","","","","","html-button-response","97","621097","0.0-97.0","65AE24F70B1543EC97B19DE2C86978E5","019cf4ec-4ed9-75b0-be3b-e7135e87bb73","019cf4c8-1de8-79ec-b3bd-d98520647593","","778","
                <div class=""stimulus-container"">
                    <img src=""images/causal_sequence/museum_causal/museum_causal_9.png"" class=""exp-image"">
                    <div class=""question-area"">
                        <p style=""font-size: 20px; font-weight: bold; margin: 0;"">Is there a person in this image?</p>
                    </div>
                </div>","1","main_experiment_trial","9","museum_causal","causal_sequence","","","","",""
"","","","","","html-keyboard-response","98","626098","0.0-98.0","65AE24F70B1543EC97B19DE2C86978E5","019cf4ec-4ed9-75b0-be3b-e7135e87bb73","019cf4c8-1de8-79ec-b3bd-d98520647593","","null","
                <div class=""stimulus-container"">
                    <img src=""images/causal_sequence/museum_causal/museum_causal_ten.png"" class=""exp-image"">
                    <div class=""question-area""></div> 
                </div>","null","","","","","","","","",""
"","","","","","html-button-response","99","627297","0.0-99.0","65AE24F70B1543EC97B19DE2C86978E5","019cf4ec-4ed9-75b0-be3b-e7135e87bb73","019cf4c8-1de8-79ec-b3bd-d98520647593","","1199","
                <div class=""stimulus-container"">
                    <img src=""images/causal_sequence/museum_causal/museum_causal_ten.png"" class=""exp-image"">
                    <div class=""question-area"">
                        <p style=""font-size: 20px; font-weight: bold; margin: 0;"">Is there a person in this image?</p>
                    </div>
                </div>","0","main_experiment_trial","ten","museum_causal","causal_sequence","","","","",""
"","","","","","html-keyboard-response","100","628302","0.0-100.0","65AE24F70B1543EC97B19DE2C86978E5","019cf4ec-4ed9-75b0-be3b-e7135e87bb73","019cf4c8-1de8-79ec-b3bd-d98520647593","","null","<div style=""background-color: white; width: 100vw; height: 100vh;""></div>","null","","","","","","","","",""
"","","","","","html-keyboard-response","101","633318","0.0-101.0","65AE24F70B1543EC97B19DE2C86978E5","019cf4ec-4ed9-75b0-be3b-e7135e87bb73","019cf4c8-1de8-79ec-b3bd-d98520647593","","null","
                <div class=""stimulus-container"">
                    <img src=""images/causal_sequence/coin_causal/coin_causal_1.png"" class=""exp-image"">
                    <div class=""question-area""></div> 
                </div>","null","","","","","","","","",""
"","","","","","html-button-response","102","634209","0.0-102.0","65AE24F70B1543EC97B19DE2C86978E5","019cf4ec-4ed9-75b0-be3b-e7135e87bb73","019cf4c8-1de8-79ec-b3bd-d98520647593","","890","
                <div class=""stimulus-container"">
                    <img src=""images/causal_sequence/coin_causal/coin_causal_1.png"" class=""exp-image"">
                    <div class=""question-area"">
                        <p style=""font-size: 20px; font-weight: bold; margin: 0;"">Is there a person in this image?</p>
                    </div>
                </div>","0","main_experiment_trial","1","coin_causal","causal_sequence","","","","",""
"","","","","","html-keyboard-response","103","639210","0.0-103.0","65AE24F70B1543EC97B19DE2C86978E5","019cf4ec-4ed9-75b0-be3b-e7135e87bb73","019cf4c8-1de8-79ec-b3bd-d98520647593","","null","
                <div class=""stimulus-container"">
                    <img src=""images/causal_sequence/coin_causal/coin_causal_2.png"" class=""exp-image"">
                    <div class=""question-area""></div> 
                </div>","null","","","","","","","","",""
"","","","","","html-button-response","104","639873","0.0-104.0","65AE24F70B1543EC97B19DE2C86978E5","019cf4ec-4ed9-75b0-be3b-e7135e87bb73","019cf4c8-1de8-79ec-b3bd-d98520647593","","662","
                <div class=""stimulus-container"">
                    <img src=""images/causal_sequence/coin_causal/coin_causal_2.png"" class=""exp-image"">
                    <div class=""question-area"">
                        <p style=""font-size: 20px; font-weight: bold; margin: 0;"">Is there a person in this image?</p>
                    </div>
                </div>","0","main_experiment_trial","2","coin_causal","causal_sequence","","","","",""
"","","","","","html-keyboard-response","105","644884","0.0-105.0","65AE24F70B1543EC97B19DE2C86978E5","019cf4ec-4ed9-75b0-be3b-e7135e87bb73","019cf4c8-1de8-79ec-b3bd-d98520647593","","null","
                <div class=""stimulus-container"">
                    <img src=""images/causal_sequence/coin_causal/coin_causal_3.png"" class=""exp-image"">
                    <div class=""question-area""></div> 
                </div>","null","","","","","","","","",""
"","","","","","html-button-response","106","645401","0.0-106.0","65AE24F70B1543EC97B19DE2C86978E5","019cf4ec-4ed9-75b0-be3b-e7135e87bb73","019cf4c8-1de8-79ec-b3bd-d98520647593","","516","
                <div class=""stimulus-container"">
                    <img src=""images/causal_sequence/coin_causal/coin_causal_3.png"" class=""exp-image"">
                    <div class=""question-area"">
                        <p style=""font-size: 20px; font-weight: bold; margin: 0;"">Is there a person in this image?</p>
                    </div>
                </div>","0","main_experiment_trial","3","coin_causal","causal_sequence","","","","",""
"","","","","","html-keyboard-response","107","650407","0.0-107.0","65AE24F70B1543EC97B19DE2C86978E5","019cf4ec-4ed9-75b0-be3b-e7135e87bb73","019cf4c8-1de8-79ec-b3bd-d98520647593","","null","
                <div class=""stimulus-container"">
                    <img src=""images/causal_sequence/coin_causal/coin_causal_4.png"" class=""exp-image"">
                    <div class=""question-area""></div> 
                </div>","null","","","","","","","","",""
"","","","","","html-button-response","108","651601","0.0-108.0","65AE24F70B1543EC97B19DE2C86978E5","019cf4ec-4ed9-75b0-be3b-e7135e87bb73","019cf4c8-1de8-79ec-b3bd-d98520647593","","1193","
                <div class=""stimulus-container"">
                    <img src=""images/causal_sequence/coin_causal/coin_causal_4.png"" class=""exp-image"">
                    <div class=""question-area"">
                        <p style=""font-size: 20px; font-weight: bold; margin: 0;"">Is there a person in this image?</p>
                    </div>
                </div>","0","main_experiment_trial","4","coin_causal","causal_sequence","","","","",""
"","","","","","html-keyboard-response","109","656607","0.0-109.0","65AE24F70B1543EC97B19DE2C86978E5","019cf4ec-4ed9-75b0-be3b-e7135e87bb73","019cf4c8-1de8-79ec-b3bd-d98520647593","","null","
                <div class=""stimulus-container"">
                    <img src=""images/causal_sequence/coin_causal/coin_causal_5.png"" class=""exp-image"">
                    <div class=""question-area""></div> 
                </div>","null","","","","","","","","",""
"","","","","","html-button-response","110","657473","0.0-110.0","65AE24F70B1543EC97B19DE2C86978E5","019cf4ec-4ed9-75b0-be3b-e7135e87bb73","019cf4c8-1de8-79ec-b3bd-d98520647593","","865","
                <div class=""stimulus-container"">
                    <img src=""images/causal_sequence/coin_causal/coin_causal_5.png"" class=""exp-image"">
                    <div class=""question-area"">
                        <p style=""font-size: 20px; font-weight: bold; margin: 0;"">Is there a person in this image?</p>
                    </div>
                </div>","0","main_experiment_trial","5","coin_causal","causal_sequence","","","","",""
"","","","","","html-keyboard-response","111","662489","0.0-111.0","65AE24F70B1543EC97B19DE2C86978E5","019cf4ec-4ed9-75b0-be3b-e7135e87bb73","019cf4c8-1de8-79ec-b3bd-d98520647593","","null","
                <div class=""stimulus-container"">
                    <img src=""images/causal_sequence/coin_causal/coin_causal_6.png"" class=""exp-image"">
                    <div class=""question-area""></div> 
                </div>","null","","","","","","","","",""
"","","","","","html-button-response","112","664105","0.0-112.0","65AE24F70B1543EC97B19DE2C86978E5","019cf4ec-4ed9-75b0-be3b-e7135e87bb73","019cf4c8-1de8-79ec-b3bd-d98520647593","","1615","
                <div class=""stimulus-container"">
                    <img src=""images/causal_sequence/coin_causal/coin_causal_6.png"" class=""exp-image"">
                    <div class=""question-area"">
                        <p style=""font-size: 20px; font-weight: bold; margin: 0;"">Is there a person in this image?</p>
                    </div>
                </div>","0","main_experiment_trial","6","coin_causal","causal_sequence","","","","",""
"","","","","","html-keyboard-response","113","669115","0.0-113.0","65AE24F70B1543EC97B19DE2C86978E5","019cf4ec-4ed9-75b0-be3b-e7135e87bb73","019cf4c8-1de8-79ec-b3bd-d98520647593","","null","
                <div class=""stimulus-container"">
                    <img src=""images/causal_sequence/coin_causal/coin_causal_7.png"" class=""exp-image"">
                    <div class=""question-area""></div> 
                </div>","null","","","","","","","","",""
"","","","","","html-button-response","114","670017","0.0-114.0","65AE24F70B1543EC97B19DE2C86978E5","019cf4ec-4ed9-75b0-be3b-e7135e87bb73","019cf4c8-1de8-79ec-b3bd-d98520647593","","901","
                <div class=""stimulus-container"">
                    <img src=""images/causal_sequence/coin_causal/coin_causal_7.png"" class=""exp-image"">
                    <div class=""question-area"">
                        <p style=""font-size: 20px; font-weight: bold; margin: 0;"">Is there a person in this image?</p>
                    </div>
                </div>","1","main_experiment_trial","7","coin_causal","causal_sequence","","","","",""
"","","","","","html-keyboard-response","115","675020","0.0-115.0","65AE24F70B1543EC97B19DE2C86978E5","019cf4ec-4ed9-75b0-be3b-e7135e87bb73","019cf4c8-1de8-79ec-b3bd-d98520647593","","null","
                <div class=""stimulus-container"">
                    <img src=""images/causal_sequence/coin_causal/coin_causal_8.png"" class=""exp-image"">
                    <div class=""question-area""></div> 
                </div>","null","","","","","","","","",""
"","","","","","html-button-response","116","675705","0.0-116.0","65AE24F70B1543EC97B19DE2C86978E5","019cf4ec-4ed9-75b0-be3b-e7135e87bb73","019cf4c8-1de8-79ec-b3bd-d98520647593","","684","
                <div class=""stimulus-container"">
                    <img src=""images/causal_sequence/coin_causal/coin_causal_8.png"" class=""exp-image"">
                    <div class=""question-area"">
                        <p style=""font-size: 20px; font-weight: bold; margin: 0;"">Is there a person in this image?</p>
                    </div>
                </div>","0","main_experiment_trial","8","coin_causal","causal_sequence","","","","",""
"","","","","","html-keyboard-response","117","680724","0.0-117.0","65AE24F70B1543EC97B19DE2C86978E5","019cf4ec-4ed9-75b0-be3b-e7135e87bb73","019cf4c8-1de8-79ec-b3bd-d98520647593","","null","
                <div class=""stimulus-container"">
                    <img src=""images/causal_sequence/coin_causal/coin_causal_9.png"" class=""exp-image"">
                    <div class=""question-area""></div> 
                </div>","null","","","","","","","","",""
"","","","","","html-button-response","118","682353","0.0-118.0","65AE24F70B1543EC97B19DE2C86978E5","019cf4ec-4ed9-75b0-be3b-e7135e87bb73","019cf4c8-1de8-79ec-b3bd-d98520647593","","1628","
                <div class=""stimulus-container"">
                    <img src=""images/causal_sequence/coin_causal/coin_causal_9.png"" class=""exp-image"">
                    <div class=""question-area"">
                        <p style=""font-size: 20px; font-weight: bold; margin: 0;"">Is there a person in this image?</p>
                    </div>
                </div>","0","main_experiment_trial","9","coin_causal","causal_sequence","","","","",""
"","","","","","html-keyboard-response","119","687354","0.0-119.0","65AE24F70B1543EC97B19DE2C86978E5","019cf4ec-4ed9-75b0-be3b-e7135e87bb73","019cf4c8-1de8-79ec-b3bd-d98520647593","","null","
                <div class=""stimulus-container"">
                    <img src=""images/causal_sequence/coin_causal/coin_causal_ten.png"" class=""exp-image"">
                    <div class=""question-area""></div> 
                </div>","null","","","","","","","","",""
"","","","","","html-button-response","120","688328","0.0-120.0","65AE24F70B1543EC97B19DE2C86978E5","019cf4ec-4ed9-75b0-be3b-e7135e87bb73","019cf4c8-1de8-79ec-b3bd-d98520647593","","974","
                <div class=""stimulus-container"">
                    <img src=""images/causal_sequence/coin_causal/coin_causal_ten.png"" class=""exp-image"">
                    <div class=""question-area"">
                        <p style=""font-size: 20px; font-weight: bold; margin: 0;"">Is there a person in this image?</p>
                    </div>
                </div>","0","main_experiment_trial","ten","coin_causal","causal_sequence","","","","",""
"","","","","","html-keyboard-response","121","689341","0.0-121.0","65AE24F70B1543EC97B19DE2C86978E5","019cf4ec-4ed9-75b0-be3b-e7135e87bb73","019cf4c8-1de8-79ec-b3bd-d98520647593","","null","<div style=""background-color: white; width: 100vw; height: 100vh;""></div>","null","","","","","","","","",""
"","","","","","html-keyboard-response","122","694349","0.0-122.0","65AE24F70B1543EC97B19DE2C86978E5","019cf4ec-4ed9-75b0-be3b-e7135e87bb73","019cf4c8-1de8-79ec-b3bd-d98520647593","","null","
                <div class=""stimulus-container"">
                    <img src=""images/causal_sequence/saving_a_cat_causal/saving_a_cat_causal_1.png"" class=""exp-image"">
                    <div class=""question-area""></div> 
                </div>","null","","","","","","","","",""
"","","","","","html-button-response","123","695129","0.0-123.0","65AE24F70B1543EC97B19DE2C86978E5","019cf4ec-4ed9-75b0-be3b-e7135e87bb73","019cf4c8-1de8-79ec-b3bd-d98520647593","","779","
                <div class=""stimulus-container"">
                    <img src=""images/causal_sequence/saving_a_cat_causal/saving_a_cat_causal_1.png"" class=""exp-image"">
                    <div class=""question-area"">
                        <p style=""font-size: 20px; font-weight: bold; margin: 0;"">Is there a person in this image?</p>
                    </div>
                </div>","0","main_experiment_trial","1","saving_a_cat_causal","causal_sequence","","","","",""
"","","","","","html-keyboard-response","124","700130","0.0-124.0","65AE24F70B1543EC97B19DE2C86978E5","019cf4ec-4ed9-75b0-be3b-e7135e87bb73","019cf4c8-1de8-79ec-b3bd-d98520647593","","null","
                <div class=""stimulus-container"">
                    <img src=""images/causal_sequence/saving_a_cat_causal/saving_a_cat_causal_2.png"" class=""exp-image"">
                    <div class=""question-area""></div> 
                </div>","null","","","","","","","","",""
"","","","","","html-button-response","125","701161","0.0-125.0","65AE24F70B1543EC97B19DE2C86978E5","019cf4ec-4ed9-75b0-be3b-e7135e87bb73","019cf4c8-1de8-79ec-b3bd-d98520647593","","1030","
                <div class=""stimulus-container"">
                    <img src=""images/causal_sequence/saving_a_cat_causal/saving_a_cat_causal_2.png"" class=""exp-image"">
                    <div class=""question-area"">
                        <p style=""font-size: 20px; font-weight: bold; margin: 0;"">Is there a person in this image?</p>
                    </div>
                </div>","1","main_experiment_trial","2","saving_a_cat_causal","causal_sequence","","","","",""
"","","","","","html-keyboard-response","126","706168","0.0-126.0","65AE24F70B1543EC97B19DE2C86978E5","019cf4ec-4ed9-75b0-be3b-e7135e87bb73","019cf4c8-1de8-79ec-b3bd-d98520647593","","null","
                <div class=""stimulus-container"">
                    <img src=""images/causal_sequence/saving_a_cat_causal/saving_a_cat_causal_3.png"" class=""exp-image"">
                    <div class=""question-area""></div> 
                </div>","null","","","","","","","","",""
"","","","","","html-button-response","127","707288","0.0-127.0","65AE24F70B1543EC97B19DE2C86978E5","019cf4ec-4ed9-75b0-be3b-e7135e87bb73","019cf4c8-1de8-79ec-b3bd-d98520647593","","1119","
                <div class=""stimulus-container"">
                    <img src=""images/causal_sequence/saving_a_cat_causal/saving_a_cat_causal_3.png"" class=""exp-image"">
                    <div class=""question-area"">
                        <p style=""font-size: 20px; font-weight: bold; margin: 0;"">Is there a person in this image?</p>
                    </div>
                </div>","1","main_experiment_trial","3","saving_a_cat_causal","causal_sequence","","","","",""
"","","","","","html-keyboard-response","128","712292","0.0-128.0","65AE24F70B1543EC97B19DE2C86978E5","019cf4ec-4ed9-75b0-be3b-e7135e87bb73","019cf4c8-1de8-79ec-b3bd-d98520647593","","null","
                <div class=""stimulus-container"">
                    <img src=""images/causal_sequence/saving_a_cat_causal/saving_a_cat_causal_4.png"" class=""exp-image"">
                    <div class=""question-area""></div> 
                </div>","null","","","","","","","","",""
"","","","","","html-button-response","129","712840","0.0-129.0","65AE24F70B1543EC97B19DE2C86978E5","019cf4ec-4ed9-75b0-be3b-e7135e87bb73","019cf4c8-1de8-79ec-b3bd-d98520647593","","547","
                <div class=""stimulus-container"">
                    <img src=""images/causal_sequence/saving_a_cat_causal/saving_a_cat_causal_4.png"" class=""exp-image"">
                    <div class=""question-area"">
                        <p style=""font-size: 20px; font-weight: bold; margin: 0;"">Is there a person in this image?</p>
                    </div>
                </div>","0","main_experiment_trial","4","saving_a_cat_causal","causal_sequence","","","","",""
"","","","","","html-keyboard-response","130","717842","0.0-130.0","65AE24F70B1543EC97B19DE2C86978E5","019cf4ec-4ed9-75b0-be3b-e7135e87bb73","019cf4c8-1de8-79ec-b3bd-d98520647593","","null","
                <div class=""stimulus-container"">
                    <img src=""images/causal_sequence/saving_a_cat_causal/saving_a_cat_causal_5.png"" class=""exp-image"">
                    <div class=""question-area""></div> 
                </div>","null","","","","","","","","",""
"","","","","","html-button-response","131","718448","0.0-131.0","65AE24F70B1543EC97B19DE2C86978E5","019cf4ec-4ed9-75b0-be3b-e7135e87bb73","019cf4c8-1de8-79ec-b3bd-d98520647593","","606","
                <div class=""stimulus-container"">
                    <img src=""images/causal_sequence/saving_a_cat_causal/saving_a_cat_causal_5.png"" class=""exp-image"">
                    <div class=""question-area"">
                        <p style=""font-size: 20px; font-weight: bold; margin: 0;"">Is there a person in this image?</p>
                    </div>
                </div>","0","main_experiment_trial","5","saving_a_cat_causal","causal_sequence","","","","",""
"","","","","","html-keyboard-response","132","723462","0.0-132.0","65AE24F70B1543EC97B19DE2C86978E5","019cf4ec-4ed9-75b0-be3b-e7135e87bb73","019cf4c8-1de8-79ec-b3bd-d98520647593","","null","
                <div class=""stimulus-container"">
                    <img src=""images/causal_sequence/saving_a_cat_causal/saving_a_cat_causal_6.png"" class=""exp-image"">
                    <div class=""question-area""></div> 
                </div>","null","","","","","","","","",""
"","","","","","html-button-response","133","724064","0.0-133.0","65AE24F70B1543EC97B19DE2C86978E5","019cf4ec-4ed9-75b0-be3b-e7135e87bb73","019cf4c8-1de8-79ec-b3bd-d98520647593","","602","
                <div class=""stimulus-container"">
                    <img src=""images/causal_sequence/saving_a_cat_causal/saving_a_cat_causal_6.png"" class=""exp-image"">
                    <div class=""question-area"">
                        <p style=""font-size: 20px; font-weight: bold; margin: 0;"">Is there a person in this image?</p>
                    </div>
                </div>","0","main_experiment_trial","6","saving_a_cat_causal","causal_sequence","","","","",""
"","","","","","html-keyboard-response","134","729077","0.0-134.0","65AE24F70B1543EC97B19DE2C86978E5","019cf4ec-4ed9-75b0-be3b-e7135e87bb73","019cf4c8-1de8-79ec-b3bd-d98520647593","","null","
                <div class=""stimulus-container"">
                    <img src=""images/causal_sequence/saving_a_cat_causal/saving_a_cat_causal_7.png"" class=""exp-image"">
                    <div class=""question-area""></div> 
                </div>","null","","","","","","","","",""
"","","","","","html-button-response","135","729880","0.0-135.0","65AE24F70B1543EC97B19DE2C86978E5","019cf4ec-4ed9-75b0-be3b-e7135e87bb73","019cf4c8-1de8-79ec-b3bd-d98520647593","","803","
                <div class=""stimulus-container"">
                    <img src=""images/causal_sequence/saving_a_cat_causal/saving_a_cat_causal_7.png"" class=""exp-image"">
                    <div class=""question-area"">
                        <p style=""font-size: 20px; font-weight: bold; margin: 0;"">Is there a person in this image?</p>
                    </div>
                </div>","0","main_experiment_trial","7","saving_a_cat_causal","causal_sequence","","","","",""
"","","","","","html-keyboard-response","136","734886","0.0-136.0","65AE24F70B1543EC97B19DE2C86978E5","019cf4ec-4ed9-75b0-be3b-e7135e87bb73","019cf4c8-1de8-79ec-b3bd-d98520647593","","null","
                <div class=""stimulus-container"">
                    <img src=""images/causal_sequence/saving_a_cat_causal/saving_a_cat_causal_8.png"" class=""exp-image"">
                    <div class=""question-area""></div> 
                </div>","null","","","","","","","","",""
"","","","","","html-button-response","137","735824","0.0-137.0","65AE24F70B1543EC97B19DE2C86978E5","019cf4ec-4ed9-75b0-be3b-e7135e87bb73","019cf4c8-1de8-79ec-b3bd-d98520647593","","938","
                <div class=""stimulus-container"">
                    <img src=""images/causal_sequence/saving_a_cat_causal/saving_a_cat_causal_8.png"" class=""exp-image"">
                    <div class=""question-area"">
                        <p style=""font-size: 20px; font-weight: bold; margin: 0;"">Is there a person in this image?</p>
                    </div>
                </div>","0","main_experiment_trial","8","saving_a_cat_causal","causal_sequence","","","","",""
"","","","","","html-keyboard-response","138","740832","0.0-138.0","65AE24F70B1543EC97B19DE2C86978E5","019cf4ec-4ed9-75b0-be3b-e7135e87bb73","019cf4c8-1de8-79ec-b3bd-d98520647593","","null","
                <div class=""stimulus-container"">
                    <img src=""images/causal_sequence/saving_a_cat_causal/saving_a_cat_causal_9.png"" class=""exp-image"">
                    <div class=""question-area""></div> 
                </div>","null","","","","","","","","",""
"","","","","","html-button-response","139","741280","0.0-139.0","65AE24F70B1543EC97B19DE2C86978E5","019cf4ec-4ed9-75b0-be3b-e7135e87bb73","019cf4c8-1de8-79ec-b3bd-d98520647593","","448","
                <div class=""stimulus-container"">
                    <img src=""images/causal_sequence/saving_a_cat_causal/saving_a_cat_causal_9.png"" class=""exp-image"">
                    <div class=""question-area"">
                        <p style=""font-size: 20px; font-weight: bold; margin: 0;"">Is there a person in this image?</p>
                    </div>
                </div>","0","main_experiment_trial","9","saving_a_cat_causal","causal_sequence","","","","",""
"","","","","","html-keyboard-response","140","746285","0.0-140.0","65AE24F70B1543EC97B19DE2C86978E5","019cf4ec-4ed9-75b0-be3b-e7135e87bb73","019cf4c8-1de8-79ec-b3bd-d98520647593","","null","
                <div class=""stimulus-container"">
                    <img src=""images/causal_sequence/saving_a_cat_causal/saving_a_cat_causal_ten.png"" class=""exp-image"">
                    <div class=""question-area""></div> 
                </div>","null","","","","","","","","",""
"","","","","","html-button-response","141","746680","0.0-141.0","65AE24F70B1543EC97B19DE2C86978E5","019cf4ec-4ed9-75b0-be3b-e7135e87bb73","019cf4c8-1de8-79ec-b3bd-d98520647593","","394","
                <div class=""stimulus-container"">
                    <img src=""images/causal_sequence/saving_a_cat_causal/saving_a_cat_causal_ten.png"" class=""exp-image"">
                    <div class=""question-area"">
                        <p style=""font-size: 20px; font-weight: bold; margin: 0;"">Is there a person in this image?</p>
                    </div>
                </div>","0","main_experiment_trial","ten","saving_a_cat_causal","causal_sequence","","","","",""
"","","","","","html-keyboard-response","142","747686","0.0-142.0","65AE24F70B1543EC97B19DE2C86978E5","019cf4ec-4ed9-75b0-be3b-e7135e87bb73","019cf4c8-1de8-79ec-b3bd-d98520647593","","null","<div style=""background-color: white; width: 100vw; height: 100vh;""></div>","null","","","","","","","","",""
"","","","","","html-keyboard-response","143","752691","0.0-143.0","65AE24F70B1543EC97B19DE2C86978E5","019cf4ec-4ed9-75b0-be3b-e7135e87bb73","019cf4c8-1de8-79ec-b3bd-d98520647593","","null","
                <div class=""stimulus-container"">
                    <img src=""images/schematic_sequence/supermarket_scheme/supermarket_scheme_1.png"" class=""exp-image"">
                    <div class=""question-area""></div> 
                </div>","null","","","","","","","","",""
"","","","","","html-button-response","144","753392","0.0-144.0","65AE24F70B1543EC97B19DE2C86978E5","019cf4ec-4ed9-75b0-be3b-e7135e87bb73","019cf4c8-1de8-79ec-b3bd-d98520647593","","700","
                <div class=""stimulus-container"">
                    <img src=""images/schematic_sequence/supermarket_scheme/supermarket_scheme_1.png"" class=""exp-image"">
                    <div class=""question-area"">
                        <p style=""font-size: 20px; font-weight: bold; margin: 0;"">Is there a person in this image?</p>
                    </div>
                </div>","1","main_experiment_trial","1","supermarket_scheme","schematic_sequence","","","","",""
"","","","","","html-keyboard-response","145","758405","0.0-145.0","65AE24F70B1543EC97B19DE2C86978E5","019cf4ec-4ed9-75b0-be3b-e7135e87bb73","019cf4c8-1de8-79ec-b3bd-d98520647593","","null","
                <div class=""stimulus-container"">
                    <img src=""images/schematic_sequence/supermarket_scheme/supermarket_scheme_2.png"" class=""exp-image"">
                    <div class=""question-area""></div> 
                </div>","null","","","","","","","","",""
"","","","","","html-button-response","146","759072","0.0-146.0","65AE24F70B1543EC97B19DE2C86978E5","019cf4ec-4ed9-75b0-be3b-e7135e87bb73","019cf4c8-1de8-79ec-b3bd-d98520647593","","666","
                <div class=""stimulus-container"">
                    <img src=""images/schematic_sequence/supermarket_scheme/supermarket_scheme_2.png"" class=""exp-image"">
                    <div class=""question-area"">
                        <p style=""font-size: 20px; font-weight: bold; margin: 0;"">Is there a person in this image?</p>
                    </div>
                </div>","1","main_experiment_trial","2","supermarket_scheme","schematic_sequence","","","","",""
"","","","","","html-keyboard-response","147","764098","0.0-147.0","65AE24F70B1543EC97B19DE2C86978E5","019cf4ec-4ed9-75b0-be3b-e7135e87bb73","019cf4c8-1de8-79ec-b3bd-d98520647593","","null","
                <div class=""stimulus-container"">
                    <img src=""images/schematic_sequence/supermarket_scheme/supermarket_scheme_3.png"" class=""exp-image"">
                    <div class=""question-area""></div> 
                </div>","null","","","","","","","","",""
"","","","","","html-button-response","148","765016","0.0-148.0","65AE24F70B1543EC97B19DE2C86978E5","019cf4ec-4ed9-75b0-be3b-e7135e87bb73","019cf4c8-1de8-79ec-b3bd-d98520647593","","917","
                <div class=""stimulus-container"">
                    <img src=""images/schematic_sequence/supermarket_scheme/supermarket_scheme_3.png"" class=""exp-image"">
                    <div class=""question-area"">
                        <p style=""font-size: 20px; font-weight: bold; margin: 0;"">Is there a person in this image?</p>
                    </div>
                </div>","1","main_experiment_trial","3","supermarket_scheme","schematic_sequence","","","","",""
"","","","","","html-keyboard-response","149","770021","0.0-149.0","65AE24F70B1543EC97B19DE2C86978E5","019cf4ec-4ed9-75b0-be3b-e7135e87bb73","019cf4c8-1de8-79ec-b3bd-d98520647593","","null","
                <div class=""stimulus-container"">
                    <img src=""images/schematic_sequence/supermarket_scheme/supermarket_scheme_4.png"" class=""exp-image"">
                    <div class=""question-area""></div> 
                </div>","null","","","","","","","","",""
"","","","","","html-button-response","150","771080","0.0-150.0","65AE24F70B1543EC97B19DE2C86978E5","019cf4ec-4ed9-75b0-be3b-e7135e87bb73","019cf4c8-1de8-79ec-b3bd-d98520647593","","1059","
                <div class=""stimulus-container"">
                    <img src=""images/schematic_sequence/supermarket_scheme/supermarket_scheme_4.png"" class=""exp-image"">
                    <div class=""question-area"">
                        <p style=""font-size: 20px; font-weight: bold; margin: 0;"">Is there a person in this image?</p>
                    </div>
                </div>","0","main_experiment_trial","4","supermarket_scheme","schematic_sequence","","","","",""
"","","","","","html-keyboard-response","151","776086","0.0-151.0","65AE24F70B1543EC97B19DE2C86978E5","019cf4ec-4ed9-75b0-be3b-e7135e87bb73","019cf4c8-1de8-79ec-b3bd-d98520647593","","null","
                <div class=""stimulus-container"">
                    <img src=""images/schematic_sequence/supermarket_scheme/supermarket_scheme_5.png"" class=""exp-image"">
                    <div class=""question-area""></div> 
                </div>","null","","","","","","","","",""
"","","","","","html-button-response","152","777024","0.0-152.0","65AE24F70B1543EC97B19DE2C86978E5","019cf4ec-4ed9-75b0-be3b-e7135e87bb73","019cf4c8-1de8-79ec-b3bd-d98520647593","","937","
                <div class=""stimulus-container"">
                    <img src=""images/schematic_sequence/supermarket_scheme/supermarket_scheme_5.png"" class=""exp-image"">
                    <div class=""question-area"">
                        <p style=""font-size: 20px; font-weight: bold; margin: 0;"">Is there a person in this image?</p>
                    </div>
                </div>","1","main_experiment_trial","5","supermarket_scheme","schematic_sequence","","","","",""
"","","","","","html-keyboard-response","153","782025","0.0-153.0","65AE24F70B1543EC97B19DE2C86978E5","019cf4ec-4ed9-75b0-be3b-e7135e87bb73","019cf4c8-1de8-79ec-b3bd-d98520647593","","null","
                <div class=""stimulus-container"">
                    <img src=""images/schematic_sequence/supermarket_scheme/supermarket_scheme_6.png"" class=""exp-image"">
                    <div class=""question-area""></div> 
                </div>","null","","","","","","","","",""
"","","","","","html-button-response","154","782512","0.0-154.0","65AE24F70B1543EC97B19DE2C86978E5","019cf4ec-4ed9-75b0-be3b-e7135e87bb73","019cf4c8-1de8-79ec-b3bd-d98520647593","","486","
                <div class=""stimulus-container"">
                    <img src=""images/schematic_sequence/supermarket_scheme/supermarket_scheme_6.png"" class=""exp-image"">
                    <div class=""question-area"">
                        <p style=""font-size: 20px; font-weight: bold; margin: 0;"">Is there a person in this image?</p>
                    </div>
                </div>","0","main_experiment_trial","6","supermarket_scheme","schematic_sequence","","","","",""
"","","","","","html-keyboard-response","155","787516","0.0-155.0","65AE24F70B1543EC97B19DE2C86978E5","019cf4ec-4ed9-75b0-be3b-e7135e87bb73","019cf4c8-1de8-79ec-b3bd-d98520647593","","null","
                <div class=""stimulus-container"">
                    <img src=""images/schematic_sequence/supermarket_scheme/supermarket_scheme_7.png"" class=""exp-image"">
                    <div class=""question-area""></div> 
                </div>","null","","","","","","","","",""
"","","","","","html-button-response","156","788080","0.0-156.0","65AE24F70B1543EC97B19DE2C86978E5","019cf4ec-4ed9-75b0-be3b-e7135e87bb73","019cf4c8-1de8-79ec-b3bd-d98520647593","","564","
                <div class=""stimulus-container"">
                    <img src=""images/schematic_sequence/supermarket_scheme/supermarket_scheme_7.png"" class=""exp-image"">
                    <div class=""question-area"">
                        <p style=""font-size: 20px; font-weight: bold; margin: 0;"">Is there a person in this image?</p>
                    </div>
                </div>","0","main_experiment_trial","7","supermarket_scheme","schematic_sequence","","","","",""
"","","","","","html-keyboard-response","157","793094","0.0-157.0","65AE24F70B1543EC97B19DE2C86978E5","019cf4ec-4ed9-75b0-be3b-e7135e87bb73","019cf4c8-1de8-79ec-b3bd-d98520647593","","null","
                <div class=""stimulus-container"">
                    <img src=""images/schematic_sequence/supermarket_scheme/supermarket_scheme_8.png"" class=""exp-image"">
                    <div class=""question-area""></div> 
                </div>","null","","","","","","","","",""
"","","","","","html-button-response","158","793472","0.0-158.0","65AE24F70B1543EC97B19DE2C86978E5","019cf4ec-4ed9-75b0-be3b-e7135e87bb73","019cf4c8-1de8-79ec-b3bd-d98520647593","","377","
                <div class=""stimulus-container"">
                    <img src=""images/schematic_sequence/supermarket_scheme/supermarket_scheme_8.png"" class=""exp-image"">
                    <div class=""question-area"">
                        <p style=""font-size: 20px; font-weight: bold; margin: 0;"">Is there a person in this image?</p>
                    </div>
                </div>","0","main_experiment_trial","8","supermarket_scheme","schematic_sequence","","","","",""
"","","","","","html-keyboard-response","159","798486","0.0-159.0","65AE24F70B1543EC97B19DE2C86978E5","019cf4ec-4ed9-75b0-be3b-e7135e87bb73","019cf4c8-1de8-79ec-b3bd-d98520647593","","null","
                <div class=""stimulus-container"">
                    <img src=""images/schematic_sequence/supermarket_scheme/supermarket_scheme_9.png"" class=""exp-image"">
                    <div class=""question-area""></div> 
                </div>","null","","","","","","","","",""
"","","","","","html-button-response","160","798920","0.0-160.0","65AE24F70B1543EC97B19DE2C86978E5","019cf4ec-4ed9-75b0-be3b-e7135e87bb73","019cf4c8-1de8-79ec-b3bd-d98520647593","","434","
                <div class=""stimulus-container"">
                    <img src=""images/schematic_sequence/supermarket_scheme/supermarket_scheme_9.png"" class=""exp-image"">
                    <div class=""question-area"">
                        <p style=""font-size: 20px; font-weight: bold; margin: 0;"">Is there a person in this image?</p>
                    </div>
                </div>","0","main_experiment_trial","9","supermarket_scheme","schematic_sequence","","","","",""
"","","","","","html-keyboard-response","161","803929","0.0-161.0","65AE24F70B1543EC97B19DE2C86978E5","019cf4ec-4ed9-75b0-be3b-e7135e87bb73","019cf4c8-1de8-79ec-b3bd-d98520647593","","null","
                <div class=""stimulus-container"">
                    <img src=""images/schematic_sequence/supermarket_scheme/supermarket_scheme_ten.png"" class=""exp-image"">
                    <div class=""question-area""></div> 
                </div>","null","","","","","","","","",""
"","","","","","html-button-response","162","804944","0.0-162.0","65AE24F70B1543EC97B19DE2C86978E5","019cf4ec-4ed9-75b0-be3b-e7135e87bb73","019cf4c8-1de8-79ec-b3bd-d98520647593","","1015","
                <div class=""stimulus-container"">
                    <img src=""images/schematic_sequence/supermarket_scheme/supermarket_scheme_ten.png"" class=""exp-image"">
                    <div class=""question-area"">
                        <p style=""font-size: 20px; font-weight: bold; margin: 0;"">Is there a person in this image?</p>
                    </div>
                </div>","1","main_experiment_trial","ten","supermarket_scheme","schematic_sequence","","","","",""
"","","","","","html-keyboard-response","163","805955","0.0-163.0","65AE24F70B1543EC97B19DE2C86978E5","019cf4ec-4ed9-75b0-be3b-e7135e87bb73","019cf4c8-1de8-79ec-b3bd-d98520647593","","null","<div style=""background-color: white; width: 100vw; height: 100vh;""></div>","null","","","","","","","","",""
"","","","","","html-keyboard-response","164","810958","0.0-164.0","65AE24F70B1543EC97B19DE2C86978E5","019cf4ec-4ed9-75b0-be3b-e7135e87bb73","019cf4c8-1de8-79ec-b3bd-d98520647593","","null","
                <div class=""stimulus-container"">
                    <img src=""images/schematic_sequence/restaurant_scheme/restaurant_scheme_1.png"" class=""exp-image"">
                    <div class=""question-area""></div> 
                </div>","null","","","","","","","","",""
"","","","","","html-button-response","165","811584","0.0-165.0","65AE24F70B1543EC97B19DE2C86978E5","019cf4ec-4ed9-75b0-be3b-e7135e87bb73","019cf4c8-1de8-79ec-b3bd-d98520647593","","625","
                <div class=""stimulus-container"">
                    <img src=""images/schematic_sequence/restaurant_scheme/restaurant_scheme_1.png"" class=""exp-image"">
                    <div class=""question-area"">
                        <p style=""font-size: 20px; font-weight: bold; margin: 0;"">Is there a person in this image?</p>
                    </div>
                </div>","0","main_experiment_trial","1","restaurant_scheme","schematic_sequence","","","","",""
"","","","","","html-keyboard-response","166","816592","0.0-166.0","65AE24F70B1543EC97B19DE2C86978E5","019cf4ec-4ed9-75b0-be3b-e7135e87bb73","019cf4c8-1de8-79ec-b3bd-d98520647593","","null","
                <div class=""stimulus-container"">
                    <img src=""images/schematic_sequence/restaurant_scheme/restaurant_scheme_2.png"" class=""exp-image"">
                    <div class=""question-area""></div> 
                </div>","null","","","","","","","","",""
"","","","","","html-button-response","167","817224","0.0-167.0","65AE24F70B1543EC97B19DE2C86978E5","019cf4ec-4ed9-75b0-be3b-e7135e87bb73","019cf4c8-1de8-79ec-b3bd-d98520647593","","631","
                <div class=""stimulus-container"">
                    <img src=""images/schematic_sequence/restaurant_scheme/restaurant_scheme_2.png"" class=""exp-image"">
                    <div class=""question-area"">
                        <p style=""font-size: 20px; font-weight: bold; margin: 0;"">Is there a person in this image?</p>
                    </div>
                </div>","1","main_experiment_trial","2","restaurant_scheme","schematic_sequence","","","","",""
"","","","","","html-keyboard-response","168","822233","0.0-168.0","65AE24F70B1543EC97B19DE2C86978E5","019cf4ec-4ed9-75b0-be3b-e7135e87bb73","019cf4c8-1de8-79ec-b3bd-d98520647593","","null","
                <div class=""stimulus-container"">
                    <img src=""images/schematic_sequence/restaurant_scheme/restaurant_scheme_3.png"" class=""exp-image"">
                    <div class=""question-area""></div> 
                </div>","null","","","","","","","","",""
"","","","","","html-button-response","169","822888","0.0-169.0","65AE24F70B1543EC97B19DE2C86978E5","019cf4ec-4ed9-75b0-be3b-e7135e87bb73","019cf4c8-1de8-79ec-b3bd-d98520647593","","654","
                <div class=""stimulus-container"">
                    <img src=""images/schematic_sequence/restaurant_scheme/restaurant_scheme_3.png"" class=""exp-image"">
                    <div class=""question-area"">
                        <p style=""font-size: 20px; font-weight: bold; margin: 0;"">Is there a person in this image?</p>
                    </div>
                </div>","1","main_experiment_trial","3","restaurant_scheme","schematic_sequence","","","","",""
"","","","","","html-keyboard-response","170","827895","0.0-170.0","65AE24F70B1543EC97B19DE2C86978E5","019cf4ec-4ed9-75b0-be3b-e7135e87bb73","019cf4c8-1de8-79ec-b3bd-d98520647593","","null","
                <div class=""stimulus-container"">
                    <img src=""images/schematic_sequence/restaurant_scheme/restaurant_scheme_4.png"" class=""exp-image"">
                    <div class=""question-area""></div> 
                </div>","null","","","","","","","","",""
"","","","","","html-button-response","171","828792","0.0-171.0","65AE24F70B1543EC97B19DE2C86978E5","019cf4ec-4ed9-75b0-be3b-e7135e87bb73","019cf4c8-1de8-79ec-b3bd-d98520647593","","896","
                <div class=""stimulus-container"">
                    <img src=""images/schematic_sequence/restaurant_scheme/restaurant_scheme_4.png"" class=""exp-image"">
                    <div class=""question-area"">
                        <p style=""font-size: 20px; font-weight: bold; margin: 0;"">Is there a person in this image?</p>
                    </div>
                </div>","0","main_experiment_trial","4","restaurant_scheme","schematic_sequence","","","","",""
"","","","","","html-keyboard-response","172","833793","0.0-172.0","65AE24F70B1543EC97B19DE2C86978E5","019cf4ec-4ed9-75b0-be3b-e7135e87bb73","019cf4c8-1de8-79ec-b3bd-d98520647593","","null","
                <div class=""stimulus-container"">
                    <img src=""images/schematic_sequence/restaurant_scheme/restaurant_scheme_5.png"" class=""exp-image"">
                    <div class=""question-area""></div> 
                </div>","null","","","","","","","","",""
"","","","","","html-button-response","173","834400","0.0-173.0","65AE24F70B1543EC97B19DE2C86978E5","019cf4ec-4ed9-75b0-be3b-e7135e87bb73","019cf4c8-1de8-79ec-b3bd-d98520647593","","607","
                <div class=""stimulus-container"">
                    <img src=""images/schematic_sequence/restaurant_scheme/restaurant_scheme_5.png"" class=""exp-image"">
                    <div class=""question-area"">
                        <p style=""font-size: 20px; font-weight: bold; margin: 0;"">Is there a person in this image?</p>
                    </div>
                </div>","0","main_experiment_trial","5","restaurant_scheme","schematic_sequence","","","","",""
"","","","","","html-keyboard-response","174","839408","0.0-174.0","65AE24F70B1543EC97B19DE2C86978E5","019cf4ec-4ed9-75b0-be3b-e7135e87bb73","019cf4c8-1de8-79ec-b3bd-d98520647593","","null","
                <div class=""stimulus-container"">
                    <img src=""images/schematic_sequence/restaurant_scheme/restaurant_scheme_6.png"" class=""exp-image"">
                    <div class=""question-area""></div> 
                </div>","null","","","","","","","","",""
"","","","","","html-button-response","175","840344","0.0-175.0","65AE24F70B1543EC97B19DE2C86978E5","019cf4ec-4ed9-75b0-be3b-e7135e87bb73","019cf4c8-1de8-79ec-b3bd-d98520647593","","935","
                <div class=""stimulus-container"">
                    <img src=""images/schematic_sequence/restaurant_scheme/restaurant_scheme_6.png"" class=""exp-image"">
                    <div class=""question-area"">
                        <p style=""font-size: 20px; font-weight: bold; margin: 0;"">Is there a person in this image?</p>
                    </div>
                </div>","1","main_experiment_trial","6","restaurant_scheme","schematic_sequence","","","","",""
"","","","","","html-keyboard-response","176","845365","0.0-176.0","65AE24F70B1543EC97B19DE2C86978E5","019cf4ec-4ed9-75b0-be3b-e7135e87bb73","019cf4c8-1de8-79ec-b3bd-d98520647593","","null","
                <div class=""stimulus-container"">
                    <img src=""images/schematic_sequence/restaurant_scheme/restaurant_scheme_7.png"" class=""exp-image"">
                    <div class=""question-area""></div> 
                </div>","null","","","","","","","","",""
"","","","","","html-button-response","177","846192","0.0-177.0","65AE24F70B1543EC97B19DE2C86978E5","019cf4ec-4ed9-75b0-be3b-e7135e87bb73","019cf4c8-1de8-79ec-b3bd-d98520647593","","827","
                <div class=""stimulus-container"">
                    <img src=""images/schematic_sequence/restaurant_scheme/restaurant_scheme_7.png"" class=""exp-image"">
                    <div class=""question-area"">
                        <p style=""font-size: 20px; font-weight: bold; margin: 0;"">Is there a person in this image?</p>
                    </div>
                </div>","1","main_experiment_trial","7","restaurant_scheme","schematic_sequence","","","","",""
"","","","","","html-keyboard-response","178","851193","0.0-178.0","65AE24F70B1543EC97B19DE2C86978E5","019cf4ec-4ed9-75b0-be3b-e7135e87bb73","019cf4c8-1de8-79ec-b3bd-d98520647593","","null","
                <div class=""stimulus-container"">
                    <img src=""images/schematic_sequence/restaurant_scheme/restaurant_scheme_8.png"" class=""exp-image"">
                    <div class=""question-area""></div> 
                </div>","null","","","","","","","","",""
"","","","","","html-button-response","179","851968","0.0-179.0","65AE24F70B1543EC97B19DE2C86978E5","019cf4ec-4ed9-75b0-be3b-e7135e87bb73","019cf4c8-1de8-79ec-b3bd-d98520647593","","774","
                <div class=""stimulus-container"">
                    <img src=""images/schematic_sequence/restaurant_scheme/restaurant_scheme_8.png"" class=""exp-image"">
                    <div class=""question-area"">
                        <p style=""font-size: 20px; font-weight: bold; margin: 0;"">Is there a person in this image?</p>
                    </div>
                </div>","0","main_experiment_trial","8","restaurant_scheme","schematic_sequence","","","","",""
"","","","","","html-keyboard-response","180","856989","0.0-180.0","65AE24F70B1543EC97B19DE2C86978E5","019cf4ec-4ed9-75b0-be3b-e7135e87bb73","019cf4c8-1de8-79ec-b3bd-d98520647593","","null","
                <div class=""stimulus-container"">
                    <img src=""images/schematic_sequence/restaurant_scheme/restaurant_scheme_9.png"" class=""exp-image"">
                    <div class=""question-area""></div> 
                </div>","null","","","","","","","","",""
"","","","","","html-button-response","181","857552","0.0-181.0","65AE24F70B1543EC97B19DE2C86978E5","019cf4ec-4ed9-75b0-be3b-e7135e87bb73","019cf4c8-1de8-79ec-b3bd-d98520647593","","562","
                <div class=""stimulus-container"">
                    <img src=""images/schematic_sequence/restaurant_scheme/restaurant_scheme_9.png"" class=""exp-image"">
                    <div class=""question-area"">
                        <p style=""font-size: 20px; font-weight: bold; margin: 0;"">Is there a person in this image?</p>
                    </div>
                </div>","0","main_experiment_trial","9","restaurant_scheme","schematic_sequence","","","","",""
"","","","","","html-keyboard-response","182","862557","0.0-182.0","65AE24F70B1543EC97B19DE2C86978E5","019cf4ec-4ed9-75b0-be3b-e7135e87bb73","019cf4c8-1de8-79ec-b3bd-d98520647593","","null","
                <div class=""stimulus-container"">
                    <img src=""images/schematic_sequence/restaurant_scheme/restaurant_scheme_ten.png"" class=""exp-image"">
                    <div class=""question-area""></div> 
                </div>","null","","","","","","","","",""
"","","","","","html-button-response","183","863368","0.0-183.0","65AE24F70B1543EC97B19DE2C86978E5","019cf4ec-4ed9-75b0-be3b-e7135e87bb73","019cf4c8-1de8-79ec-b3bd-d98520647593","","810","
                <div class=""stimulus-container"">
                    <img src=""images/schematic_sequence/restaurant_scheme/restaurant_scheme_ten.png"" class=""exp-image"">
                    <div class=""question-area"">
                        <p style=""font-size: 20px; font-weight: bold; margin: 0;"">Is there a person in this image?</p>
