"success","timeout","failed_images","failed_audio","failed_video","trial_type","trial_index","time_elapsed","internal_node_id","subject_id","study_id","session_id","view_history","rt","stimulus","response","task","image_index","folder","sequence_type","presentation_order","valuable_image_index","reward_type","distance_from_x","target_X","chosen_image_index","is_x_plus_dist","correct_choice"
"true","false","[]","[]","[]","preload","0","38239","0.0-0.0","AC8EDEA3615142C3928E4260B003D83E","019d0664-3a25-7980-85a0-92bb3fe3e5d9","019d0640-0a2d-7740-a972-9c73365b2dcb","","","","","","","","","","","","","","","",""
"","","","","","instructions","1","44229","0.0-1.0","AC8EDEA3615142C3928E4260B003D83E","019d0664-3a25-7980-85a0-92bb3fe3e5d9","019d0640-0a2d-7740-a972-9c73365b2dcb","[{""page_index"":0,""viewing_time"":5988}]","5989","","","","","","","","","","","","","",""
"","","","","","instructions","2","123592","0.0-2.0","AC8EDEA3615142C3928E4260B003D83E","019d0664-3a25-7980-85a0-92bb3fe3e5d9","019d0640-0a2d-7740-a972-9c73365b2dcb","[{""page_index"":0,""viewing_time"":79360}]","79361","","","","","","","","","","","","","",""
"true","","","","","fullscreen","3","127869","0.0-3.0","AC8EDEA3615142C3928E4260B003D83E","019d0664-3a25-7980-85a0-92bb3fe3e5d9","019d0640-0a2d-7740-a972-9c73365b2dcb","","3262","","","","","","","","","","","","","",""
"","","","","","instructions","4","152019","0.0-4.0","AC8EDEA3615142C3928E4260B003D83E","019d0664-3a25-7980-85a0-92bb3fe3e5d9","019d0640-0a2d-7740-a972-9c73365b2dcb","[{""page_index"":0,""viewing_time"":24147}]","24148","","","","","","","","","","","","","",""
"","","","","","instructions","5","171935","0.0-5.0","AC8EDEA3615142C3928E4260B003D83E","019d0664-3a25-7980-85a0-92bb3fe3e5d9","019d0640-0a2d-7740-a972-9c73365b2dcb","[{""page_index"":0,""viewing_time"":19914}]","19915","","","","","","","","","","","","","",""
"","","","","","html-keyboard-response","6","175945","0.0-6.0","AC8EDEA3615142C3928E4260B003D83E","019d0664-3a25-7980-85a0-92bb3fe3e5d9","019d0640-0a2d-7740-a972-9c73365b2dcb","","null","
                <div class=""stimulus-container"">
                    <img src=""images/instructions/movie_1.png"" class=""exp-image"">
                    <div class=""question-area""></div> 
                </div>","null","","","","","","","","","","","",""
"","","","","","html-button-response","7","178965","0.0-7.0","AC8EDEA3615142C3928E4260B003D83E","019d0664-3a25-7980-85a0-92bb3fe3e5d9","019d0640-0a2d-7740-a972-9c73365b2dcb","","null","
                <div class=""stimulus-container"">
                    <img src=""images/instructions/movie_1.png"" class=""exp-image"">
                    <div class=""question-area"">
                        <p style=""font-size: 20px; font-weight: bold; margin: 0;"">Was there a person in this image?</p>
                    </div>
                </div>","null","example_question","1","","","","","","","","","",""
"","","","","","html-keyboard-response","8","182974","0.0-8.0","AC8EDEA3615142C3928E4260B003D83E","019d0664-3a25-7980-85a0-92bb3fe3e5d9","019d0640-0a2d-7740-a972-9c73365b2dcb","","null","
                <div class=""stimulus-container"">
                    <img src=""images/instructions/movie_2.png"" class=""exp-image"">
                    <div class=""question-area""></div> 
                </div>","null","","","","","","","","","","","",""
"","","","","","html-button-response","9","184941","0.0-9.0","AC8EDEA3615142C3928E4260B003D83E","019d0664-3a25-7980-85a0-92bb3fe3e5d9","019d0640-0a2d-7740-a972-9c73365b2dcb","","1965","
                <div class=""stimulus-container"">
                    <img src=""images/instructions/movie_2.png"" class=""exp-image"">
                    <div class=""question-area"">
                        <p style=""font-size: 20px; font-weight: bold; margin: 0;"">Was there a person in this image?</p>
                    </div>
                </div>","0","example_question","2","","","","","","","","","",""
"","","","","","html-keyboard-response","10","188954","0.0-10.0","AC8EDEA3615142C3928E4260B003D83E","019d0664-3a25-7980-85a0-92bb3fe3e5d9","019d0640-0a2d-7740-a972-9c73365b2dcb","","null","
                <div class=""stimulus-container"">
                    <img src=""images/instructions/movie_3.png"" class=""exp-image"">
                    <div class=""question-area""></div> 
                </div>","null","","","","","","","","","","","",""
"","","","","","html-button-response","11","190322","0.0-11.0","AC8EDEA3615142C3928E4260B003D83E","019d0664-3a25-7980-85a0-92bb3fe3e5d9","019d0640-0a2d-7740-a972-9c73365b2dcb","","1365","
                <div class=""stimulus-container"">
                    <img src=""images/instructions/movie_3.png"" class=""exp-image"">
                    <div class=""question-area"">
                        <p style=""font-size: 20px; font-weight: bold; margin: 0;"">Was there a person in this image?</p>
                    </div>
                </div>","0","example_question","3","","","","","","","","","",""
"","","","","","html-keyboard-response","12","194329","0.0-12.0","AC8EDEA3615142C3928E4260B003D83E","019d0664-3a25-7980-85a0-92bb3fe3e5d9","019d0640-0a2d-7740-a972-9c73365b2dcb","","null","
                <div class=""stimulus-container"">
                    <img src=""images/instructions/movie_4.png"" class=""exp-image"">
                    <div class=""question-area""></div> 
                </div>","null","","","","","","","","","","","",""
"","","","","","html-button-response","13","195469","0.0-13.0","AC8EDEA3615142C3928E4260B003D83E","019d0664-3a25-7980-85a0-92bb3fe3e5d9","019d0640-0a2d-7740-a972-9c73365b2dcb","","1138","
                <div class=""stimulus-container"">
                    <img src=""images/instructions/movie_4.png"" class=""exp-image"">
                    <div class=""question-area"">
                        <p style=""font-size: 20px; font-weight: bold; margin: 0;"">Was there a person in this image?</p>
                    </div>
                </div>","0","example_question","4","","","","","","","","","",""
"","","","","","instructions","14","199963","0.0-14.0","AC8EDEA3615142C3928E4260B003D83E","019d0664-3a25-7980-85a0-92bb3fe3e5d9","019d0640-0a2d-7740-a972-9c73365b2dcb","[{""page_index"":0,""viewing_time"":4493}]","4493","","","","","","","","","","","","","",""
"","","","","","instructions","15","208064","0.0-15.0","AC8EDEA3615142C3928E4260B003D83E","019d0664-3a25-7980-85a0-92bb3fe3e5d9","019d0640-0a2d-7740-a972-9c73365b2dcb","[{""page_index"":0,""viewing_time"":8097}]","8098","","","","","","","","","","","","","",""
"","","","","","html-keyboard-response","16","213068","0.0-16.0","AC8EDEA3615142C3928E4260B003D83E","019d0664-3a25-7980-85a0-92bb3fe3e5d9","019d0640-0a2d-7740-a972-9c73365b2dcb","","null","<div style=""background-color: white; width: 100vw; height: 100vh;""></div>","null","","","","","","","","","","","",""
"","","","","","html-keyboard-response","17","218082","0.0-17.0","AC8EDEA3615142C3928E4260B003D83E","019d0664-3a25-7980-85a0-92bb3fe3e5d9","019d0640-0a2d-7740-a972-9c73365b2dcb","","null","
                <div class=""stimulus-container"">
                    <img src=""images/causal_sequence/coin_causal/coin_causal_1.png"" class=""exp-image"">
                    <div class=""question-area""></div> 
                </div>","null","","","","","","","","","","","",""
"","","","","","html-button-response","18","219701","0.0-18.0","AC8EDEA3615142C3928E4260B003D83E","019d0664-3a25-7980-85a0-92bb3fe3e5d9","019d0640-0a2d-7740-a972-9c73365b2dcb","","1615","
                <div class=""stimulus-container"">
                    <img src=""images/causal_sequence/coin_causal/coin_causal_1.png"" class=""exp-image"">
                    <div class=""question-area"">
                        <p style=""font-size: 20px; font-weight: bold; margin: 0;"">Is there a person in this image?</p>
                    </div>
                </div>","0","main_experiment_trial","1","coin_causal","causal_sequence","chronological","","","","","","",""
"","","","","","html-keyboard-response","19","224720","0.0-19.0","AC8EDEA3615142C3928E4260B003D83E","019d0664-3a25-7980-85a0-92bb3fe3e5d9","019d0640-0a2d-7740-a972-9c73365b2dcb","","null","
                <div class=""stimulus-container"">
                    <img src=""images/causal_sequence/coin_causal/coin_causal_2.png"" class=""exp-image"">
                    <div class=""question-area""></div> 
                </div>","null","","","","","","","","","","","",""
"","","","","","html-button-response","20","225973","0.0-20.0","AC8EDEA3615142C3928E4260B003D83E","019d0664-3a25-7980-85a0-92bb3fe3e5d9","019d0640-0a2d-7740-a972-9c73365b2dcb","","1250","
                <div class=""stimulus-container"">
                    <img src=""images/causal_sequence/coin_causal/coin_causal_2.png"" class=""exp-image"">
                    <div class=""question-area"">
                        <p style=""font-size: 20px; font-weight: bold; margin: 0;"">Is there a person in this image?</p>
                    </div>
                </div>","0","main_experiment_trial","2","coin_causal","causal_sequence","chronological","","","","","","",""
"","","","","","html-keyboard-response","21","230981","0.0-21.0","AC8EDEA3615142C3928E4260B003D83E","019d0664-3a25-7980-85a0-92bb3fe3e5d9","019d0640-0a2d-7740-a972-9c73365b2dcb","","null","
                <div class=""stimulus-container"">
                    <img src=""images/causal_sequence/coin_causal/coin_causal_3.png"" class=""exp-image"">
                    <div class=""question-area""></div> 
                </div>","null","","","","","","","","","","","",""
"","","","","","html-button-response","22","232175","0.0-22.0","AC8EDEA3615142C3928E4260B003D83E","019d0664-3a25-7980-85a0-92bb3fe3e5d9","019d0640-0a2d-7740-a972-9c73365b2dcb","","1193","
                <div class=""stimulus-container"">
                    <img src=""images/causal_sequence/coin_causal/coin_causal_3.png"" class=""exp-image"">
                    <div class=""question-area"">
                        <p style=""font-size: 20px; font-weight: bold; margin: 0;"">Is there a person in this image?</p>
                    </div>
                </div>","0","main_experiment_trial","3","coin_causal","causal_sequence","chronological","","","","","","",""
"","","","","","html-keyboard-response","23","237178","0.0-23.0","AC8EDEA3615142C3928E4260B003D83E","019d0664-3a25-7980-85a0-92bb3fe3e5d9","019d0640-0a2d-7740-a972-9c73365b2dcb","","null","
                <div class=""stimulus-container"">
                    <img src=""images/causal_sequence/coin_causal/coin_causal_4.png"" class=""exp-image"">
                    <div class=""question-area""></div> 
                </div>","null","","","","","","","","","","","",""
"","","","","","html-button-response","24","238254","0.0-24.0","AC8EDEA3615142C3928E4260B003D83E","019d0664-3a25-7980-85a0-92bb3fe3e5d9","019d0640-0a2d-7740-a972-9c73365b2dcb","","1072","
                <div class=""stimulus-container"">
                    <img src=""images/causal_sequence/coin_causal/coin_causal_4.png"" class=""exp-image"">
                    <div class=""question-area"">
                        <p style=""font-size: 20px; font-weight: bold; margin: 0;"">Is there a person in this image?</p>
                    </div>
                </div>","0","main_experiment_trial","4","coin_causal","causal_sequence","chronological","","","","","","",""
"","","","","","html-keyboard-response","25","243274","0.0-25.0","AC8EDEA3615142C3928E4260B003D83E","019d0664-3a25-7980-85a0-92bb3fe3e5d9","019d0640-0a2d-7740-a972-9c73365b2dcb","","null","
                <div class=""stimulus-container"">
                    <img src=""images/causal_sequence/coin_causal/coin_causal_5.png"" class=""exp-image"">
                    <div class=""question-area""></div> 
                </div>","null","","","","","","","","","","","",""
"","","","","","html-button-response","26","244283","0.0-26.0","AC8EDEA3615142C3928E4260B003D83E","019d0664-3a25-7980-85a0-92bb3fe3e5d9","019d0640-0a2d-7740-a972-9c73365b2dcb","","1006","
                <div class=""stimulus-container"">
                    <img src=""images/causal_sequence/coin_causal/coin_causal_5.png"" class=""exp-image"">
                    <div class=""question-area"">
                        <p style=""font-size: 20px; font-weight: bold; margin: 0;"">Is there a person in this image?</p>
                    </div>
                </div>","0","main_experiment_trial","5","coin_causal","causal_sequence","chronological","","","","","","",""
"","","","","","html-keyboard-response","27","249286","0.0-27.0","AC8EDEA3615142C3928E4260B003D83E","019d0664-3a25-7980-85a0-92bb3fe3e5d9","019d0640-0a2d-7740-a972-9c73365b2dcb","","null","
                <div class=""stimulus-container"">
                    <img src=""images/causal_sequence/coin_causal/coin_causal_6.png"" class=""exp-image"">
                    <div class=""question-area""></div> 
                </div>","null","","","","","","","","","","","",""
"","","","","","html-button-response","28","250257","0.0-28.0","AC8EDEA3615142C3928E4260B003D83E","019d0664-3a25-7980-85a0-92bb3fe3e5d9","019d0640-0a2d-7740-a972-9c73365b2dcb","","969","
                <div class=""stimulus-container"">
                    <img src=""images/causal_sequence/coin_causal/coin_causal_6.png"" class=""exp-image"">
                    <div class=""question-area"">
                        <p style=""font-size: 20px; font-weight: bold; margin: 0;"">Is there a person in this image?</p>
                    </div>
                </div>","0","main_experiment_trial","6","coin_causal","causal_sequence","chronological","","","","","","",""
"","","","","","html-keyboard-response","29","255267","0.0-29.0","AC8EDEA3615142C3928E4260B003D83E","019d0664-3a25-7980-85a0-92bb3fe3e5d9","019d0640-0a2d-7740-a972-9c73365b2dcb","","null","
                <div class=""stimulus-container"">
                    <img src=""images/causal_sequence/coin_causal/coin_causal_7.png"" class=""exp-image"">
                    <div class=""question-area""></div> 
                </div>","null","","","","","","","","","","","",""
"","","","","","html-button-response","30","256689","0.0-30.0","AC8EDEA3615142C3928E4260B003D83E","019d0664-3a25-7980-85a0-92bb3fe3e5d9","019d0640-0a2d-7740-a972-9c73365b2dcb","","1418","
                <div class=""stimulus-container"">
                    <img src=""images/causal_sequence/coin_causal/coin_causal_7.png"" class=""exp-image"">
                    <div class=""question-area"">
                        <p style=""font-size: 20px; font-weight: bold; margin: 0;"">Is there a person in this image?</p>
                    </div>
                </div>","1","main_experiment_trial","7","coin_causal","causal_sequence","chronological","","","","","","",""
"","","","","","html-keyboard-response","31","261699","0.0-31.0","AC8EDEA3615142C3928E4260B003D83E","019d0664-3a25-7980-85a0-92bb3fe3e5d9","019d0640-0a2d-7740-a972-9c73365b2dcb","","null","
                <div class=""stimulus-container"">
                    <img src=""images/causal_sequence/coin_causal/coin_causal_8.png"" class=""exp-image"">
                    <div class=""question-area""></div> 
                </div>","null","","","","","","","","","","","",""
"","","","","","html-button-response","32","263039","0.0-32.0","AC8EDEA3615142C3928E4260B003D83E","019d0664-3a25-7980-85a0-92bb3fe3e5d9","019d0640-0a2d-7740-a972-9c73365b2dcb","","1337","
                <div class=""stimulus-container"">
                    <img src=""images/causal_sequence/coin_causal/coin_causal_8.png"" class=""exp-image"">
                    <div class=""question-area"">
                        <p style=""font-size: 20px; font-weight: bold; margin: 0;"">Is there a person in this image?</p>
                    </div>
                </div>","0","main_experiment_trial","8","coin_causal","causal_sequence","chronological","","","","","","",""
"","","","","","html-keyboard-response","33","268047","0.0-33.0","AC8EDEA3615142C3928E4260B003D83E","019d0664-3a25-7980-85a0-92bb3fe3e5d9","019d0640-0a2d-7740-a972-9c73365b2dcb","","null","
                <div class=""stimulus-container"">
                    <img src=""images/causal_sequence/coin_causal/coin_causal_9.png"" class=""exp-image"">
                    <div class=""question-area""></div> 
                </div>","null","","","","","","","","","","","",""
"","","","","","html-button-response","34","269144","0.0-34.0","AC8EDEA3615142C3928E4260B003D83E","019d0664-3a25-7980-85a0-92bb3fe3e5d9","019d0640-0a2d-7740-a972-9c73365b2dcb","","1094","
                <div class=""stimulus-container"">
                    <img src=""images/causal_sequence/coin_causal/coin_causal_9.png"" class=""exp-image"">
                    <div class=""question-area"">
                        <p style=""font-size: 20px; font-weight: bold; margin: 0;"">Is there a person in this image?</p>
                    </div>
                </div>","0","main_experiment_trial","9","coin_causal","causal_sequence","chronological","","","","","","",""
"","","","","","html-keyboard-response","35","274159","0.0-35.0","AC8EDEA3615142C3928E4260B003D83E","019d0664-3a25-7980-85a0-92bb3fe3e5d9","019d0640-0a2d-7740-a972-9c73365b2dcb","","null","
                <div class=""stimulus-container"">
                    <img src=""images/causal_sequence/coin_causal/coin_causal_ten.png"" class=""exp-image"">
                    <div class=""question-area""></div> 
                </div>","null","","","","","","","","","","","",""
"","","","","","html-button-response","36","275039","0.0-36.0","AC8EDEA3615142C3928E4260B003D83E","019d0664-3a25-7980-85a0-92bb3fe3e5d9","019d0640-0a2d-7740-a972-9c73365b2dcb","","879","
                <div class=""stimulus-container"">
                    <img src=""images/causal_sequence/coin_causal/coin_causal_ten.png"" class=""exp-image"">
                    <div class=""question-area"">
                        <p style=""font-size: 20px; font-weight: bold; margin: 0;"">Is there a person in this image?</p>
                    </div>
                </div>","0","main_experiment_trial","ten","coin_causal","causal_sequence","chronological","","","","","","",""
"","","","","","html-keyboard-response","37","280060","0.0-37.0","AC8EDEA3615142C3928E4260B003D83E","019d0664-3a25-7980-85a0-92bb3fe3e5d9","019d0640-0a2d-7740-a972-9c73365b2dcb","","null","<div style=""background-color: white; width: 100vw; height: 100vh;""></div>","null","","","","","","","","","","","",""
"","","","","","html-keyboard-response","38","285069","0.0-38.0","AC8EDEA3615142C3928E4260B003D83E","019d0664-3a25-7980-85a0-92bb3fe3e5d9","019d0640-0a2d-7740-a972-9c73365b2dcb","","null","
                <div class=""stimulus-container"">
                    <img src=""images/causal_sequence/museum_causal/museum_causal_1.png"" class=""exp-image"">
                    <div class=""question-area""></div> 
                </div>","null","","","","","","","","","","","",""
"","","","","","html-button-response","39","286057","0.0-39.0","AC8EDEA3615142C3928E4260B003D83E","019d0664-3a25-7980-85a0-92bb3fe3e5d9","019d0640-0a2d-7740-a972-9c73365b2dcb","","985","
                <div class=""stimulus-container"">
                    <img src=""images/causal_sequence/museum_causal/museum_causal_1.png"" class=""exp-image"">
                    <div class=""question-area"">
                        <p style=""font-size: 20px; font-weight: bold; margin: 0;"">Is there a person in this image?</p>
                    </div>
                </div>","0","main_experiment_trial","1","museum_causal","causal_sequence","chronological","","","","","","",""
"","","","","","html-keyboard-response","40","291078","0.0-40.0","AC8EDEA3615142C3928E4260B003D83E","019d0664-3a25-7980-85a0-92bb3fe3e5d9","019d0640-0a2d-7740-a972-9c73365b2dcb","","null","
                <div class=""stimulus-container"">
                    <img src=""images/causal_sequence/museum_causal/museum_causal_2.png"" class=""exp-image"">
                    <div class=""question-area""></div> 
                </div>","null","","","","","","","","","","","",""
"","","","","","html-button-response","41","292011","0.0-41.0","AC8EDEA3615142C3928E4260B003D83E","019d0664-3a25-7980-85a0-92bb3fe3e5d9","019d0640-0a2d-7740-a972-9c73365b2dcb","","929","
                <div class=""stimulus-container"">
                    <img src=""images/causal_sequence/museum_causal/museum_causal_2.png"" class=""exp-image"">
                    <div class=""question-area"">
                        <p style=""font-size: 20px; font-weight: bold; margin: 0;"">Is there a person in this image?</p>
                    </div>
                </div>","0","main_experiment_trial","2","museum_causal","causal_sequence","chronological","","","","","","",""
"","","","","","html-keyboard-response","42","297021","0.0-42.0","AC8EDEA3615142C3928E4260B003D83E","019d0664-3a25-7980-85a0-92bb3fe3e5d9","019d0640-0a2d-7740-a972-9c73365b2dcb","","null","
                <div class=""stimulus-container"">
                    <img src=""images/causal_sequence/museum_causal/museum_causal_3.png"" class=""exp-image"">
                    <div class=""question-area""></div> 
                </div>","null","","","","","","","","","","","",""
"","","","","","html-button-response","43","297897","0.0-43.0","AC8EDEA3615142C3928E4260B003D83E","019d0664-3a25-7980-85a0-92bb3fe3e5d9","019d0640-0a2d-7740-a972-9c73365b2dcb","","873","
                <div class=""stimulus-container"">
                    <img src=""images/causal_sequence/museum_causal/museum_causal_3.png"" class=""exp-image"">
                    <div class=""question-area"">
                        <p style=""font-size: 20px; font-weight: bold; margin: 0;"">Is there a person in this image?</p>
                    </div>
                </div>","0","main_experiment_trial","3","museum_causal","causal_sequence","chronological","","","","","","",""
"","","","","","html-keyboard-response","44","302905","0.0-44.0","AC8EDEA3615142C3928E4260B003D83E","019d0664-3a25-7980-85a0-92bb3fe3e5d9","019d0640-0a2d-7740-a972-9c73365b2dcb","","null","
                <div class=""stimulus-container"">
                    <img src=""images/causal_sequence/museum_causal/museum_causal_4.png"" class=""exp-image"">
                    <div class=""question-area""></div> 
                </div>","null","","","","","","","","","","","",""
"","","","","","html-button-response","45","304244","0.0-45.0","AC8EDEA3615142C3928E4260B003D83E","019d0664-3a25-7980-85a0-92bb3fe3e5d9","019d0640-0a2d-7740-a972-9c73365b2dcb","","1336","
                <div class=""stimulus-container"">
                    <img src=""images/causal_sequence/museum_causal/museum_causal_4.png"" class=""exp-image"">
                    <div class=""question-area"">
                        <p style=""font-size: 20px; font-weight: bold; margin: 0;"">Is there a person in this image?</p>
                    </div>
                </div>","1","main_experiment_trial","4","museum_causal","causal_sequence","chronological","","","","","","",""
"","","","","","html-keyboard-response","46","309255","0.0-46.0","AC8EDEA3615142C3928E4260B003D83E","019d0664-3a25-7980-85a0-92bb3fe3e5d9","019d0640-0a2d-7740-a972-9c73365b2dcb","","null","
                <div class=""stimulus-container"">
                    <img src=""images/causal_sequence/museum_causal/museum_causal_5.png"" class=""exp-image"">
                    <div class=""question-area""></div> 
                </div>","null","","","","","","","","","","","",""
"","","","","","html-button-response","47","310794","0.0-47.0","AC8EDEA3615142C3928E4260B003D83E","019d0664-3a25-7980-85a0-92bb3fe3e5d9","019d0640-0a2d-7740-a972-9c73365b2dcb","","1537","
                <div class=""stimulus-container"">
                    <img src=""images/causal_sequence/museum_causal/museum_causal_5.png"" class=""exp-image"">
                    <div class=""question-area"">
                        <p style=""font-size: 20px; font-weight: bold; margin: 0;"">Is there a person in this image?</p>
                    </div>
                </div>","0","main_experiment_trial","5","museum_causal","causal_sequence","chronological","","","","","","",""
"","","","","","html-keyboard-response","48","315799","0.0-48.0","AC8EDEA3615142C3928E4260B003D83E","019d0664-3a25-7980-85a0-92bb3fe3e5d9","019d0640-0a2d-7740-a972-9c73365b2dcb","","null","
                <div class=""stimulus-container"">
                    <img src=""images/causal_sequence/museum_causal/museum_causal_6.png"" class=""exp-image"">
                    <div class=""question-area""></div> 
                </div>","null","","","","","","","","","","","",""
"","","","","","html-button-response","49","316966","0.0-49.0","AC8EDEA3615142C3928E4260B003D83E","019d0664-3a25-7980-85a0-92bb3fe3e5d9","019d0640-0a2d-7740-a972-9c73365b2dcb","","1164","
                <div class=""stimulus-container"">
                    <img src=""images/causal_sequence/museum_causal/museum_causal_6.png"" class=""exp-image"">
                    <div class=""question-area"">
                        <p style=""font-size: 20px; font-weight: bold; margin: 0;"">Is there a person in this image?</p>
                    </div>
                </div>","0","main_experiment_trial","6","museum_causal","causal_sequence","chronological","","","","","","",""
"","","","","","html-keyboard-response","50","321982","0.0-50.0","AC8EDEA3615142C3928E4260B003D83E","019d0664-3a25-7980-85a0-92bb3fe3e5d9","019d0640-0a2d-7740-a972-9c73365b2dcb","","null","
                <div class=""stimulus-container"">
                    <img src=""images/causal_sequence/museum_causal/museum_causal_7.png"" class=""exp-image"">
                    <div class=""question-area""></div> 
                </div>","null","","","","","","","","","","","",""
"","","","","","html-button-response","51","323435","0.0-51.0","AC8EDEA3615142C3928E4260B003D83E","019d0664-3a25-7980-85a0-92bb3fe3e5d9","019d0640-0a2d-7740-a972-9c73365b2dcb","","1449","
                <div class=""stimulus-container"">
                    <img src=""images/causal_sequence/museum_causal/museum_causal_7.png"" class=""exp-image"">
                    <div class=""question-area"">
                        <p style=""font-size: 20px; font-weight: bold; margin: 0;"">Is there a person in this image?</p>
                    </div>
                </div>","1","main_experiment_trial","7","museum_causal","causal_sequence","chronological","","","","","","",""
"","","","","","html-keyboard-response","52","328444","0.0-52.0","AC8EDEA3615142C3928E4260B003D83E","019d0664-3a25-7980-85a0-92bb3fe3e5d9","019d0640-0a2d-7740-a972-9c73365b2dcb","","null","
                <div class=""stimulus-container"">
                    <img src=""images/causal_sequence/museum_causal/museum_causal_8.png"" class=""exp-image"">
                    <div class=""question-area""></div> 
                </div>","null","","","","","","","","","","","",""
"","","","","","html-button-response","53","329851","0.0-53.0","AC8EDEA3615142C3928E4260B003D83E","019d0664-3a25-7980-85a0-92bb3fe3e5d9","019d0640-0a2d-7740-a972-9c73365b2dcb","","1405","
                <div class=""stimulus-container"">
                    <img src=""images/causal_sequence/museum_causal/museum_causal_8.png"" class=""exp-image"">
                    <div class=""question-area"">
                        <p style=""font-size: 20px; font-weight: bold; margin: 0;"">Is there a person in this image?</p>
                    </div>
                </div>","0","main_experiment_trial","8","museum_causal","causal_sequence","chronological","","","","","","",""
"","","","","","html-keyboard-response","54","334860","0.0-54.0","AC8EDEA3615142C3928E4260B003D83E","019d0664-3a25-7980-85a0-92bb3fe3e5d9","019d0640-0a2d-7740-a972-9c73365b2dcb","","null","
                <div class=""stimulus-container"">
                    <img src=""images/causal_sequence/museum_causal/museum_causal_9.png"" class=""exp-image"">
                    <div class=""question-area""></div> 
                </div>","null","","","","","","","","","","","",""
"","","","","","html-button-response","55","336131","0.0-55.0","AC8EDEA3615142C3928E4260B003D83E","019d0664-3a25-7980-85a0-92bb3fe3e5d9","019d0640-0a2d-7740-a972-9c73365b2dcb","","1267","
                <div class=""stimulus-container"">
                    <img src=""images/causal_sequence/museum_causal/museum_causal_9.png"" class=""exp-image"">
                    <div class=""question-area"">
                        <p style=""font-size: 20px; font-weight: bold; margin: 0;"">Is there a person in this image?</p>
                    </div>
                </div>","1","main_experiment_trial","9","museum_causal","causal_sequence","chronological","","","","","","",""
"","","","","","html-keyboard-response","56","341136","0.0-56.0","AC8EDEA3615142C3928E4260B003D83E","019d0664-3a25-7980-85a0-92bb3fe3e5d9","019d0640-0a2d-7740-a972-9c73365b2dcb","","null","
                <div class=""stimulus-container"">
                    <img src=""images/causal_sequence/museum_causal/museum_causal_ten.png"" class=""exp-image"">
                    <div class=""question-area""></div> 
                </div>","null","","","","","","","","","","","",""
"","","","","","html-button-response","57","342760","0.0-57.0","AC8EDEA3615142C3928E4260B003D83E","019d0664-3a25-7980-85a0-92bb3fe3e5d9","019d0640-0a2d-7740-a972-9c73365b2dcb","","1621","
                <div class=""stimulus-container"">
                    <img src=""images/causal_sequence/museum_causal/museum_causal_ten.png"" class=""exp-image"">
                    <div class=""question-area"">
                        <p style=""font-size: 20px; font-weight: bold; margin: 0;"">Is there a person in this image?</p>
                    </div>
                </div>","0","main_experiment_trial","ten","museum_causal","causal_sequence","chronological","","","","","","",""
"","","","","","html-keyboard-response","58","347771","0.0-58.0","AC8EDEA3615142C3928E4260B003D83E","019d0664-3a25-7980-85a0-92bb3fe3e5d9","019d0640-0a2d-7740-a972-9c73365b2dcb","","null","<div style=""background-color: white; width: 100vw; height: 100vh;""></div>","null","","","","","","","","","","","",""
"","","","","","html-keyboard-response","59","352782","0.0-59.0","AC8EDEA3615142C3928E4260B003D83E","019d0664-3a25-7980-85a0-92bb3fe3e5d9","019d0640-0a2d-7740-a972-9c73365b2dcb","","null","
                <div class=""stimulus-container"">
                    <img src=""images/semantic_sequence/maintaining_a_car_semantic/maintaining_a_car_semantic_1.png"" class=""exp-image"">
                    <div class=""question-area""></div> 
                </div>","null","","","","","","","","","","","",""
"","","","","","html-button-response","60","353820","0.0-60.0","AC8EDEA3615142C3928E4260B003D83E","019d0664-3a25-7980-85a0-92bb3fe3e5d9","019d0640-0a2d-7740-a972-9c73365b2dcb","","1034","
                <div class=""stimulus-container"">
                    <img src=""images/semantic_sequence/maintaining_a_car_semantic/maintaining_a_car_semantic_1.png"" class=""exp-image"">
                    <div class=""question-area"">
                        <p style=""font-size: 20px; font-weight: bold; margin: 0;"">Is there a person in this image?</p>
                    </div>
                </div>","0","main_experiment_trial","1","maintaining_a_car_semantic","semantic_sequence","chronological","","","","","","",""
"","","","","","html-keyboard-response","61","358849","0.0-61.0","AC8EDEA3615142C3928E4260B003D83E","019d0664-3a25-7980-85a0-92bb3fe3e5d9","019d0640-0a2d-7740-a972-9c73365b2dcb","","null","
                <div class=""stimulus-container"">
                    <img src=""images/semantic_sequence/maintaining_a_car_semantic/maintaining_a_car_semantic_2.png"" class=""exp-image"">
                    <div class=""question-area""></div> 
                </div>","null","","","","","","","","","","","",""
"","","","","","html-button-response","62","359853","0.0-62.0","AC8EDEA3615142C3928E4260B003D83E","019d0664-3a25-7980-85a0-92bb3fe3e5d9","019d0640-0a2d-7740-a972-9c73365b2dcb","","1001","
                <div class=""stimulus-container"">
                    <img src=""images/semantic_sequence/maintaining_a_car_semantic/maintaining_a_car_semantic_2.png"" class=""exp-image"">
                    <div class=""question-area"">
                        <p style=""font-size: 20px; font-weight: bold; margin: 0;"">Is there a person in this image?</p>
                    </div>
                </div>","0","main_experiment_trial","2","maintaining_a_car_semantic","semantic_sequence","chronological","","","","","","",""
"","","","","","html-keyboard-response","63","364858","0.0-63.0","AC8EDEA3615142C3928E4260B003D83E","019d0664-3a25-7980-85a0-92bb3fe3e5d9","019d0640-0a2d-7740-a972-9c73365b2dcb","","null","
                <div class=""stimulus-container"">
                    <img src=""images/semantic_sequence/maintaining_a_car_semantic/maintaining_a_car_semantic_3.png"" class=""exp-image"">
                    <div class=""question-area""></div> 
                </div>","null","","","","","","","","","","","",""
"","","","","","html-button-response","64","365872","0.0-64.0","AC8EDEA3615142C3928E4260B003D83E","019d0664-3a25-7980-85a0-92bb3fe3e5d9","019d0640-0a2d-7740-a972-9c73365b2dcb","","1010","
                <div class=""stimulus-container"">
                    <img src=""images/semantic_sequence/maintaining_a_car_semantic/maintaining_a_car_semantic_3.png"" class=""exp-image"">
                    <div class=""question-area"">
                        <p style=""font-size: 20px; font-weight: bold; margin: 0;"">Is there a person in this image?</p>
                    </div>
                </div>","0","main_experiment_trial","3","maintaining_a_car_semantic","semantic_sequence","chronological","","","","","","",""
"","","","","","html-keyboard-response","65","370876","0.0-65.0","AC8EDEA3615142C3928E4260B003D83E","019d0664-3a25-7980-85a0-92bb3fe3e5d9","019d0640-0a2d-7740-a972-9c73365b2dcb","","null","
                <div class=""stimulus-container"">
                    <img src=""images/semantic_sequence/maintaining_a_car_semantic/maintaining_a_car_semantic_4.png"" class=""exp-image"">
                    <div class=""question-area""></div> 
                </div>","null","","","","","","","","","","","",""
"","","","","","html-button-response","66","372003","0.0-66.0","AC8EDEA3615142C3928E4260B003D83E","019d0664-3a25-7980-85a0-92bb3fe3e5d9","019d0640-0a2d-7740-a972-9c73365b2dcb","","1123","
                <div class=""stimulus-container"">
                    <img src=""images/semantic_sequence/maintaining_a_car_semantic/maintaining_a_car_semantic_4.png"" class=""exp-image"">
                    <div class=""question-area"">
                        <p style=""font-size: 20px; font-weight: bold; margin: 0;"">Is there a person in this image?</p>
                    </div>
                </div>","0","main_experiment_trial","4","maintaining_a_car_semantic","semantic_sequence","chronological","","","","","","",""
"","","","","","html-keyboard-response","67","377020","0.0-67.0","AC8EDEA3615142C3928E4260B003D83E","019d0664-3a25-7980-85a0-92bb3fe3e5d9","019d0640-0a2d-7740-a972-9c73365b2dcb","","null","
                <div class=""stimulus-container"">
                    <img src=""images/semantic_sequence/maintaining_a_car_semantic/maintaining_a_car_semantic_5.png"" class=""exp-image"">
                    <div class=""question-area""></div> 
                </div>","null","","","","","","","","","","","",""
"","","","","","html-button-response","68","377893","0.0-68.0","AC8EDEA3615142C3928E4260B003D83E","019d0664-3a25-7980-85a0-92bb3fe3e5d9","019d0640-0a2d-7740-a972-9c73365b2dcb","","870","
                <div class=""stimulus-container"">
                    <img src=""images/semantic_sequence/maintaining_a_car_semantic/maintaining_a_car_semantic_5.png"" class=""exp-image"">
                    <div class=""question-area"">
                        <p style=""font-size: 20px; font-weight: bold; margin: 0;"">Is there a person in this image?</p>
                    </div>
                </div>","0","main_experiment_trial","5","maintaining_a_car_semantic","semantic_sequence","chronological","","","","","","",""
"","","","","","html-keyboard-response","69","382909","0.0-69.0","AC8EDEA3615142C3928E4260B003D83E","019d0664-3a25-7980-85a0-92bb3fe3e5d9","019d0640-0a2d-7740-a972-9c73365b2dcb","","null","
                <div class=""stimulus-container"">
                    <img src=""images/semantic_sequence/maintaining_a_car_semantic/maintaining_a_car_semantic_6.png"" class=""exp-image"">
                    <div class=""question-area""></div> 
                </div>","null","","","","","","","","","","","",""
"","","","","","html-button-response","70","383891","0.0-70.0","AC8EDEA3615142C3928E4260B003D83E","019d0664-3a25-7980-85a0-92bb3fe3e5d9","019d0640-0a2d-7740-a972-9c73365b2dcb","","978","
                <div class=""stimulus-container"">
                    <img src=""images/semantic_sequence/maintaining_a_car_semantic/maintaining_a_car_semantic_6.png"" class=""exp-image"">
                    <div class=""question-area"">
                        <p style=""font-size: 20px; font-weight: bold; margin: 0;"">Is there a person in this image?</p>
                    </div>
                </div>","0","main_experiment_trial","6","maintaining_a_car_semantic","semantic_sequence","chronological","","","","","","",""
"","","","","","html-keyboard-response","71","388907","0.0-71.0","AC8EDEA3615142C3928E4260B003D83E","019d0664-3a25-7980-85a0-92bb3fe3e5d9","019d0640-0a2d-7740-a972-9c73365b2dcb","","null","
                <div class=""stimulus-container"">
                    <img src=""images/semantic_sequence/maintaining_a_car_semantic/maintaining_a_car_semantic_7.png"" class=""exp-image"">
                    <div class=""question-area""></div> 
                </div>","null","","","","","","","","","","","",""
"","","","","","html-button-response","72","389806","0.0-72.0","AC8EDEA3615142C3928E4260B003D83E","019d0664-3a25-7980-85a0-92bb3fe3e5d9","019d0640-0a2d-7740-a972-9c73365b2dcb","","896","
                <div class=""stimulus-container"">
                    <img src=""images/semantic_sequence/maintaining_a_car_semantic/maintaining_a_car_semantic_7.png"" class=""exp-image"">
                    <div class=""question-area"">
                        <p style=""font-size: 20px; font-weight: bold; margin: 0;"">Is there a person in this image?</p>
                    </div>
                </div>","0","main_experiment_trial","7","maintaining_a_car_semantic","semantic_sequence","chronological","","","","","","",""
"","","","","","html-keyboard-response","73","394812","0.0-73.0","AC8EDEA3615142C3928E4260B003D83E","019d0664-3a25-7980-85a0-92bb3fe3e5d9","019d0640-0a2d-7740-a972-9c73365b2dcb","","null","
                <div class=""stimulus-container"">
                    <img src=""images/semantic_sequence/maintaining_a_car_semantic/maintaining_a_car_semantic_8.png"" class=""exp-image"">
                    <div class=""question-area""></div> 
                </div>","null","","","","","","","","","","","",""
"","","","","","html-button-response","74","395822","0.0-74.0","AC8EDEA3615142C3928E4260B003D83E","019d0664-3a25-7980-85a0-92bb3fe3e5d9","019d0640-0a2d-7740-a972-9c73365b2dcb","","1006","
                <div class=""stimulus-container"">
                    <img src=""images/semantic_sequence/maintaining_a_car_semantic/maintaining_a_car_semantic_8.png"" class=""exp-image"">
                    <div class=""question-area"">
                        <p style=""font-size: 20px; font-weight: bold; margin: 0;"">Is there a person in this image?</p>
                    </div>
                </div>","0","main_experiment_trial","8","maintaining_a_car_semantic","semantic_sequence","chronological","","","","","","",""
"","","","","","html-keyboard-response","75","400831","0.0-75.0","AC8EDEA3615142C3928E4260B003D83E","019d0664-3a25-7980-85a0-92bb3fe3e5d9","019d0640-0a2d-7740-a972-9c73365b2dcb","","null","
                <div class=""stimulus-container"">
                    <img src=""images/semantic_sequence/maintaining_a_car_semantic/maintaining_a_car_semantic_9.png"" class=""exp-image"">
                    <div class=""question-area""></div> 
                </div>","null","","","","","","","","","","","",""
"","","","","","html-button-response","76","401739","0.0-76.0","AC8EDEA3615142C3928E4260B003D83E","019d0664-3a25-7980-85a0-92bb3fe3e5d9","019d0640-0a2d-7740-a972-9c73365b2dcb","","905","
                <div class=""stimulus-container"">
                    <img src=""images/semantic_sequence/maintaining_a_car_semantic/maintaining_a_car_semantic_9.png"" class=""exp-image"">
                    <div class=""question-area"">
                        <p style=""font-size: 20px; font-weight: bold; margin: 0;"">Is there a person in this image?</p>
                    </div>
                </div>","0","main_experiment_trial","9","maintaining_a_car_semantic","semantic_sequence","chronological","","","","","","",""
"","","","","","html-keyboard-response","77","406749","0.0-77.0","AC8EDEA3615142C3928E4260B003D83E","019d0664-3a25-7980-85a0-92bb3fe3e5d9","019d0640-0a2d-7740-a972-9c73365b2dcb","","null","
                <div class=""stimulus-container"">
                    <img src=""images/semantic_sequence/maintaining_a_car_semantic/maintaining_a_car_semantic_ten.png"" class=""exp-image"">
                    <div class=""question-area""></div> 
                </div>","null","","","","","","","","","","","",""
"","","","","","html-button-response","78","407663","0.0-78.0","AC8EDEA3615142C3928E4260B003D83E","019d0664-3a25-7980-85a0-92bb3fe3e5d9","019d0640-0a2d-7740-a972-9c73365b2dcb","","910","
                <div class=""stimulus-container"">
                    <img src=""images/semantic_sequence/maintaining_a_car_semantic/maintaining_a_car_semantic_ten.png"" class=""exp-image"">
                    <div class=""question-area"">
                        <p style=""font-size: 20px; font-weight: bold; margin: 0;"">Is there a person in this image?</p>
                    </div>
                </div>","0","main_experiment_trial","ten","maintaining_a_car_semantic","semantic_sequence","chronological","","","","","","",""
"","","","","","html-keyboard-response","79","412676","0.0-79.0","AC8EDEA3615142C3928E4260B003D83E","019d0664-3a25-7980-85a0-92bb3fe3e5d9","019d0640-0a2d-7740-a972-9c73365b2dcb","","null","<div style=""background-color: white; width: 100vw; height: 100vh;""></div>","null","","","","","","","","","","","",""
"","","","","","html-keyboard-response","80","417687","0.0-80.0","AC8EDEA3615142C3928E4260B003D83E","019d0664-3a25-7980-85a0-92bb3fe3e5d9","019d0640-0a2d-7740-a972-9c73365b2dcb","","null","
                <div class=""stimulus-container"">
                    <img src=""images/causal_sequence/dog_causal/dog_causal_1.png"" class=""exp-image"">
                    <div class=""question-area""></div> 
                </div>","null","","","","","","","","","","","",""
"","","","","","html-button-response","81","418492","0.0-81.0","AC8EDEA3615142C3928E4260B003D83E","019d0664-3a25-7980-85a0-92bb3fe3e5d9","019d0640-0a2d-7740-a972-9c73365b2dcb","","801","
                <div class=""stimulus-container"">
                    <img src=""images/causal_sequence/dog_causal/dog_causal_1.png"" class=""exp-image"">
                    <div class=""question-area"">
                        <p style=""font-size: 20px; font-weight: bold; margin: 0;"">Is there a person in this image?</p>
                    </div>
                </div>","0","main_experiment_trial","1","dog_causal","causal_sequence","chronological","","","","","","",""
"","","","","","html-keyboard-response","82","423502","0.0-82.0","AC8EDEA3615142C3928E4260B003D83E","019d0664-3a25-7980-85a0-92bb3fe3e5d9","019d0640-0a2d-7740-a972-9c73365b2dcb","","null","
                <div class=""stimulus-container"">
                    <img src=""images/causal_sequence/dog_causal/dog_causal_2.png"" class=""exp-image"">
                    <div class=""question-area""></div> 
                </div>","null","","","","","","","","","","","",""
"","","","","","html-button-response","83","424427","0.0-83.0","AC8EDEA3615142C3928E4260B003D83E","019d0664-3a25-7980-85a0-92bb3fe3e5d9","019d0640-0a2d-7740-a972-9c73365b2dcb","","921","
                <div class=""stimulus-container"">
                    <img src=""images/causal_sequence/dog_causal/dog_causal_2.png"" class=""exp-image"">
                    <div class=""question-area"">
                        <p style=""font-size: 20px; font-weight: bold; margin: 0;"">Is there a person in this image?</p>
                    </div>
                </div>","0","main_experiment_trial","2","dog_causal","causal_sequence","chronological","","","","","","",""
"","","","","","html-keyboard-response","84","429445","0.0-84.0","AC8EDEA3615142C3928E4260B003D83E","019d0664-3a25-7980-85a0-92bb3fe3e5d9","019d0640-0a2d-7740-a972-9c73365b2dcb","","null","
                <div class=""stimulus-container"">
                    <img src=""images/causal_sequence/dog_causal/dog_causal_3.png"" class=""exp-image"">
                    <div class=""question-area""></div> 
                </div>","null","","","","","","","","","","","",""
"","","","","","html-button-response","85","430687","0.0-85.0","AC8EDEA3615142C3928E4260B003D83E","019d0664-3a25-7980-85a0-92bb3fe3e5d9","019d0640-0a2d-7740-a972-9c73365b2dcb","","1239","
                <div class=""stimulus-container"">
                    <img src=""images/causal_sequence/dog_causal/dog_causal_3.png"" class=""exp-image"">
                    <div class=""question-area"">
                        <p style=""font-size: 20px; font-weight: bold; margin: 0;"">Is there a person in this image?</p>
                    </div>
                </div>","0","main_experiment_trial","3","dog_causal","causal_sequence","chronological","","","","","","",""
"","","","","","html-keyboard-response","86","435704","0.0-86.0","AC8EDEA3615142C3928E4260B003D83E","019d0664-3a25-7980-85a0-92bb3fe3e5d9","019d0640-0a2d-7740-a972-9c73365b2dcb","","null","
                <div class=""stimulus-container"">
                    <img src=""images/causal_sequence/dog_causal/dog_causal_4.png"" class=""exp-image"">
                    <div class=""question-area""></div> 
                </div>","null","","","","","","","","","","","",""
"","","","","","html-button-response","87","436583","0.0-87.0","AC8EDEA3615142C3928E4260B003D83E","019d0664-3a25-7980-85a0-92bb3fe3e5d9","019d0640-0a2d-7740-a972-9c73365b2dcb","","876","
                <div class=""stimulus-container"">
                    <img src=""images/causal_sequence/dog_causal/dog_causal_4.png"" class=""exp-image"">
                    <div class=""question-area"">
                        <p style=""font-size: 20px; font-weight: bold; margin: 0;"">Is there a person in this image?</p>
                    </div>
                </div>","0","main_experiment_trial","4","dog_causal","causal_sequence","chronological","","","","","","",""
"","","","","","html-keyboard-response","88","441589","0.0-88.0","AC8EDEA3615142C3928E4260B003D83E","019d0664-3a25-7980-85a0-92bb3fe3e5d9","019d0640-0a2d-7740-a972-9c73365b2dcb","","null","
                <div class=""stimulus-container"">
                    <img src=""images/causal_sequence/dog_causal/dog_causal_5.png"" class=""exp-image"">
                    <div class=""question-area""></div> 
                </div>","null","","","","","","","","","","","",""
"","","","","","html-button-response","89","442433","0.0-89.0","AC8EDEA3615142C3928E4260B003D83E","019d0664-3a25-7980-85a0-92bb3fe3e5d9","019d0640-0a2d-7740-a972-9c73365b2dcb","","842","
                <div class=""stimulus-container"">
                    <img src=""images/causal_sequence/dog_causal/dog_causal_5.png"" class=""exp-image"">
                    <div class=""question-area"">
                        <p style=""font-size: 20px; font-weight: bold; margin: 0;"">Is there a person in this image?</p>
                    </div>
                </div>","0","main_experiment_trial","5","dog_causal","causal_sequence","chronological","","","","","","",""
"","","","","","html-keyboard-response","90","447438","0.0-90.0","AC8EDEA3615142C3928E4260B003D83E","019d0664-3a25-7980-85a0-92bb3fe3e5d9","019d0640-0a2d-7740-a972-9c73365b2dcb","","null","
                <div class=""stimulus-container"">
                    <img src=""images/causal_sequence/dog_causal/dog_causal_6.png"" class=""exp-image"">
                    <div class=""question-area""></div> 
                </div>","null","","","","","","","","","","","",""
"","","","","","html-button-response","91","448356","0.0-91.0","AC8EDEA3615142C3928E4260B003D83E","019d0664-3a25-7980-85a0-92bb3fe3e5d9","019d0640-0a2d-7740-a972-9c73365b2dcb","","915","
                <div class=""stimulus-container"">
                    <img src=""images/causal_sequence/dog_causal/dog_causal_6.png"" class=""exp-image"">
                    <div class=""question-area"">
                        <p style=""font-size: 20px; font-weight: bold; margin: 0;"">Is there a person in this image?</p>
                    </div>
                </div>","0","main_experiment_trial","6","dog_causal","causal_sequence","chronological","","","","","","",""
"","","","","","html-keyboard-response","92","453360","0.0-92.0","AC8EDEA3615142C3928E4260B003D83E","019d0664-3a25-7980-85a0-92bb3fe3e5d9","019d0640-0a2d-7740-a972-9c73365b2dcb","","null","
                <div class=""stimulus-container"">
                    <img src=""images/causal_sequence/dog_causal/dog_causal_7.png"" class=""exp-image"">
                    <div class=""question-area""></div> 
                </div>","null","","","","","","","","","","","",""
"","","","","","html-button-response","93","454300","0.0-93.0","AC8EDEA3615142C3928E4260B003D83E","019d0664-3a25-7980-85a0-92bb3fe3e5d9","019d0640-0a2d-7740-a972-9c73365b2dcb","","939","
                <div class=""stimulus-container"">
                    <img src=""images/causal_sequence/dog_causal/dog_causal_7.png"" class=""exp-image"">
                    <div class=""question-area"">
                        <p style=""font-size: 20px; font-weight: bold; margin: 0;"">Is there a person in this image?</p>
                    </div>
                </div>","0","main_experiment_trial","7","dog_causal","causal_sequence","chronological","","","","","","",""
"","","","","","html-keyboard-response","94","459307","0.0-94.0","AC8EDEA3615142C3928E4260B003D83E","019d0664-3a25-7980-85a0-92bb3fe3e5d9","019d0640-0a2d-7740-a972-9c73365b2dcb","","null","
                <div class=""stimulus-container"">
                    <img src=""images/causal_sequence/dog_causal/dog_causal_8.png"" class=""exp-image"">
                    <div class=""question-area""></div> 
                </div>","null","","","","","","","","","","","",""
"","","","","","html-button-response","95","460182","0.0-95.0","AC8EDEA3615142C3928E4260B003D83E","019d0664-3a25-7980-85a0-92bb3fe3e5d9","019d0640-0a2d-7740-a972-9c73365b2dcb","","874","
                <div class=""stimulus-container"">
                    <img src=""images/causal_sequence/dog_causal/dog_causal_8.png"" class=""exp-image"">
                    <div class=""question-area"">
                        <p style=""font-size: 20px; font-weight: bold; margin: 0;"">Is there a person in this image?</p>
                    </div>
                </div>","0","main_experiment_trial","8","dog_causal","causal_sequence","chronological","","","","","","",""
"","","","","","html-keyboard-response","96","465196","0.0-96.0","AC8EDEA3615142C3928E4260B003D83E","019d0664-3a25-7980-85a0-92bb3fe3e5d9","019d0640-0a2d-7740-a972-9c73365b2dcb","","null","
                <div class=""stimulus-container"">
                    <img src=""images/causal_sequence/dog_causal/dog_causal_9.png"" class=""exp-image"">
                    <div class=""question-area""></div> 
                </div>","null","","","","","","","","","","","",""
"","","","","","html-button-response","97","466129","0.0-97.0","AC8EDEA3615142C3928E4260B003D83E","019d0664-3a25-7980-85a0-92bb3fe3e5d9","019d0640-0a2d-7740-a972-9c73365b2dcb","","931","
                <div class=""stimulus-container"">
                    <img src=""images/causal_sequence/dog_causal/dog_causal_9.png"" class=""exp-image"">
                    <div class=""question-area"">
                        <p style=""font-size: 20px; font-weight: bold; margin: 0;"">Is there a person in this image?</p>
                    </div>
                </div>","0","main_experiment_trial","9","dog_causal","causal_sequence","chronological","","","","","","",""
"","","","","","html-keyboard-response","98","471140","0.0-98.0","AC8EDEA3615142C3928E4260B003D83E","019d0664-3a25-7980-85a0-92bb3fe3e5d9","019d0640-0a2d-7740-a972-9c73365b2dcb","","null","
                <div class=""stimulus-container"">
                    <img src=""images/causal_sequence/dog_causal/dog_causal_ten.png"" class=""exp-image"">
                    <div class=""question-area""></div> 
                </div>","null","","","","","","","","","","","",""
"","","","","","html-button-response","99","472004","0.0-99.0","AC8EDEA3615142C3928E4260B003D83E","019d0664-3a25-7980-85a0-92bb3fe3e5d9","019d0640-0a2d-7740-a972-9c73365b2dcb","","860","
                <div class=""stimulus-container"">
                    <img src=""images/causal_sequence/dog_causal/dog_causal_ten.png"" class=""exp-image"">
                    <div class=""question-area"">
                        <p style=""font-size: 20px; font-weight: bold; margin: 0;"">Is there a person in this image?</p>
                    </div>
                </div>","0","main_experiment_trial","ten","dog_causal","causal_sequence","chronological","","","","","","",""
"","","","","","html-keyboard-response","100","477019","0.0-100.0","AC8EDEA3615142C3928E4260B003D83E","019d0664-3a25-7980-85a0-92bb3fe3e5d9","019d0640-0a2d-7740-a972-9c73365b2dcb","","null","<div style=""background-color: white; width: 100vw; height: 100vh;""></div>","null","","","","","","","","","","","",""
"","","","","","html-keyboard-response","101","482025","0.0-101.0","AC8EDEA3615142C3928E4260B003D83E","019d0664-3a25-7980-85a0-92bb3fe3e5d9","019d0640-0a2d-7740-a972-9c73365b2dcb","","null","
                <div class=""stimulus-container"">
                    <img src=""images/schematic_sequence/supermarket_scheme/supermarket_scheme_1.png"" class=""exp-image"">
                    <div class=""question-area""></div> 
                </div>","null","","","","","","","","","","","",""
"","","","","","html-button-response","102","483503","0.0-102.0","AC8EDEA3615142C3928E4260B003D83E","019d0664-3a25-7980-85a0-92bb3fe3e5d9","019d0640-0a2d-7740-a972-9c73365b2dcb","","1475","
                <div class=""stimulus-container"">
                    <img src=""images/schematic_sequence/supermarket_scheme/supermarket_scheme_1.png"" class=""exp-image"">
                    <div class=""question-area"">
                        <p style=""font-size: 20px; font-weight: bold; margin: 0;"">Is there a person in this image?</p>
                    </div>
                </div>","1","main_experiment_trial","1","supermarket_scheme","schematic_sequence","chronological","","","","","","",""
"","","","","","html-keyboard-response","103","488519","0.0-103.0","AC8EDEA3615142C3928E4260B003D83E","019d0664-3a25-7980-85a0-92bb3fe3e5d9","019d0640-0a2d-7740-a972-9c73365b2dcb","","null","
                <div class=""stimulus-container"">
                    <img src=""images/schematic_sequence/supermarket_scheme/supermarket_scheme_2.png"" class=""exp-image"">
                    <div class=""question-area""></div> 
                </div>","null","","","","","","","","","","","",""
"","","","","","html-button-response","104","489576","0.0-104.0","AC8EDEA3615142C3928E4260B003D83E","019d0664-3a25-7980-85a0-92bb3fe3e5d9","019d0640-0a2d-7740-a972-9c73365b2dcb","","1054","
                <div class=""stimulus-container"">
                    <img src=""images/schematic_sequence/supermarket_scheme/supermarket_scheme_2.png"" class=""exp-image"">
                    <div class=""question-area"">
                        <p style=""font-size: 20px; font-weight: bold; margin: 0;"">Is there a person in this image?</p>
                    </div>
                </div>","1","main_experiment_trial","2","supermarket_scheme","schematic_sequence","chronological","","","","","","",""
"","","","","","html-keyboard-response","105","494593","0.0-105.0","AC8EDEA3615142C3928E4260B003D83E","019d0664-3a25-7980-85a0-92bb3fe3e5d9","019d0640-0a2d-7740-a972-9c73365b2dcb","","null","
                <div class=""stimulus-container"">
                    <img src=""images/schematic_sequence/supermarket_scheme/supermarket_scheme_3.png"" class=""exp-image"">
                    <div class=""question-area""></div> 
                </div>","null","","","","","","","","","","","",""
"","","","","","html-button-response","106","495686","0.0-106.0","AC8EDEA3615142C3928E4260B003D83E","019d0664-3a25-7980-85a0-92bb3fe3e5d9","019d0640-0a2d-7740-a972-9c73365b2dcb","","1090","
                <div class=""stimulus-container"">
                    <img src=""images/schematic_sequence/supermarket_scheme/supermarket_scheme_3.png"" class=""exp-image"">
                    <div class=""question-area"">
                        <p style=""font-size: 20px; font-weight: bold; margin: 0;"">Is there a person in this image?</p>
                    </div>
                </div>","1","main_experiment_trial","3","supermarket_scheme","schematic_sequence","chronological","","","","","","",""
"","","","","","html-keyboard-response","107","500691","0.0-107.0","AC8EDEA3615142C3928E4260B003D83E","019d0664-3a25-7980-85a0-92bb3fe3e5d9","019d0640-0a2d-7740-a972-9c73365b2dcb","","null","
                <div class=""stimulus-container"">
                    <img src=""images/schematic_sequence/supermarket_scheme/supermarket_scheme_4.png"" class=""exp-image"">
                    <div class=""question-area""></div> 
                </div>","null","","","","","","","","","","","",""
"","","","","","html-button-response","108","501834","0.0-108.0","AC8EDEA3615142C3928E4260B003D83E","019d0664-3a25-7980-85a0-92bb3fe3e5d9","019d0640-0a2d-7740-a972-9c73365b2dcb","","1142","
                <div class=""stimulus-container"">
                    <img src=""images/schematic_sequence/supermarket_scheme/supermarket_scheme_4.png"" class=""exp-image"">
                    <div class=""question-area"">
                        <p style=""font-size: 20px; font-weight: bold; margin: 0;"">Is there a person in this image?</p>
                    </div>
                </div>","0","main_experiment_trial","4","supermarket_scheme","schematic_sequence","chronological","","","","","","",""
"","","","","","html-keyboard-response","109","506844","0.0-109.0","AC8EDEA3615142C3928E4260B003D83E","019d0664-3a25-7980-85a0-92bb3fe3e5d9","019d0640-0a2d-7740-a972-9c73365b2dcb","","null","
                <div class=""stimulus-container"">
                    <img src=""images/schematic_sequence/supermarket_scheme/supermarket_scheme_5.png"" class=""exp-image"">
                    <div class=""question-area""></div> 
                </div>","null","","","","","","","","","","","",""
"","","","","","html-button-response","110","508189","0.0-110.0","AC8EDEA3615142C3928E4260B003D83E","019d0664-3a25-7980-85a0-92bb3fe3e5d9","019d0640-0a2d-7740-a972-9c73365b2dcb","","1343","
                <div class=""stimulus-container"">
                    <img src=""images/schematic_sequence/supermarket_scheme/supermarket_scheme_5.png"" class=""exp-image"">
                    <div class=""question-area"">
                        <p style=""font-size: 20px; font-weight: bold; margin: 0;"">Is there a person in this image?</p>
                    </div>
                </div>","1","main_experiment_trial","5","supermarket_scheme","schematic_sequence","chronological","","","","","","",""
"","","","","","html-keyboard-response","111","513199","0.0-111.0","AC8EDEA3615142C3928E4260B003D83E","019d0664-3a25-7980-85a0-92bb3fe3e5d9","019d0640-0a2d-7740-a972-9c73365b2dcb","","null","
                <div class=""stimulus-container"">
                    <img src=""images/schematic_sequence/supermarket_scheme/supermarket_scheme_6.png"" class=""exp-image"">
                    <div class=""question-area""></div> 
                </div>","null","","","","","","","","","","","",""
"","","","","","html-button-response","112","514627","0.0-112.0","AC8EDEA3615142C3928E4260B003D83E","019d0664-3a25-7980-85a0-92bb3fe3e5d9","019d0640-0a2d-7740-a972-9c73365b2dcb","","1423","
                <div class=""stimulus-container"">
                    <img src=""images/schematic_sequence/supermarket_scheme/supermarket_scheme_6.png"" class=""exp-image"">
                    <div class=""question-area"">
                        <p style=""font-size: 20px; font-weight: bold; margin: 0;"">Is there a person in this image?</p>
                    </div>
                </div>","0","main_experiment_trial","6","supermarket_scheme","schematic_sequence","chronological","","","","","","",""
"","","","","","html-keyboard-response","113","519636","0.0-113.0","AC8EDEA3615142C3928E4260B003D83E","019d0664-3a25-7980-85a0-92bb3fe3e5d9","019d0640-0a2d-7740-a972-9c73365b2dcb","","null","
                <div class=""stimulus-container"">
                    <img src=""images/schematic_sequence/supermarket_scheme/supermarket_scheme_7.png"" class=""exp-image"">
                    <div class=""question-area""></div> 
                </div>","null","","","","","","","","","","","",""
"","","","","","html-button-response","114","521013","0.0-114.0","AC8EDEA3615142C3928E4260B003D83E","019d0664-3a25-7980-85a0-92bb3fe3e5d9","019d0640-0a2d-7740-a972-9c73365b2dcb","","1374","
                <div class=""stimulus-container"">
                    <img src=""images/schematic_sequence/supermarket_scheme/supermarket_scheme_7.png"" class=""exp-image"">
                    <div class=""question-area"">
                        <p style=""font-size: 20px; font-weight: bold; margin: 0;"">Is there a person in this image?</p>
                    </div>
                </div>","0","main_experiment_trial","7","supermarket_scheme","schematic_sequence","chronological","","","","","","",""
"","","","","","html-keyboard-response","115","526026","0.0-115.0","AC8EDEA3615142C3928E4260B003D83E","019d0664-3a25-7980-85a0-92bb3fe3e5d9","019d0640-0a2d-7740-a972-9c73365b2dcb","","null","
                <div class=""stimulus-container"">
                    <img src=""images/schematic_sequence/supermarket_scheme/supermarket_scheme_8.png"" class=""exp-image"">
                    <div class=""question-area""></div> 
                </div>","null","","","","","","","","","","","",""
"","","","","","html-button-response","116","526986","0.0-116.0","AC8EDEA3615142C3928E4260B003D83E","019d0664-3a25-7980-85a0-92bb3fe3e5d9","019d0640-0a2d-7740-a972-9c73365b2dcb","","957","
                <div class=""stimulus-container"">
                    <img src=""images/schematic_sequence/supermarket_scheme/supermarket_scheme_8.png"" class=""exp-image"">
                    <div class=""question-area"">
                        <p style=""font-size: 20px; font-weight: bold; margin: 0;"">Is there a person in this image?</p>
                    </div>
                </div>","0","main_experiment_trial","8","supermarket_scheme","schematic_sequence","chronological","","","","","","",""
"","","","","","html-keyboard-response","117","531993","0.0-117.0","AC8EDEA3615142C3928E4260B003D83E","019d0664-3a25-7980-85a0-92bb3fe3e5d9","019d0640-0a2d-7740-a972-9c73365b2dcb","","null","
                <div class=""stimulus-container"">
                    <img src=""images/schematic_sequence/supermarket_scheme/supermarket_scheme_9.png"" class=""exp-image"">
                    <div class=""question-area""></div> 
                </div>","null","","","","","","","","","","","",""
"","","","","","html-button-response","118","532863","0.0-118.0","AC8EDEA3615142C3928E4260B003D83E","019d0664-3a25-7980-85a0-92bb3fe3e5d9","019d0640-0a2d-7740-a972-9c73365b2dcb","","867","
                <div class=""stimulus-container"">
                    <img src=""images/schematic_sequence/supermarket_scheme/supermarket_scheme_9.png"" class=""exp-image"">
                    <div class=""question-area"">
                        <p style=""font-size: 20px; font-weight: bold; margin: 0;"">Is there a person in this image?</p>
                    </div>
                </div>","0","main_experiment_trial","9","supermarket_scheme","schematic_sequence","chronological","","","","","","",""
"","","","","","html-keyboard-response","119","537885","0.0-119.0","AC8EDEA3615142C3928E4260B003D83E","019d0664-3a25-7980-85a0-92bb3fe3e5d9","019d0640-0a2d-7740-a972-9c73365b2dcb","","null","
                <div class=""stimulus-container"">
                    <img src=""images/schematic_sequence/supermarket_scheme/supermarket_scheme_ten.png"" class=""exp-image"">
                    <div class=""question-area""></div> 
                </div>","null","","","","","","","","","","","",""
"","","","","","html-button-response","120","539196","0.0-120.0","AC8EDEA3615142C3928E4260B003D83E","019d0664-3a25-7980-85a0-92bb3fe3e5d9","019d0640-0a2d-7740-a972-9c73365b2dcb","","1307","
                <div class=""stimulus-container"">
                    <img src=""images/schematic_sequence/supermarket_scheme/supermarket_scheme_ten.png"" class=""exp-image"">
                    <div class=""question-area"">
                        <p style=""font-size: 20px; font-weight: bold; margin: 0;"">Is there a person in this image?</p>
                    </div>
                </div>","1","main_experiment_trial","ten","supermarket_scheme","schematic_sequence","chronological","","","","","","",""
"","","","","","html-keyboard-response","121","544202","0.0-121.0","AC8EDEA3615142C3928E4260B003D83E","019d0664-3a25-7980-85a0-92bb3fe3e5d9","019d0640-0a2d-7740-a972-9c73365b2dcb","","null","<div style=""background-color: white; width: 100vw; height: 100vh;""></div>","null","","","","","","","","","","","",""
"","","","","","html-keyboard-response","122","549205","0.0-122.0","AC8EDEA3615142C3928E4260B003D83E","019d0664-3a25-7980-85a0-92bb3fe3e5d9","019d0640-0a2d-7740-a972-9c73365b2dcb","","null","
                <div class=""stimulus-container"">
                    <img src=""images/schematic_sequence/flight_scheme/flight_scheme_1.png"" class=""exp-image"">
                    <div class=""question-area""></div> 
                </div>","null","","","","","","","","","","","",""
"","","","","","html-button-response","123","550600","0.0-123.0","AC8EDEA3615142C3928E4260B003D83E","019d0664-3a25-7980-85a0-92bb3fe3e5d9","019d0640-0a2d-7740-a972-9c73365b2dcb","","1391","
                <div class=""stimulus-container"">
                    <img src=""images/schematic_sequence/flight_scheme/flight_scheme_1.png"" class=""exp-image"">
                    <div class=""question-area"">
                        <p style=""font-size: 20px; font-weight: bold; margin: 0;"">Is there a person in this image?</p>
                    </div>
                </div>","0","main_experiment_trial","1","flight_scheme","schematic_sequence","chronological","","","","","","",""
"","","","","","html-keyboard-response","124","555604","0.0-124.0","AC8EDEA3615142C3928E4260B003D83E","019d0664-3a25-7980-85a0-92bb3fe3e5d9","019d0640-0a2d-7740-a972-9c73365b2dcb","","null","
                <div class=""stimulus-container"">
                    <img src=""images/schematic_sequence/flight_scheme/flight_scheme_2.png"" class=""exp-image"">
                    <div class=""question-area""></div> 
                </div>","null","","","","","","","","","","","",""
"","","","","","html-button-response","125","556937","0.0-125.0","AC8EDEA3615142C3928E4260B003D83E","019d0664-3a25-7980-85a0-92bb3fe3e5d9","019d0640-0a2d-7740-a972-9c73365b2dcb","","1330","
                <div class=""stimulus-container"">
                    <img src=""images/schematic_sequence/flight_scheme/flight_scheme_2.png"" class=""exp-image"">
                    <div class=""question-area"">
                        <p style=""font-size: 20px; font-weight: bold; margin: 0;"">Is there a person in this image?</p>
                    </div>
                </div>","1","main_experiment_trial","2","flight_scheme","schematic_sequence","chronological","","","","","","",""
"","","","","","html-keyboard-response","126","561948","0.0-126.0","AC8EDEA3615142C3928E4260B003D83E","019d0664-3a25-7980-85a0-92bb3fe3e5d9","019d0640-0a2d-7740-a972-9c73365b2dcb","","null","
                <div class=""stimulus-container"">
                    <img src=""images/schematic_sequence/flight_scheme/flight_scheme_3.png"" class=""exp-image"">
                    <div class=""question-area""></div> 
                </div>","null","","","","","","","","","","","",""
"","","","","","html-button-response","127","563592","0.0-127.0","AC8EDEA3615142C3928E4260B003D83E","019d0664-3a25-7980-85a0-92bb3fe3e5d9","019d0640-0a2d-7740-a972-9c73365b2dcb","","1641","
                <div class=""stimulus-container"">
                    <img src=""images/schematic_sequence/flight_scheme/flight_scheme_3.png"" class=""exp-image"">
                    <div class=""question-area"">
                        <p style=""font-size: 20px; font-weight: bold; margin: 0;"">Is there a person in this image?</p>
                    </div>
                </div>","0","main_experiment_trial","3","flight_scheme","schematic_sequence","chronological","","","","","","",""
"","","","","","html-keyboard-response","128","568612","0.0-128.0","AC8EDEA3615142C3928E4260B003D83E","019d0664-3a25-7980-85a0-92bb3fe3e5d9","019d0640-0a2d-7740-a972-9c73365b2dcb","","null","
                <div class=""stimulus-container"">
                    <img src=""images/schematic_sequence/flight_scheme/flight_scheme_4.png"" class=""exp-image"">
                    <div class=""question-area""></div> 
                </div>","null","","","","","","","","","","","",""
"","","","","","html-button-response","129","569998","0.0-129.0","AC8EDEA3615142C3928E4260B003D83E","019d0664-3a25-7980-85a0-92bb3fe3e5d9","019d0640-0a2d-7740-a972-9c73365b2dcb","","1383","
                <div class=""stimulus-container"">
                    <img src=""images/schematic_sequence/flight_scheme/flight_scheme_4.png"" class=""exp-image"">
                    <div class=""question-area"">
                        <p style=""font-size: 20px; font-weight: bold; margin: 0;"">Is there a person in this image?</p>
                    </div>
                </div>","0","main_experiment_trial","4","flight_scheme","schematic_sequence","chronological","","","","","","",""
"","","","","","html-keyboard-response","130","575003","0.0-130.0","AC8EDEA3615142C3928E4260B003D83E","019d0664-3a25-7980-85a0-92bb3fe3e5d9","019d0640-0a2d-7740-a972-9c73365b2dcb","","null","
                <div class=""stimulus-container"">
                    <img src=""images/schematic_sequence/flight_scheme/flight_scheme_5.png"" class=""exp-image"">
                    <div class=""question-area""></div> 
                </div>","null","","","","","","","","","","","",""
"","","","","","html-button-response","131","575799","0.0-131.0","AC8EDEA3615142C3928E4260B003D83E","019d0664-3a25-7980-85a0-92bb3fe3e5d9","019d0640-0a2d-7740-a972-9c73365b2dcb","","792","
                <div class=""stimulus-container"">
                    <img src=""images/schematic_sequence/flight_scheme/flight_scheme_5.png"" class=""exp-image"">
                    <div class=""question-area"">
                        <p style=""font-size: 20px; font-weight: bold; margin: 0;"">Is there a person in this image?</p>
                    </div>
                </div>","0","main_experiment_trial","5","flight_scheme","schematic_sequence","chronological","","","","","","",""
"","","","","","html-keyboard-response","132","580812","0.0-132.0","AC8EDEA3615142C3928E4260B003D83E","019d0664-3a25-7980-85a0-92bb3fe3e5d9","019d0640-0a2d-7740-a972-9c73365b2dcb","","null","
                <div class=""stimulus-container"">
                    <img src=""images/schematic_sequence/flight_scheme/flight_scheme_6.png"" class=""exp-image"">
                    <div class=""question-area""></div> 
                </div>","null","","","","","","","","","","","",""
"","","","","","html-button-response","133","582299","0.0-133.0","AC8EDEA3615142C3928E4260B003D83E","019d0664-3a25-7980-85a0-92bb3fe3e5d9","019d0640-0a2d-7740-a972-9c73365b2dcb","","1483","
                <div class=""stimulus-container"">
                    <img src=""images/schematic_sequence/flight_scheme/flight_scheme_6.png"" class=""exp-image"">
                    <div class=""question-area"">
                        <p style=""font-size: 20px; font-weight: bold; margin: 0;"">Is there a person in this image?</p>
                    </div>
                </div>","1","main_experiment_trial","6","flight_scheme","schematic_sequence","chronological","","","","","","",""
"","","","","","html-keyboard-response","134","587309","0.0-134.0","AC8EDEA3615142C3928E4260B003D83E","019d0664-3a25-7980-85a0-92bb3fe3e5d9","019d0640-0a2d-7740-a972-9c73365b2dcb","","null","
                <div class=""stimulus-container"">
                    <img src=""images/schematic_sequence/flight_scheme/flight_scheme_7.png"" class=""exp-image"">
                    <div class=""question-area""></div> 
                </div>","null","","","","","","","","","","","",""
"","","","","","html-button-response","135","588704","0.0-135.0","AC8EDEA3615142C3928E4260B003D83E","019d0664-3a25-7980-85a0-92bb3fe3e5d9","019d0640-0a2d-7740-a972-9c73365b2dcb","","1392","
                <div class=""stimulus-container"">
                    <img src=""images/schematic_sequence/flight_scheme/flight_scheme_7.png"" class=""exp-image"">
                    <div class=""question-area"">
                        <p style=""font-size: 20px; font-weight: bold; margin: 0;"">Is there a person in this image?</p>
                    </div>
                </div>","0","main_experiment_trial","7","flight_scheme","schematic_sequence","chronological","","","","","","",""
"","","","","","html-keyboard-response","136","593716","0.0-136.0","AC8EDEA3615142C3928E4260B003D83E","019d0664-3a25-7980-85a0-92bb3fe3e5d9","019d0640-0a2d-7740-a972-9c73365b2dcb","","null","
                <div class=""stimulus-container"">
                    <img src=""images/schematic_sequence/flight_scheme/flight_scheme_8.png"" class=""exp-image"">
                    <div class=""question-area""></div> 
                </div>","null","","","","","","","","","","","",""
"","","","","","html-button-response","137","595104","0.0-137.0","AC8EDEA3615142C3928E4260B003D83E","019d0664-3a25-7980-85a0-92bb3fe3e5d9","019d0640-0a2d-7740-a972-9c73365b2dcb","","1384","
                <div class=""stimulus-container"">
                    <img src=""images/schematic_sequence/flight_scheme/flight_scheme_8.png"" class=""exp-image"">
                    <div class=""question-area"">
                        <p style=""font-size: 20px; font-weight: bold; margin: 0;"">Is there a person in this image?</p>
                    </div>
                </div>","1","main_experiment_trial","8","flight_scheme","schematic_sequence","chronological","","","","","","",""
"","","","","","html-keyboard-response","138","600112","0.0-138.0","AC8EDEA3615142C3928E4260B003D83E","019d0664-3a25-7980-85a0-92bb3fe3e5d9","019d0640-0a2d-7740-a972-9c73365b2dcb","","null","
                <div class=""stimulus-container"">
                    <img src=""images/schematic_sequence/flight_scheme/flight_scheme_9.png"" class=""exp-image"">
                    <div class=""question-area""></div> 
                </div>","null","","","","","","","","","","","",""
"","","","","","html-button-response","139","601603","0.0-139.0","AC8EDEA3615142C3928E4260B003D83E","019d0664-3a25-7980-85a0-92bb3fe3e5d9","019d0640-0a2d-7740-a972-9c73365b2dcb","","1489","
                <div class=""stimulus-container"">
                    <img src=""images/schematic_sequence/flight_scheme/flight_scheme_9.png"" class=""exp-image"">
                    <div class=""question-area"">
                        <p style=""font-size: 20px; font-weight: bold; margin: 0;"">Is there a person in this image?</p>
                    </div>
                </div>","0","main_experiment_trial","9","flight_scheme","schematic_sequence","chronological","","","","","","",""
"","","","","","html-keyboard-response","140","606621","0.0-140.0","AC8EDEA3615142C3928E4260B003D83E","019d0664-3a25-7980-85a0-92bb3fe3e5d9","019d0640-0a2d-7740-a972-9c73365b2dcb","","null","
                <div class=""stimulus-container"">
                    <img src=""images/schematic_sequence/flight_scheme/flight_scheme_ten.png"" class=""exp-image"">
                    <div class=""question-area""></div> 
                </div>","null","","","","","","","","","","","",""
"","","","","","html-button-response","141","607584","0.0-141.0","AC8EDEA3615142C3928E4260B003D83E","019d0664-3a25-7980-85a0-92bb3fe3e5d9","019d0640-0a2d-7740-a972-9c73365b2dcb","","959","
                <div class=""stimulus-container"">
                    <img src=""images/schematic_sequence/flight_scheme/flight_scheme_ten.png"" class=""exp-image"">
                    <div class=""question-area"">
                        <p style=""font-size: 20px; font-weight: bold; margin: 0;"">Is there a person in this image?</p>
                    </div>
                </div>","0","main_experiment_trial","ten","flight_scheme","schematic_sequence","chronological","","","","","","",""
"","","","","","html-keyboard-response","142","612602","0.0-142.0","AC8EDEA3615142C3928E4260B003D83E","019d0664-3a25-7980-85a0-92bb3fe3e5d9","019d0640-0a2d-7740-a972-9c73365b2dcb","","null","<div style=""background-color: white; width: 100vw; height: 100vh;""></div>","null","","","","","","","","","","","",""
"","","","","","html-keyboard-response","143","617610","0.0-143.0","AC8EDEA3615142C3928E4260B003D83E","019d0664-3a25-7980-85a0-92bb3fe3e5d9","019d0640-0a2d-7740-a972-9c73365b2dcb","","null","
                <div class=""stimulus-container"">
                    <img src=""images/schematic_sequence/interview_scheme/interview_scheme_1.png"" class=""exp-image"">
                    <div class=""question-area""></div> 
                </div>","null","","","","","","","","","","","",""
"","","","","","html-button-response","144","619068","0.0-144.0","AC8EDEA3615142C3928E4260B003D83E","019d0664-3a25-7980-85a0-92bb3fe3e5d9","019d0640-0a2d-7740-a972-9c73365b2dcb","","1454","
                <div class=""stimulus-container"">
                    <img src=""images/schematic_sequence/interview_scheme/interview_scheme_1.png"" class=""exp-image"">
                    <div class=""question-area"">
                        <p style=""font-size: 20px; font-weight: bold; margin: 0;"">Is there a person in this image?</p>
                    </div>
                </div>","1","main_experiment_trial","1","interview_scheme","schematic_sequence","chronological","","","","","","",""
"","","","","","html-keyboard-response","145","624076","0.0-145.0","AC8EDEA3615142C3928E4260B003D83E","019d0664-3a25-7980-85a0-92bb3fe3e5d9","019d0640-0a2d-7740-a972-9c73365b2dcb","","null","
                <div class=""stimulus-container"">
                    <img src=""images/schematic_sequence/interview_scheme/interview_scheme_2.png"" class=""exp-image"">
                    <div class=""question-area""></div> 
                </div>","null","","","","","","","","","","","",""
"","","","","","html-button-response","146","625648","0.0-146.0","AC8EDEA3615142C3928E4260B003D83E","019d0664-3a25-7980-85a0-92bb3fe3e5d9","019d0640-0a2d-7740-a972-9c73365b2dcb","","1568","
                <div class=""stimulus-container"">
                    <img src=""images/schematic_sequence/interview_scheme/interview_scheme_2.png"" class=""exp-image"">
                    <div class=""question-area"">
                        <p style=""font-size: 20px; font-weight: bold; margin: 0;"">Is there a person in this image?</p>
                    </div>
                </div>","0","main_experiment_trial","2","interview_scheme","schematic_sequence","chronological","","","","","","",""
"","","","","","html-keyboard-response","147","630677","0.0-147.0","AC8EDEA3615142C3928E4260B003D83E","019d0664-3a25-7980-85a0-92bb3fe3e5d9","019d0640-0a2d-7740-a972-9c73365b2dcb","","null","
                <div class=""stimulus-container"">
                    <img src=""images/schematic_sequence/interview_scheme/interview_scheme_3.png"" class=""exp-image"">
                    <div class=""question-area""></div> 
                </div>","null","","","","","","","","","","","",""
"","","","","","html-button-response","148","632089","0.0-148.0","AC8EDEA3615142C3928E4260B003D83E","019d0664-3a25-7980-85a0-92bb3fe3e5d9","019d0640-0a2d-7740-a972-9c73365b2dcb","","1409","
                <div class=""stimulus-container"">
                    <img src=""images/schematic_sequence/interview_scheme/interview_scheme_3.png"" class=""exp-image"">
                    <div class=""question-area"">
                        <p style=""font-size: 20px; font-weight: bold; margin: 0;"">Is there a person in this image?</p>
                    </div>
                </div>","1","main_experiment_trial","3","interview_scheme","schematic_sequence","chronological","","","","","","",""
"","","","","","html-keyboard-response","149","637106","0.0-149.0","AC8EDEA3615142C3928E4260B003D83E","019d0664-3a25-7980-85a0-92bb3fe3e5d9","019d0640-0a2d-7740-a972-9c73365b2dcb","","null","
                <div class=""stimulus-container"">
                    <img src=""images/schematic_sequence/interview_scheme/interview_scheme_4.png"" class=""exp-image"">
                    <div class=""question-area""></div> 
                </div>","null","","","","","","","","","","","",""
"","","","","","html-button-response","150","638267","0.0-150.0","AC8EDEA3615142C3928E4260B003D83E","019d0664-3a25-7980-85a0-92bb3fe3e5d9","019d0640-0a2d-7740-a972-9c73365b2dcb","","1158","
                <div class=""stimulus-container"">
                    <img src=""images/schematic_sequence/interview_scheme/interview_scheme_4.png"" class=""exp-image"">
                    <div class=""question-area"">
                        <p style=""font-size: 20px; font-weight: bold; margin: 0;"">Is there a person in this image?</p>
                    </div>
                </div>","1","main_experiment_trial","4","interview_scheme","schematic_sequence","chronological","","","","","","",""
"","","","","","html-keyboard-response","151","643275","0.0-151.0","AC8EDEA3615142C3928E4260B003D83E","019d0664-3a25-7980-85a0-92bb3fe3e5d9","019d0640-0a2d-7740-a972-9c73365b2dcb","","null","
                <div class=""stimulus-container"">
                    <img src=""images/schematic_sequence/interview_scheme/interview_scheme_5.png"" class=""exp-image"">
                    <div class=""question-area""></div> 
                </div>","null","","","","","","","","","","","",""
"","","","","","html-button-response","152","644080","0.0-152.0","AC8EDEA3615142C3928E4260B003D83E","019d0664-3a25-7980-85a0-92bb3fe3e5d9","019d0640-0a2d-7740-a972-9c73365b2dcb","","801","
                <div class=""stimulus-container"">
                    <img src=""images/schematic_sequence/interview_scheme/interview_scheme_5.png"" class=""exp-image"">
                    <div class=""question-area"">
                        <p style=""font-size: 20px; font-weight: bold; margin: 0;"">Is there a person in this image?</p>
                    </div>
                </div>","0","main_experiment_trial","5","interview_scheme","schematic_sequence","chronological","","","","","","",""
"","","","","","html-keyboard-response","153","649088","0.0-153.0","AC8EDEA3615142C3928E4260B003D83E","019d0664-3a25-7980-85a0-92bb3fe3e5d9","019d0640-0a2d-7740-a972-9c73365b2dcb","","null","
                <div class=""stimulus-container"">
                    <img src=""images/schematic_sequence/interview_scheme/interview_scheme_6.png"" class=""exp-image"">
                    <div class=""question-area""></div> 
                </div>","null","","","","","","","","","","","",""
"","","","","","html-button-response","154","650086","0.0-154.0","AC8EDEA3615142C3928E4260B003D83E","019d0664-3a25-7980-85a0-92bb3fe3e5d9","019d0640-0a2d-7740-a972-9c73365b2dcb","","995","
                <div class=""stimulus-container"">
                    <img src=""images/schematic_sequence/interview_scheme/interview_scheme_6.png"" class=""exp-image"">
                    <div class=""question-area"">
                        <p style=""font-size: 20px; font-weight: bold; margin: 0;"">Is there a person in this image?</p>
                    </div>
                </div>","0","main_experiment_trial","6","interview_scheme","schematic_sequence","chronological","","","","","","",""
"","","","","","html-keyboard-response","155","655092","0.0-155.0","AC8EDEA3615142C3928E4260B003D83E","019d0664-3a25-7980-85a0-92bb3fe3e5d9","019d0640-0a2d-7740-a972-9c73365b2dcb","","null","
                <div class=""stimulus-container"">
                    <img src=""images/schematic_sequence/interview_scheme/interview_scheme_7.png"" class=""exp-image"">
                    <div class=""question-area""></div> 
                </div>","null","","","","","","","","","","","",""
"","","","","","html-button-response","156","656064","0.0-156.0","AC8EDEA3615142C3928E4260B003D83E","019d0664-3a25-7980-85a0-92bb3fe3e5d9","019d0640-0a2d-7740-a972-9c73365b2dcb","","968","
                <div class=""stimulus-container"">
                    <img src=""images/schematic_sequence/interview_scheme/interview_scheme_7.png"" class=""exp-image"">
                    <div class=""question-area"">
                        <p style=""font-size: 20px; font-weight: bold; margin: 0;"">Is there a person in this image?</p>
                    </div>
                </div>","0","main_experiment_trial","7","interview_scheme","schematic_sequence","chronological","","","","","","",""
"","","","","","html-keyboard-response","157","661073","0.0-157.0","AC8EDEA3615142C3928E4260B003D83E","019d0664-3a25-7980-85a0-92bb3fe3e5d9","019d0640-0a2d-7740-a972-9c73365b2dcb","","null","
                <div class=""stimulus-container"">
                    <img src=""images/schematic_sequence/interview_scheme/interview_scheme_8.png"" class=""exp-image"">
                    <div class=""question-area""></div> 
                </div>","null","","","","","","","","","","","",""
"","","","","","html-button-response","158","661908","0.0-158.0","AC8EDEA3615142C3928E4260B003D83E","019d0664-3a25-7980-85a0-92bb3fe3e5d9","019d0640-0a2d-7740-a972-9c73365b2dcb","","833","
                <div class=""stimulus-container"">
                    <img src=""images/schematic_sequence/interview_scheme/interview_scheme_8.png"" class=""exp-image"">
                    <div class=""question-area"">
                        <p style=""font-size: 20px; font-weight: bold; margin: 0;"">Is there a person in this image?</p>
                    </div>
                </div>","0","main_experiment_trial","8","interview_scheme","schematic_sequence","chronological","","","","","","",""
"","","","","","html-keyboard-response","159","666924","0.0-159.0","AC8EDEA3615142C3928E4260B003D83E","019d0664-3a25-7980-85a0-92bb3fe3e5d9","019d0640-0a2d-7740-a972-9c73365b2dcb","","null","
                <div class=""stimulus-container"">
                    <img src=""images/schematic_sequence/interview_scheme/interview_scheme_9.png"" class=""exp-image"">
                    <div class=""question-area""></div> 
                </div>","null","","","","","","","","","","","",""
"","","","","","html-button-response","160","667808","0.0-160.0","AC8EDEA3615142C3928E4260B003D83E","019d0664-3a25-7980-85a0-92bb3fe3e5d9","019d0640-0a2d-7740-a972-9c73365b2dcb","","880","
                <div class=""stimulus-container"">
                    <img src=""images/schematic_sequence/interview_scheme/interview_scheme_9.png"" class=""exp-image"">
                    <div class=""question-area"">
                        <p style=""font-size: 20px; font-weight: bold; margin: 0;"">Is there a person in this image?</p>
                    </div>
                </div>","0","main_experiment_trial","9","interview_scheme","schematic_sequence","chronological","","","","","","",""
"","","","","","html-keyboard-response","161","672811","0.0-161.0","AC8EDEA3615142C3928E4260B003D83E","019d0664-3a25-7980-85a0-92bb3fe3e5d9","019d0640-0a2d-7740-a972-9c73365b2dcb","","null","
                <div class=""stimulus-container"">
                    <img src=""images/schematic_sequence/interview_scheme/interview_scheme_ten.png"" class=""exp-image"">
                    <div class=""question-area""></div> 
                </div>","null","","","","","","","","","","","",""
"","","","","","html-button-response","162","673705","0.0-162.0","AC8EDEA3615142C3928E4260B003D83E","019d0664-3a25-7980-85a0-92bb3fe3e5d9","019d0640-0a2d-7740-a972-9c73365b2dcb","","890","
                <div class=""stimulus-container"">
                    <img src=""images/schematic_sequence/interview_scheme/interview_scheme_ten.png"" class=""exp-image"">
                    <div class=""question-area"">
                        <p style=""font-size: 20px; font-weight: bold; margin: 0;"">Is there a person in this image?</p>
                    </div>
                </div>","0","main_experiment_trial","ten","interview_scheme","schematic_sequence","chronological","","","","","","",""
"","","","","","html-keyboard-response","163","678710","0.0-163.0","AC8EDEA3615142C3928E4260B003D83E","019d0664-3a25-7980-85a0-92bb3fe3e5d9","019d0640-0a2d-7740-a972-9c73365b2dcb","","null","<div style=""background-color: white; width: 100vw; height: 100vh;""></div>","null","","","","","","","","","","","",""
"","","","","","html-keyboard-response","164","683713","0.0-164.0","AC8EDEA3615142C3928E4260B003D83E","019d0664-3a25-7980-85a0-92bb3fe3e5d9","019d0640-0a2d-7740-a972-9c73365b2dcb","","null","
                <div class=""stimulus-container"">
                    <img src=""images/semantic_sequence/visiting_cities_semantic/visiting_cities_semantic_1.png"" class=""exp-image"">
                    <div class=""question-area""></div> 
                </div>","null","","","","","","","","","","","",""
"","","","","","html-button-response","165","684773","0.0-165.0","AC8EDEA3615142C3928E4260B003D83E","019d0664-3a25-7980-85a0-92bb3fe3e5d9","019d0640-0a2d-7740-a972-9c73365b2dcb","","1056","
                <div class=""stimulus-container"">
                    <img src=""images/semantic_sequence/visiting_cities_semantic/visiting_cities_semantic_1.png"" class=""exp-image"">
                    <div class=""question-area"">
                        <p style=""font-size: 20px; font-weight: bold; margin: 0;"">Is there a person in this image?</p>
                    </div>
                </div>","0","main_experiment_trial","1","visiting_cities_semantic","semantic_sequence","chronological","","","","","","",""
"","","","","","html-keyboard-response","166","689782","0.0-166.0","AC8EDEA3615142C3928E4260B003D83E","019d0664-3a25-7980-85a0-92bb3fe3e5d9","019d0640-0a2d-7740-a972-9c73365b2dcb","","null","
                <div class=""stimulus-container"">
                    <img src=""images/semantic_sequence/visiting_cities_semantic/visiting_cities_semantic_2.png"" class=""exp-image"">
                    <div class=""question-area""></div> 
                </div>","null","","","","","","","","","","","",""
"","","","","","html-button-response","167","691239","0.0-167.0","AC8EDEA3615142C3928E4260B003D83E","019d0664-3a25-7980-85a0-92bb3fe3e5d9","019d0640-0a2d-7740-a972-9c73365b2dcb","","1455","
                <div class=""stimulus-container"">
                    <img src=""images/semantic_sequence/visiting_cities_semantic/visiting_cities_semantic_2.png"" class=""exp-image"">
                    <div class=""question-area"">
                        <p style=""font-size: 20px; font-weight: bold; margin: 0;"">Is there a person in this image?</p>
                    </div>
                </div>","1","main_experiment_trial","2","visiting_cities_semantic","semantic_sequence","chronological","","","","","","",""
"","","","","","html-keyboard-response","168","696245","0.0-168.0","AC8EDEA3615142C3928E4260B003D83E","019d0664-3a25-7980-85a0-92bb3fe3e5d9","019d0640-0a2d-7740-a972-9c73365b2dcb","","null","
                <div class=""stimulus-container"">
                    <img src=""images/semantic_sequence/visiting_cities_semantic/visiting_cities_semantic_3.png"" class=""exp-image"">
                    <div class=""question-area""></div> 
                </div>","null","","","","","","","","","","","",""
"","","","","","html-button-response","169","697071","0.0-169.0","AC8EDEA3615142C3928E4260B003D83E","019d0664-3a25-7980-85a0-92bb3fe3e5d9","019d0640-0a2d-7740-a972-9c73365b2dcb","","823","
                <div class=""stimulus-container"">
                    <img src=""images/semantic_sequence/visiting_cities_semantic/visiting_cities_semantic_3.png"" class=""exp-image"">
                    <div class=""question-area"">
                        <p style=""font-size: 20px; font-weight: bold; margin: 0;"">Is there a person in this image?</p>
                    </div>
                </div>","1","main_experiment_trial","3","visiting_cities_semantic","semantic_sequence","chronological","","","","","","",""
"","","","","","html-keyboard-response","170","702078","0.0-170.0","AC8EDEA3615142C3928E4260B003D83E","019d0664-3a25-7980-85a0-92bb3fe3e5d9","019d0640-0a2d-7740-a972-9c73365b2dcb","","null","
                <div class=""stimulus-container"">
                    <img src=""images/semantic_sequence/visiting_cities_semantic/visiting_cities_semantic_4.png"" class=""exp-image"">
                    <div class=""question-area""></div> 
                </div>","null","","","","","","","","","","","",""
"","","","","","html-button-response","171","702888","0.0-171.0","AC8EDEA3615142C3928E4260B003D83E","019d0664-3a25-7980-85a0-92bb3fe3e5d9","019d0640-0a2d-7740-a972-9c73365b2dcb","","807","
                <div class=""stimulus-container"">
                    <img src=""images/semantic_sequence/visiting_cities_semantic/visiting_cities_semantic_4.png"" class=""exp-image"">
                    <div class=""question-area"">
                        <p style=""font-size: 20px; font-weight: bold; margin: 0;"">Is there a person in this image?</p>
                    </div>
                </div>","1","main_experiment_trial","4","visiting_cities_semantic","semantic_sequence","chronological","","","","","","",""
"","","","","","html-keyboard-response","172","707903","0.0-172.0","AC8EDEA3615142C3928E4260B003D83E","019d0664-3a25-7980-85a0-92bb3fe3e5d9","019d0640-0a2d-7740-a972-9c73365b2dcb","","null","
                <div class=""stimulus-container"">
                    <img src=""images/semantic_sequence/visiting_cities_semantic/visiting_cities_semantic_5.png"" class=""exp-image"">
                    <div class=""question-area""></div> 
                </div>","null","","","","","","","","","","","",""
"","","","","","html-button-response","173","708853","0.0-173.0","AC8EDEA3615142C3928E4260B003D83E","019d0664-3a25-7980-85a0-92bb3fe3e5d9","019d0640-0a2d-7740-a972-9c73365b2dcb","","947","
                <div class=""stimulus-container"">
                    <img src=""images/semantic_sequence/visiting_cities_semantic/visiting_cities_semantic_5.png"" class=""exp-image"">
                    <div class=""question-area"">
                        <p style=""font-size: 20px; font-weight: bold; margin: 0;"">Is there a person in this image?</p>
                    </div>
                </div>","1","main_experiment_trial","5","visiting_cities_semantic","semantic_sequence","chronological","","","","","","",""
"","","","","","html-keyboard-response","174","713871","0.0-174.0","AC8EDEA3615142C3928E4260B003D83E","019d0664-3a25-7980-85a0-92bb3fe3e5d9","019d0640-0a2d-7740-a972-9c73365b2dcb","","null","
                <div class=""stimulus-container"">
                    <img src=""images/semantic_sequence/visiting_cities_semantic/visiting_cities_semantic_6.png"" class=""exp-image"">
                    <div class=""question-area""></div> 
                </div>","null","","","","","","","","","","","",""
"","","","","","html-button-response","175","714807","0.0-175.0","AC8EDEA3615142C3928E4260B003D83E","019d0664-3a25-7980-85a0-92bb3fe3e5d9","019d0640-0a2d-7740-a972-9c73365b2dcb","","933","
                <div class=""stimulus-container"">
                    <img src=""images/semantic_sequence/visiting_cities_semantic/visiting_cities_semantic_6.png"" class=""exp-image"">
                    <div class=""question-area"">
                        <p style=""font-size: 20px; font-weight: bold; margin: 0;"">Is there a person in this image?</p>
                    </div>
                </div>","1","main_experiment_trial","6","visiting_cities_semantic","semantic_sequence","chronological","","","","","","",""
"","","","","","html-keyboard-response","176","719826","0.0-176.0","AC8EDEA3615142C3928E4260B003D83E","019d0664-3a25-7980-85a0-92bb3fe3e5d9","019d0640-0a2d-7740-a972-9c73365b2dcb","","null","
                <div class=""stimulus-container"">
                    <img src=""images/semantic_sequence/visiting_cities_semantic/visiting_cities_semantic_7.png"" class=""exp-image"">
                    <div class=""question-area""></div> 
                </div>","null","","","","","","","","","","","",""
"","","","","","html-button-response","177","721134","0.0-177.0","AC8EDEA3615142C3928E4260B003D83E","019d0664-3a25-7980-85a0-92bb3fe3e5d9","019d0640-0a2d-7740-a972-9c73365b2dcb","","1304","
                <div class=""stimulus-container"">
                    <img src=""images/semantic_sequence/visiting_cities_semantic/visiting_cities_semantic_7.png"" class=""exp-image"">
                    <div class=""question-area"">
                        <p style=""font-size: 20px; font-weight: bold; margin: 0;"">Is there a person in this image?</p>
                    </div>
                </div>","0","main_experiment_trial","7","visiting_cities_semantic","semantic_sequence","chronological","","","","","","",""
"","","","","","html-keyboard-response","178","726145","0.0-178.0","AC8EDEA3615142C3928E4260B003D83E","019d0664-3a25-7980-85a0-92bb3fe3e5d9","019d0640-0a2d-7740-a972-9c73365b2dcb","","null","
                <div class=""stimulus-container"">
