"success","timeout","failed_images","failed_audio","failed_video","trial_type","trial_index","time_elapsed","internal_node_id","subject_id","study_id","session_id","view_history","rt","stimulus","response","task","image_index","folder","sequence_type","presentation_order","valuable_image_index","reward_type","distance_from_x","target_X","chosen_image_index","is_x_plus_dist","correct_choice"
"true","false","[]","[]","[]","preload","0","9025","0.0-0.0","A42E8021F24E4274850A97DA2AB7C107","019dac65-65ec-72b5-b305-321cce97ac5a","019dac5b-243f-7307-af64-a10f53f1ef70","","","","","","","","","","","","","","","",""
"","","","","","instructions","1","18519","0.0-1.0","A42E8021F24E4274850A97DA2AB7C107","019dac65-65ec-72b5-b305-321cce97ac5a","019dac5b-243f-7307-af64-a10f53f1ef70","[{""page_index"":0,""viewing_time"":9492}]","9493","","","","","","","","","","","","","",""
"","","","","","instructions","2","74701","0.0-2.0","A42E8021F24E4274850A97DA2AB7C107","019dac65-65ec-72b5-b305-321cce97ac5a","019dac5b-243f-7307-af64-a10f53f1ef70","[{""page_index"":0,""viewing_time"":56180}]","56181","","","","","","","","","","","","","",""
"true","","","","","fullscreen","3","80840","0.0-3.0","A42E8021F24E4274850A97DA2AB7C107","019dac65-65ec-72b5-b305-321cce97ac5a","019dac5b-243f-7307-af64-a10f53f1ef70","","5122","","","","","","","","","","","","","",""
"","","","","","instructions","4","97547","0.0-4.0","A42E8021F24E4274850A97DA2AB7C107","019dac65-65ec-72b5-b305-321cce97ac5a","019dac5b-243f-7307-af64-a10f53f1ef70","[{""page_index"":0,""viewing_time"":16706}]","16706","","","","","","","","","","","","","",""
"","","","","","instructions","5","123185","0.0-5.0","A42E8021F24E4274850A97DA2AB7C107","019dac65-65ec-72b5-b305-321cce97ac5a","019dac5b-243f-7307-af64-a10f53f1ef70","[{""page_index"":0,""viewing_time"":25638}]","25638","","","","","","","","","","","","","",""
"","","","","","html-keyboard-response","6","127201","0.0-6.0","A42E8021F24E4274850A97DA2AB7C107","019dac65-65ec-72b5-b305-321cce97ac5a","019dac5b-243f-7307-af64-a10f53f1ef70","","null","
                <div class=""stimulus-container"">
                    <img src=""images/instructions/movie_1.png"" class=""exp-image"">
                    <div class=""question-area""></div> 
                </div>","null","","","","","","","","","","","",""
"","","","","","html-button-response","7","130203","0.0-7.0","A42E8021F24E4274850A97DA2AB7C107","019dac65-65ec-72b5-b305-321cce97ac5a","019dac5b-243f-7307-af64-a10f53f1ef70","","null","
                <div class=""stimulus-container"">
                    <img src=""images/instructions/movie_1.png"" class=""exp-image"">
                    <div class=""question-area"">
                        <p style=""font-size: 20px; font-weight: bold; margin: 0;"">Was there a person in this image?</p>
                    </div>
                </div>","null","example_question","1","","","","","","","","","",""
"","","","","","html-keyboard-response","8","134214","0.0-8.0","A42E8021F24E4274850A97DA2AB7C107","019dac65-65ec-72b5-b305-321cce97ac5a","019dac5b-243f-7307-af64-a10f53f1ef70","","null","
                <div class=""stimulus-container"">
                    <img src=""images/instructions/movie_2.png"" class=""exp-image"">
                    <div class=""question-area""></div> 
                </div>","null","","","","","","","","","","","",""
"","","","","","html-button-response","9","136153","0.0-9.0","A42E8021F24E4274850A97DA2AB7C107","019dac65-65ec-72b5-b305-321cce97ac5a","019dac5b-243f-7307-af64-a10f53f1ef70","","1935","
                <div class=""stimulus-container"">
                    <img src=""images/instructions/movie_2.png"" class=""exp-image"">
                    <div class=""question-area"">
                        <p style=""font-size: 20px; font-weight: bold; margin: 0;"">Was there a person in this image?</p>
                    </div>
                </div>","1","example_question","2","","","","","","","","","",""
"","","","","","html-keyboard-response","10","140158","0.0-10.0","A42E8021F24E4274850A97DA2AB7C107","019dac65-65ec-72b5-b305-321cce97ac5a","019dac5b-243f-7307-af64-a10f53f1ef70","","null","
                <div class=""stimulus-container"">
                    <img src=""images/instructions/movie_3.png"" class=""exp-image"">
                    <div class=""question-area""></div> 
                </div>","null","","","","","","","","","","","",""
"","","","","","html-button-response","11","141075","0.0-11.0","A42E8021F24E4274850A97DA2AB7C107","019dac65-65ec-72b5-b305-321cce97ac5a","019dac5b-243f-7307-af64-a10f53f1ef70","","915","
                <div class=""stimulus-container"">
                    <img src=""images/instructions/movie_3.png"" class=""exp-image"">
                    <div class=""question-area"">
                        <p style=""font-size: 20px; font-weight: bold; margin: 0;"">Was there a person in this image?</p>
                    </div>
                </div>","0","example_question","3","","","","","","","","","",""
"","","","","","html-keyboard-response","12","145084","0.0-12.0","A42E8021F24E4274850A97DA2AB7C107","019dac65-65ec-72b5-b305-321cce97ac5a","019dac5b-243f-7307-af64-a10f53f1ef70","","null","
                <div class=""stimulus-container"">
                    <img src=""images/instructions/movie_4.png"" class=""exp-image"">
                    <div class=""question-area""></div> 
                </div>","null","","","","","","","","","","","",""
"","","","","","html-button-response","13","146300","0.0-13.0","A42E8021F24E4274850A97DA2AB7C107","019dac65-65ec-72b5-b305-321cce97ac5a","019dac5b-243f-7307-af64-a10f53f1ef70","","1214","
                <div class=""stimulus-container"">
                    <img src=""images/instructions/movie_4.png"" class=""exp-image"">
                    <div class=""question-area"">
                        <p style=""font-size: 20px; font-weight: bold; margin: 0;"">Was there a person in this image?</p>
                    </div>
                </div>","0","example_question","4","","","","","","","","","",""
"","","","","","instructions","14","150466","0.0-14.0","A42E8021F24E4274850A97DA2AB7C107","019dac65-65ec-72b5-b305-321cce97ac5a","019dac5b-243f-7307-af64-a10f53f1ef70","[{""page_index"":0,""viewing_time"":4164}]","4164","","","","","","","","","","","","","",""
"","","","","","instructions","15","160901","0.0-15.0","A42E8021F24E4274850A97DA2AB7C107","019dac65-65ec-72b5-b305-321cce97ac5a","019dac5b-243f-7307-af64-a10f53f1ef70","[{""page_index"":0,""viewing_time"":10434}]","10435","","","","","","","","","","","","","",""
"","","","","","html-keyboard-response","16","165913","0.0-16.0","A42E8021F24E4274850A97DA2AB7C107","019dac65-65ec-72b5-b305-321cce97ac5a","019dac5b-243f-7307-af64-a10f53f1ef70","","null","<div style=""background-color: white; width: 100vw; height: 100vh;""></div>","null","","","","","","","","","","","",""
"","","","","","html-keyboard-response","17","170917","0.0-17.0","A42E8021F24E4274850A97DA2AB7C107","019dac65-65ec-72b5-b305-321cce97ac5a","019dac5b-243f-7307-af64-a10f53f1ef70","","null","
                <div class=""stimulus-container"">
                    <img src=""images/semantic_sequence/visiting_cities_semantic/visiting_cities_semantic_1.png"" class=""exp-image"">
                    <div class=""question-area""></div> 
                </div>","null","","","","","","","","","","","",""
"","","","","","html-button-response","18","172660","0.0-18.0","A42E8021F24E4274850A97DA2AB7C107","019dac65-65ec-72b5-b305-321cce97ac5a","019dac5b-243f-7307-af64-a10f53f1ef70","","1742","
                <div class=""stimulus-container"">
                    <img src=""images/semantic_sequence/visiting_cities_semantic/visiting_cities_semantic_1.png"" class=""exp-image"">
                    <div class=""question-area"">
                        <p style=""font-size: 20px; font-weight: bold; margin: 0;"">Is there a person in this image?</p>
                    </div>
                </div>","0","main_experiment_trial","1","visiting_cities_semantic","semantic_sequence","chronological","","","","","","",""
"","","","","","html-keyboard-response","19","177674","0.0-19.0","A42E8021F24E4274850A97DA2AB7C107","019dac65-65ec-72b5-b305-321cce97ac5a","019dac5b-243f-7307-af64-a10f53f1ef70","","null","
                <div class=""stimulus-container"">
                    <img src=""images/semantic_sequence/visiting_cities_semantic/visiting_cities_semantic_2.png"" class=""exp-image"">
                    <div class=""question-area""></div> 
                </div>","null","","","","","","","","","","","",""
"","","","","","html-button-response","20","178897","0.0-20.0","A42E8021F24E4274850A97DA2AB7C107","019dac65-65ec-72b5-b305-321cce97ac5a","019dac5b-243f-7307-af64-a10f53f1ef70","","1222","
                <div class=""stimulus-container"">
                    <img src=""images/semantic_sequence/visiting_cities_semantic/visiting_cities_semantic_2.png"" class=""exp-image"">
                    <div class=""question-area"">
                        <p style=""font-size: 20px; font-weight: bold; margin: 0;"">Is there a person in this image?</p>
                    </div>
                </div>","1","main_experiment_trial","2","visiting_cities_semantic","semantic_sequence","chronological","","","","","","",""
"","","","","","html-keyboard-response","21","183904","0.0-21.0","A42E8021F24E4274850A97DA2AB7C107","019dac65-65ec-72b5-b305-321cce97ac5a","019dac5b-243f-7307-af64-a10f53f1ef70","","null","
                <div class=""stimulus-container"">
                    <img src=""images/semantic_sequence/visiting_cities_semantic/visiting_cities_semantic_3.png"" class=""exp-image"">
                    <div class=""question-area""></div> 
                </div>","null","","","","","","","","","","","",""
"","","","","","html-button-response","22","184997","0.0-22.0","A42E8021F24E4274850A97DA2AB7C107","019dac65-65ec-72b5-b305-321cce97ac5a","019dac5b-243f-7307-af64-a10f53f1ef70","","1090","
                <div class=""stimulus-container"">
                    <img src=""images/semantic_sequence/visiting_cities_semantic/visiting_cities_semantic_3.png"" class=""exp-image"">
                    <div class=""question-area"">
                        <p style=""font-size: 20px; font-weight: bold; margin: 0;"">Is there a person in this image?</p>
                    </div>
                </div>","1","main_experiment_trial","3","visiting_cities_semantic","semantic_sequence","chronological","","","","","","",""
"","","","","","html-keyboard-response","23","190014","0.0-23.0","A42E8021F24E4274850A97DA2AB7C107","019dac65-65ec-72b5-b305-321cce97ac5a","019dac5b-243f-7307-af64-a10f53f1ef70","","null","
                <div class=""stimulus-container"">
                    <img src=""images/semantic_sequence/visiting_cities_semantic/visiting_cities_semantic_4.png"" class=""exp-image"">
                    <div class=""question-area""></div> 
                </div>","null","","","","","","","","","","","",""
"","","","","","html-button-response","24","190720","0.0-24.0","A42E8021F24E4274850A97DA2AB7C107","019dac65-65ec-72b5-b305-321cce97ac5a","019dac5b-243f-7307-af64-a10f53f1ef70","","704","
                <div class=""stimulus-container"">
                    <img src=""images/semantic_sequence/visiting_cities_semantic/visiting_cities_semantic_4.png"" class=""exp-image"">
                    <div class=""question-area"">
                        <p style=""font-size: 20px; font-weight: bold; margin: 0;"">Is there a person in this image?</p>
                    </div>
                </div>","1","main_experiment_trial","4","visiting_cities_semantic","semantic_sequence","chronological","","","","","","",""
"","","","","","html-keyboard-response","25","195722","0.0-25.0","A42E8021F24E4274850A97DA2AB7C107","019dac65-65ec-72b5-b305-321cce97ac5a","019dac5b-243f-7307-af64-a10f53f1ef70","","null","
                <div class=""stimulus-container"">
                    <img src=""images/semantic_sequence/visiting_cities_semantic/visiting_cities_semantic_5.png"" class=""exp-image"">
                    <div class=""question-area""></div> 
                </div>","null","","","","","","","","","","","",""
"","","","","","html-button-response","26","197070","0.0-26.0","A42E8021F24E4274850A97DA2AB7C107","019dac65-65ec-72b5-b305-321cce97ac5a","019dac5b-243f-7307-af64-a10f53f1ef70","","1346","
                <div class=""stimulus-container"">
                    <img src=""images/semantic_sequence/visiting_cities_semantic/visiting_cities_semantic_5.png"" class=""exp-image"">
                    <div class=""question-area"">
                        <p style=""font-size: 20px; font-weight: bold; margin: 0;"">Is there a person in this image?</p>
                    </div>
                </div>","1","main_experiment_trial","5","visiting_cities_semantic","semantic_sequence","chronological","","","","","","",""
"","","","","","html-keyboard-response","27","202083","0.0-27.0","A42E8021F24E4274850A97DA2AB7C107","019dac65-65ec-72b5-b305-321cce97ac5a","019dac5b-243f-7307-af64-a10f53f1ef70","","null","
                <div class=""stimulus-container"">
                    <img src=""images/semantic_sequence/visiting_cities_semantic/visiting_cities_semantic_6.png"" class=""exp-image"">
                    <div class=""question-area""></div> 
                </div>","null","","","","","","","","","","","",""
"","","","","","html-button-response","28","203463","0.0-28.0","A42E8021F24E4274850A97DA2AB7C107","019dac65-65ec-72b5-b305-321cce97ac5a","019dac5b-243f-7307-af64-a10f53f1ef70","","1378","
                <div class=""stimulus-container"">
                    <img src=""images/semantic_sequence/visiting_cities_semantic/visiting_cities_semantic_6.png"" class=""exp-image"">
                    <div class=""question-area"">
                        <p style=""font-size: 20px; font-weight: bold; margin: 0;"">Is there a person in this image?</p>
                    </div>
                </div>","1","main_experiment_trial","6","visiting_cities_semantic","semantic_sequence","chronological","","","","","","",""
"","","","","","html-keyboard-response","29","208465","0.0-29.0","A42E8021F24E4274850A97DA2AB7C107","019dac65-65ec-72b5-b305-321cce97ac5a","019dac5b-243f-7307-af64-a10f53f1ef70","","null","
                <div class=""stimulus-container"">
                    <img src=""images/semantic_sequence/visiting_cities_semantic/visiting_cities_semantic_7.png"" class=""exp-image"">
                    <div class=""question-area""></div> 
                </div>","null","","","","","","","","","","","",""
"","","","","","html-button-response","30","211477","0.0-30.0","A42E8021F24E4274850A97DA2AB7C107","019dac65-65ec-72b5-b305-321cce97ac5a","019dac5b-243f-7307-af64-a10f53f1ef70","","null","
                <div class=""stimulus-container"">
                    <img src=""images/semantic_sequence/visiting_cities_semantic/visiting_cities_semantic_7.png"" class=""exp-image"">
                    <div class=""question-area"">
                        <p style=""font-size: 20px; font-weight: bold; margin: 0;"">Is there a person in this image?</p>
                    </div>
                </div>","null","main_experiment_trial","7","visiting_cities_semantic","semantic_sequence","chronological","","","","","","",""
"","","","","","html-keyboard-response","31","216487","0.0-31.0","A42E8021F24E4274850A97DA2AB7C107","019dac65-65ec-72b5-b305-321cce97ac5a","019dac5b-243f-7307-af64-a10f53f1ef70","","null","
                <div class=""stimulus-container"">
                    <img src=""images/semantic_sequence/visiting_cities_semantic/visiting_cities_semantic_8.png"" class=""exp-image"">
                    <div class=""question-area""></div> 
                </div>","null","","","","","","","","","","","",""
"","","","","","html-button-response","32","218375","0.0-32.0","A42E8021F24E4274850A97DA2AB7C107","019dac65-65ec-72b5-b305-321cce97ac5a","019dac5b-243f-7307-af64-a10f53f1ef70","","1886","
                <div class=""stimulus-container"">
                    <img src=""images/semantic_sequence/visiting_cities_semantic/visiting_cities_semantic_8.png"" class=""exp-image"">
                    <div class=""question-area"">
                        <p style=""font-size: 20px; font-weight: bold; margin: 0;"">Is there a person in this image?</p>
                    </div>
                </div>","0","main_experiment_trial","8","visiting_cities_semantic","semantic_sequence","chronological","","","","","","",""
"","","","","","html-keyboard-response","33","223378","0.0-33.0","A42E8021F24E4274850A97DA2AB7C107","019dac65-65ec-72b5-b305-321cce97ac5a","019dac5b-243f-7307-af64-a10f53f1ef70","","null","
                <div class=""stimulus-container"">
                    <img src=""images/semantic_sequence/visiting_cities_semantic/visiting_cities_semantic_9.png"" class=""exp-image"">
                    <div class=""question-area""></div> 
                </div>","null","","","","","","","","","","","",""
"","","","","","html-button-response","34","226388","0.0-34.0","A42E8021F24E4274850A97DA2AB7C107","019dac65-65ec-72b5-b305-321cce97ac5a","019dac5b-243f-7307-af64-a10f53f1ef70","","null","
                <div class=""stimulus-container"">
                    <img src=""images/semantic_sequence/visiting_cities_semantic/visiting_cities_semantic_9.png"" class=""exp-image"">
                    <div class=""question-area"">
                        <p style=""font-size: 20px; font-weight: bold; margin: 0;"">Is there a person in this image?</p>
                    </div>
                </div>","null","main_experiment_trial","9","visiting_cities_semantic","semantic_sequence","chronological","","","","","","",""
"","","","","","html-keyboard-response","35","231390","0.0-35.0","A42E8021F24E4274850A97DA2AB7C107","019dac65-65ec-72b5-b305-321cce97ac5a","019dac5b-243f-7307-af64-a10f53f1ef70","","null","
                <div class=""stimulus-container"">
                    <img src=""images/semantic_sequence/visiting_cities_semantic/visiting_cities_semantic_ten.png"" class=""exp-image"">
                    <div class=""question-area""></div> 
                </div>","null","","","","","","","","","","","",""
"","","","","","html-button-response","36","234391","0.0-36.0","A42E8021F24E4274850A97DA2AB7C107","019dac65-65ec-72b5-b305-321cce97ac5a","019dac5b-243f-7307-af64-a10f53f1ef70","","null","
                <div class=""stimulus-container"">
                    <img src=""images/semantic_sequence/visiting_cities_semantic/visiting_cities_semantic_ten.png"" class=""exp-image"">
                    <div class=""question-area"">
                        <p style=""font-size: 20px; font-weight: bold; margin: 0;"">Is there a person in this image?</p>
                    </div>
                </div>","null","main_experiment_trial","ten","visiting_cities_semantic","semantic_sequence","chronological","","","","","","",""
"","","","","","html-keyboard-response","37","239394","0.0-37.0","A42E8021F24E4274850A97DA2AB7C107","019dac65-65ec-72b5-b305-321cce97ac5a","019dac5b-243f-7307-af64-a10f53f1ef70","","null","<div style=""background-color: white; width: 100vw; height: 100vh;""></div>","null","","","","","","","","","","","",""
"","","","","","html-keyboard-response","38","244410","0.0-38.0","A42E8021F24E4274850A97DA2AB7C107","019dac65-65ec-72b5-b305-321cce97ac5a","019dac5b-243f-7307-af64-a10f53f1ef70","","null","
                <div class=""stimulus-container"">
                    <img src=""images/causal_sequence/the_performance_causal/the_performance_causal_1.png"" class=""exp-image"">
                    <div class=""question-area""></div> 
                </div>","null","","","","","","","","","","","",""
"","","","","","html-button-response","39","245891","0.0-39.0","A42E8021F24E4274850A97DA2AB7C107","019dac65-65ec-72b5-b305-321cce97ac5a","019dac5b-243f-7307-af64-a10f53f1ef70","","1478","
                <div class=""stimulus-container"">
                    <img src=""images/causal_sequence/the_performance_causal/the_performance_causal_1.png"" class=""exp-image"">
                    <div class=""question-area"">
                        <p style=""font-size: 20px; font-weight: bold; margin: 0;"">Is there a person in this image?</p>
                    </div>
                </div>","0","main_experiment_trial","1","the_performance_causal","causal_sequence","chronological","","","","","","",""
"","","","","","html-keyboard-response","40","250903","0.0-40.0","A42E8021F24E4274850A97DA2AB7C107","019dac65-65ec-72b5-b305-321cce97ac5a","019dac5b-243f-7307-af64-a10f53f1ef70","","null","
                <div class=""stimulus-container"">
                    <img src=""images/causal_sequence/the_performance_causal/the_performance_causal_2.png"" class=""exp-image"">
                    <div class=""question-area""></div> 
                </div>","null","","","","","","","","","","","",""
"","","","","","html-button-response","41","251769","0.0-41.0","A42E8021F24E4274850A97DA2AB7C107","019dac65-65ec-72b5-b305-321cce97ac5a","019dac5b-243f-7307-af64-a10f53f1ef70","","865","
                <div class=""stimulus-container"">
                    <img src=""images/causal_sequence/the_performance_causal/the_performance_causal_2.png"" class=""exp-image"">
                    <div class=""question-area"">
                        <p style=""font-size: 20px; font-weight: bold; margin: 0;"">Is there a person in this image?</p>
                    </div>
                </div>","0","main_experiment_trial","2","the_performance_causal","causal_sequence","chronological","","","","","","",""
"","","","","","html-keyboard-response","42","256781","0.0-42.0","A42E8021F24E4274850A97DA2AB7C107","019dac65-65ec-72b5-b305-321cce97ac5a","019dac5b-243f-7307-af64-a10f53f1ef70","","null","
                <div class=""stimulus-container"">
                    <img src=""images/causal_sequence/the_performance_causal/the_performance_causal_3.png"" class=""exp-image"">
                    <div class=""question-area""></div> 
                </div>","null","","","","","","","","","","","",""
"","","","","","html-button-response","43","257547","0.0-43.0","A42E8021F24E4274850A97DA2AB7C107","019dac65-65ec-72b5-b305-321cce97ac5a","019dac5b-243f-7307-af64-a10f53f1ef70","","764","
                <div class=""stimulus-container"">
                    <img src=""images/causal_sequence/the_performance_causal/the_performance_causal_3.png"" class=""exp-image"">
                    <div class=""question-area"">
                        <p style=""font-size: 20px; font-weight: bold; margin: 0;"">Is there a person in this image?</p>
                    </div>
                </div>","0","main_experiment_trial","3","the_performance_causal","causal_sequence","chronological","","","","","","",""
"","","","","","html-keyboard-response","44","262559","0.0-44.0","A42E8021F24E4274850A97DA2AB7C107","019dac65-65ec-72b5-b305-321cce97ac5a","019dac5b-243f-7307-af64-a10f53f1ef70","","null","
                <div class=""stimulus-container"">
                    <img src=""images/causal_sequence/the_performance_causal/the_performance_causal_4.png"" class=""exp-image"">
                    <div class=""question-area""></div> 
                </div>","null","","","","","","","","","","","",""
"","","","","","html-button-response","45","263403","0.0-45.0","A42E8021F24E4274850A97DA2AB7C107","019dac65-65ec-72b5-b305-321cce97ac5a","019dac5b-243f-7307-af64-a10f53f1ef70","","843","
                <div class=""stimulus-container"">
                    <img src=""images/causal_sequence/the_performance_causal/the_performance_causal_4.png"" class=""exp-image"">
                    <div class=""question-area"">
                        <p style=""font-size: 20px; font-weight: bold; margin: 0;"">Is there a person in this image?</p>
                    </div>
                </div>","0","main_experiment_trial","4","the_performance_causal","causal_sequence","chronological","","","","","","",""
"","","","","","html-keyboard-response","46","268412","0.0-46.0","A42E8021F24E4274850A97DA2AB7C107","019dac65-65ec-72b5-b305-321cce97ac5a","019dac5b-243f-7307-af64-a10f53f1ef70","","null","
                <div class=""stimulus-container"">
                    <img src=""images/causal_sequence/the_performance_causal/the_performance_causal_5.png"" class=""exp-image"">
                    <div class=""question-area""></div> 
                </div>","null","","","","","","","","","","","",""
"","","","","","html-button-response","47","269179","0.0-47.0","A42E8021F24E4274850A97DA2AB7C107","019dac65-65ec-72b5-b305-321cce97ac5a","019dac5b-243f-7307-af64-a10f53f1ef70","","765","
                <div class=""stimulus-container"">
                    <img src=""images/causal_sequence/the_performance_causal/the_performance_causal_5.png"" class=""exp-image"">
                    <div class=""question-area"">
                        <p style=""font-size: 20px; font-weight: bold; margin: 0;"">Is there a person in this image?</p>
                    </div>
                </div>","0","main_experiment_trial","5","the_performance_causal","causal_sequence","chronological","","","","","","",""
"","","","","","html-keyboard-response","48","274189","0.0-48.0","A42E8021F24E4274850A97DA2AB7C107","019dac65-65ec-72b5-b305-321cce97ac5a","019dac5b-243f-7307-af64-a10f53f1ef70","","null","
                <div class=""stimulus-container"">
                    <img src=""images/causal_sequence/the_performance_causal/the_performance_causal_6.png"" class=""exp-image"">
                    <div class=""question-area""></div> 
                </div>","null","","","","","","","","","","","",""
"","","","","","html-button-response","49","274818","0.0-49.0","A42E8021F24E4274850A97DA2AB7C107","019dac65-65ec-72b5-b305-321cce97ac5a","019dac5b-243f-7307-af64-a10f53f1ef70","","627","
                <div class=""stimulus-container"">
                    <img src=""images/causal_sequence/the_performance_causal/the_performance_causal_6.png"" class=""exp-image"">
                    <div class=""question-area"">
                        <p style=""font-size: 20px; font-weight: bold; margin: 0;"">Is there a person in this image?</p>
                    </div>
                </div>","0","main_experiment_trial","6","the_performance_causal","causal_sequence","chronological","","","","","","",""
"","","","","","html-keyboard-response","50","279833","0.0-50.0","A42E8021F24E4274850A97DA2AB7C107","019dac65-65ec-72b5-b305-321cce97ac5a","019dac5b-243f-7307-af64-a10f53f1ef70","","null","
                <div class=""stimulus-container"">
                    <img src=""images/causal_sequence/the_performance_causal/the_performance_causal_7.png"" class=""exp-image"">
                    <div class=""question-area""></div> 
                </div>","null","","","","","","","","","","","",""
"","","","","","html-button-response","51","280532","0.0-51.0","A42E8021F24E4274850A97DA2AB7C107","019dac65-65ec-72b5-b305-321cce97ac5a","019dac5b-243f-7307-af64-a10f53f1ef70","","698","
                <div class=""stimulus-container"">
                    <img src=""images/causal_sequence/the_performance_causal/the_performance_causal_7.png"" class=""exp-image"">
                    <div class=""question-area"">
                        <p style=""font-size: 20px; font-weight: bold; margin: 0;"">Is there a person in this image?</p>
                    </div>
                </div>","0","main_experiment_trial","7","the_performance_causal","causal_sequence","chronological","","","","","","",""
"","","","","","html-keyboard-response","52","285543","0.0-52.0","A42E8021F24E4274850A97DA2AB7C107","019dac65-65ec-72b5-b305-321cce97ac5a","019dac5b-243f-7307-af64-a10f53f1ef70","","null","
                <div class=""stimulus-container"">
                    <img src=""images/causal_sequence/the_performance_causal/the_performance_causal_8.png"" class=""exp-image"">
                    <div class=""question-area""></div> 
                </div>","null","","","","","","","","","","","",""
"","","","","","html-button-response","53","286192","0.0-53.0","A42E8021F24E4274850A97DA2AB7C107","019dac65-65ec-72b5-b305-321cce97ac5a","019dac5b-243f-7307-af64-a10f53f1ef70","","648","
                <div class=""stimulus-container"">
                    <img src=""images/causal_sequence/the_performance_causal/the_performance_causal_8.png"" class=""exp-image"">
                    <div class=""question-area"">
                        <p style=""font-size: 20px; font-weight: bold; margin: 0;"">Is there a person in this image?</p>
                    </div>
                </div>","0","main_experiment_trial","8","the_performance_causal","causal_sequence","chronological","","","","","","",""
"","","","","","html-keyboard-response","54","291202","0.0-54.0","A42E8021F24E4274850A97DA2AB7C107","019dac65-65ec-72b5-b305-321cce97ac5a","019dac5b-243f-7307-af64-a10f53f1ef70","","null","
                <div class=""stimulus-container"">
                    <img src=""images/causal_sequence/the_performance_causal/the_performance_causal_9.png"" class=""exp-image"">
                    <div class=""question-area""></div> 
                </div>","null","","","","","","","","","","","",""
"","","","","","html-button-response","55","291821","0.0-55.0","A42E8021F24E4274850A97DA2AB7C107","019dac65-65ec-72b5-b305-321cce97ac5a","019dac5b-243f-7307-af64-a10f53f1ef70","","617","
                <div class=""stimulus-container"">
                    <img src=""images/causal_sequence/the_performance_causal/the_performance_causal_9.png"" class=""exp-image"">
                    <div class=""question-area"">
                        <p style=""font-size: 20px; font-weight: bold; margin: 0;"">Is there a person in this image?</p>
                    </div>
                </div>","0","main_experiment_trial","9","the_performance_causal","causal_sequence","chronological","","","","","","",""
"","","","","","html-keyboard-response","56","296833","0.0-56.0","A42E8021F24E4274850A97DA2AB7C107","019dac65-65ec-72b5-b305-321cce97ac5a","019dac5b-243f-7307-af64-a10f53f1ef70","","null","
                <div class=""stimulus-container"">
                    <img src=""images/causal_sequence/the_performance_causal/the_performance_causal_ten.png"" class=""exp-image"">
                    <div class=""question-area""></div> 
                </div>","null","","","","","","","","","","","",""
"","","","","","html-button-response","57","297491","0.0-57.0","A42E8021F24E4274850A97DA2AB7C107","019dac65-65ec-72b5-b305-321cce97ac5a","019dac5b-243f-7307-af64-a10f53f1ef70","","656","
                <div class=""stimulus-container"">
                    <img src=""images/causal_sequence/the_performance_causal/the_performance_causal_ten.png"" class=""exp-image"">
                    <div class=""question-area"">
                        <p style=""font-size: 20px; font-weight: bold; margin: 0;"">Is there a person in this image?</p>
                    </div>
                </div>","0","main_experiment_trial","ten","the_performance_causal","causal_sequence","chronological","","","","","","",""
"","","","","","html-keyboard-response","58","302507","0.0-58.0","A42E8021F24E4274850A97DA2AB7C107","019dac65-65ec-72b5-b305-321cce97ac5a","019dac5b-243f-7307-af64-a10f53f1ef70","","null","<div style=""background-color: white; width: 100vw; height: 100vh;""></div>","null","","","","","","","","","","","",""
"","","","","","html-keyboard-response","59","307520","0.0-59.0","A42E8021F24E4274850A97DA2AB7C107","019dac65-65ec-72b5-b305-321cce97ac5a","019dac5b-243f-7307-af64-a10f53f1ef70","","null","
                <div class=""stimulus-container"">
                    <img src=""images/causal_sequence/coin_causal/coin_causal_1.png"" class=""exp-image"">
                    <div class=""question-area""></div> 
                </div>","null","","","","","","","","","","","",""
"","","","","","html-button-response","60","308341","0.0-60.0","A42E8021F24E4274850A97DA2AB7C107","019dac65-65ec-72b5-b305-321cce97ac5a","019dac5b-243f-7307-af64-a10f53f1ef70","","819","
                <div class=""stimulus-container"">
                    <img src=""images/causal_sequence/coin_causal/coin_causal_1.png"" class=""exp-image"">
                    <div class=""question-area"">
                        <p style=""font-size: 20px; font-weight: bold; margin: 0;"">Is there a person in this image?</p>
                    </div>
                </div>","0","main_experiment_trial","1","coin_causal","causal_sequence","chronological","","","","","","",""
"","","","","","html-keyboard-response","61","313347","0.0-61.0","A42E8021F24E4274850A97DA2AB7C107","019dac65-65ec-72b5-b305-321cce97ac5a","019dac5b-243f-7307-af64-a10f53f1ef70","","null","
                <div class=""stimulus-container"">
                    <img src=""images/causal_sequence/coin_causal/coin_causal_2.png"" class=""exp-image"">
                    <div class=""question-area""></div> 
                </div>","null","","","","","","","","","","","",""
"","","","","","html-button-response","62","314012","0.0-62.0","A42E8021F24E4274850A97DA2AB7C107","019dac65-65ec-72b5-b305-321cce97ac5a","019dac5b-243f-7307-af64-a10f53f1ef70","","662","
                <div class=""stimulus-container"">
                    <img src=""images/causal_sequence/coin_causal/coin_causal_2.png"" class=""exp-image"">
                    <div class=""question-area"">
                        <p style=""font-size: 20px; font-weight: bold; margin: 0;"">Is there a person in this image?</p>
                    </div>
                </div>","0","main_experiment_trial","2","coin_causal","causal_sequence","chronological","","","","","","",""
"","","","","","html-keyboard-response","63","319020","0.0-63.0","A42E8021F24E4274850A97DA2AB7C107","019dac65-65ec-72b5-b305-321cce97ac5a","019dac5b-243f-7307-af64-a10f53f1ef70","","null","
                <div class=""stimulus-container"">
                    <img src=""images/causal_sequence/coin_causal/coin_causal_3.png"" class=""exp-image"">
                    <div class=""question-area""></div> 
                </div>","null","","","","","","","","","","","",""
"","","","","","html-button-response","64","319642","0.0-64.0","A42E8021F24E4274850A97DA2AB7C107","019dac65-65ec-72b5-b305-321cce97ac5a","019dac5b-243f-7307-af64-a10f53f1ef70","","620","
                <div class=""stimulus-container"">
                    <img src=""images/causal_sequence/coin_causal/coin_causal_3.png"" class=""exp-image"">
                    <div class=""question-area"">
                        <p style=""font-size: 20px; font-weight: bold; margin: 0;"">Is there a person in this image?</p>
                    </div>
                </div>","0","main_experiment_trial","3","coin_causal","causal_sequence","chronological","","","","","","",""
"","","","","","html-keyboard-response","65","324649","0.0-65.0","A42E8021F24E4274850A97DA2AB7C107","019dac65-65ec-72b5-b305-321cce97ac5a","019dac5b-243f-7307-af64-a10f53f1ef70","","null","
                <div class=""stimulus-container"">
                    <img src=""images/causal_sequence/coin_causal/coin_causal_4.png"" class=""exp-image"">
                    <div class=""question-area""></div> 
                </div>","null","","","","","","","","","","","",""
"","","","","","html-button-response","66","325519","0.0-66.0","A42E8021F24E4274850A97DA2AB7C107","019dac65-65ec-72b5-b305-321cce97ac5a","019dac5b-243f-7307-af64-a10f53f1ef70","","869","
                <div class=""stimulus-container"">
                    <img src=""images/causal_sequence/coin_causal/coin_causal_4.png"" class=""exp-image"">
                    <div class=""question-area"">
                        <p style=""font-size: 20px; font-weight: bold; margin: 0;"">Is there a person in this image?</p>
                    </div>
                </div>","0","main_experiment_trial","4","coin_causal","causal_sequence","chronological","","","","","","",""
"","","","","","html-keyboard-response","67","330529","0.0-67.0","A42E8021F24E4274850A97DA2AB7C107","019dac65-65ec-72b5-b305-321cce97ac5a","019dac5b-243f-7307-af64-a10f53f1ef70","","null","
                <div class=""stimulus-container"">
                    <img src=""images/causal_sequence/coin_causal/coin_causal_5.png"" class=""exp-image"">
                    <div class=""question-area""></div> 
                </div>","null","","","","","","","","","","","",""
"","","","","","html-button-response","68","331423","0.0-68.0","A42E8021F24E4274850A97DA2AB7C107","019dac65-65ec-72b5-b305-321cce97ac5a","019dac5b-243f-7307-af64-a10f53f1ef70","","893","
                <div class=""stimulus-container"">
                    <img src=""images/causal_sequence/coin_causal/coin_causal_5.png"" class=""exp-image"">
                    <div class=""question-area"">
                        <p style=""font-size: 20px; font-weight: bold; margin: 0;"">Is there a person in this image?</p>
                    </div>
                </div>","0","main_experiment_trial","5","coin_causal","causal_sequence","chronological","","","","","","",""
"","","","","","html-keyboard-response","69","336431","0.0-69.0","A42E8021F24E4274850A97DA2AB7C107","019dac65-65ec-72b5-b305-321cce97ac5a","019dac5b-243f-7307-af64-a10f53f1ef70","","null","
                <div class=""stimulus-container"">
                    <img src=""images/causal_sequence/coin_causal/coin_causal_6.png"" class=""exp-image"">
                    <div class=""question-area""></div> 
                </div>","null","","","","","","","","","","","",""
"","","","","","html-button-response","70","337371","0.0-70.0","A42E8021F24E4274850A97DA2AB7C107","019dac65-65ec-72b5-b305-321cce97ac5a","019dac5b-243f-7307-af64-a10f53f1ef70","","937","
                <div class=""stimulus-container"">
                    <img src=""images/causal_sequence/coin_causal/coin_causal_6.png"" class=""exp-image"">
                    <div class=""question-area"">
                        <p style=""font-size: 20px; font-weight: bold; margin: 0;"">Is there a person in this image?</p>
                    </div>
                </div>","0","main_experiment_trial","6","coin_causal","causal_sequence","chronological","","","","","","",""
"","","","","","html-keyboard-response","71","342386","0.0-71.0","A42E8021F24E4274850A97DA2AB7C107","019dac65-65ec-72b5-b305-321cce97ac5a","019dac5b-243f-7307-af64-a10f53f1ef70","","null","
                <div class=""stimulus-container"">
                    <img src=""images/causal_sequence/coin_causal/coin_causal_7.png"" class=""exp-image"">
                    <div class=""question-area""></div> 
                </div>","null","","","","","","","","","","","",""
"","","","","","html-button-response","72","343197","0.0-72.0","A42E8021F24E4274850A97DA2AB7C107","019dac65-65ec-72b5-b305-321cce97ac5a","019dac5b-243f-7307-af64-a10f53f1ef70","","809","
                <div class=""stimulus-container"">
                    <img src=""images/causal_sequence/coin_causal/coin_causal_7.png"" class=""exp-image"">
                    <div class=""question-area"">
                        <p style=""font-size: 20px; font-weight: bold; margin: 0;"">Is there a person in this image?</p>
                    </div>
                </div>","1","main_experiment_trial","7","coin_causal","causal_sequence","chronological","","","","","","",""
"","","","","","html-keyboard-response","73","348214","0.0-73.0","A42E8021F24E4274850A97DA2AB7C107","019dac65-65ec-72b5-b305-321cce97ac5a","019dac5b-243f-7307-af64-a10f53f1ef70","","null","
                <div class=""stimulus-container"">
                    <img src=""images/causal_sequence/coin_causal/coin_causal_8.png"" class=""exp-image"">
                    <div class=""question-area""></div> 
                </div>","null","","","","","","","","","","","",""
"","","","","","html-button-response","74","348976","0.0-74.0","A42E8021F24E4274850A97DA2AB7C107","019dac65-65ec-72b5-b305-321cce97ac5a","019dac5b-243f-7307-af64-a10f53f1ef70","","761","
                <div class=""stimulus-container"">
                    <img src=""images/causal_sequence/coin_causal/coin_causal_8.png"" class=""exp-image"">
                    <div class=""question-area"">
                        <p style=""font-size: 20px; font-weight: bold; margin: 0;"">Is there a person in this image?</p>
                    </div>
                </div>","0","main_experiment_trial","8","coin_causal","causal_sequence","chronological","","","","","","",""
"","","","","","html-keyboard-response","75","353981","0.0-75.0","A42E8021F24E4274850A97DA2AB7C107","019dac65-65ec-72b5-b305-321cce97ac5a","019dac5b-243f-7307-af64-a10f53f1ef70","","null","
                <div class=""stimulus-container"">
                    <img src=""images/causal_sequence/coin_causal/coin_causal_9.png"" class=""exp-image"">
                    <div class=""question-area""></div> 
                </div>","null","","","","","","","","","","","",""
"","","","","","html-button-response","76","354675","0.0-76.0","A42E8021F24E4274850A97DA2AB7C107","019dac65-65ec-72b5-b305-321cce97ac5a","019dac5b-243f-7307-af64-a10f53f1ef70","","692","
                <div class=""stimulus-container"">
                    <img src=""images/causal_sequence/coin_causal/coin_causal_9.png"" class=""exp-image"">
                    <div class=""question-area"">
                        <p style=""font-size: 20px; font-weight: bold; margin: 0;"">Is there a person in this image?</p>
                    </div>
                </div>","0","main_experiment_trial","9","coin_causal","causal_sequence","chronological","","","","","","",""
"","","","","","html-keyboard-response","77","359684","0.0-77.0","A42E8021F24E4274850A97DA2AB7C107","019dac65-65ec-72b5-b305-321cce97ac5a","019dac5b-243f-7307-af64-a10f53f1ef70","","null","
                <div class=""stimulus-container"">
                    <img src=""images/causal_sequence/coin_causal/coin_causal_ten.png"" class=""exp-image"">
                    <div class=""question-area""></div> 
                </div>","null","","","","","","","","","","","",""
"","","","","","html-button-response","78","360351","0.0-78.0","A42E8021F24E4274850A97DA2AB7C107","019dac65-65ec-72b5-b305-321cce97ac5a","019dac5b-243f-7307-af64-a10f53f1ef70","","665","
                <div class=""stimulus-container"">
                    <img src=""images/causal_sequence/coin_causal/coin_causal_ten.png"" class=""exp-image"">
                    <div class=""question-area"">
                        <p style=""font-size: 20px; font-weight: bold; margin: 0;"">Is there a person in this image?</p>
                    </div>
                </div>","0","main_experiment_trial","ten","coin_causal","causal_sequence","chronological","","","","","","",""
"","","","","","html-keyboard-response","79","365359","0.0-79.0","A42E8021F24E4274850A97DA2AB7C107","019dac65-65ec-72b5-b305-321cce97ac5a","019dac5b-243f-7307-af64-a10f53f1ef70","","null","<div style=""background-color: white; width: 100vw; height: 100vh;""></div>","null","","","","","","","","","","","",""
"","","","","","html-keyboard-response","80","370365","0.0-80.0","A42E8021F24E4274850A97DA2AB7C107","019dac65-65ec-72b5-b305-321cce97ac5a","019dac5b-243f-7307-af64-a10f53f1ef70","","null","
                <div class=""stimulus-container"">
                    <img src=""images/semantic_sequence/kitchen_operations_semantic/kitchen_operations_semantic_1.png"" class=""exp-image"">
                    <div class=""question-area""></div> 
                </div>","null","","","","","","","","","","","",""
"","","","","","html-button-response","81","371256","0.0-81.0","A42E8021F24E4274850A97DA2AB7C107","019dac65-65ec-72b5-b305-321cce97ac5a","019dac5b-243f-7307-af64-a10f53f1ef70","","890","
                <div class=""stimulus-container"">
                    <img src=""images/semantic_sequence/kitchen_operations_semantic/kitchen_operations_semantic_1.png"" class=""exp-image"">
                    <div class=""question-area"">
                        <p style=""font-size: 20px; font-weight: bold; margin: 0;"">Is there a person in this image?</p>
                    </div>
                </div>","0","main_experiment_trial","1","kitchen_operations_semantic","semantic_sequence","chronological","","","","","","",""
"","","","","","html-keyboard-response","82","376270","0.0-82.0","A42E8021F24E4274850A97DA2AB7C107","019dac65-65ec-72b5-b305-321cce97ac5a","019dac5b-243f-7307-af64-a10f53f1ef70","","null","
                <div class=""stimulus-container"">
                    <img src=""images/semantic_sequence/kitchen_operations_semantic/kitchen_operations_semantic_2.png"" class=""exp-image"">
                    <div class=""question-area""></div> 
                </div>","null","","","","","","","","","","","",""
"","","","","","html-button-response","83","377003","0.0-83.0","A42E8021F24E4274850A97DA2AB7C107","019dac65-65ec-72b5-b305-321cce97ac5a","019dac5b-243f-7307-af64-a10f53f1ef70","","731","
                <div class=""stimulus-container"">
                    <img src=""images/semantic_sequence/kitchen_operations_semantic/kitchen_operations_semantic_2.png"" class=""exp-image"">
                    <div class=""question-area"">
                        <p style=""font-size: 20px; font-weight: bold; margin: 0;"">Is there a person in this image?</p>
                    </div>
                </div>","0","main_experiment_trial","2","kitchen_operations_semantic","semantic_sequence","chronological","","","","","","",""
"","","","","","html-keyboard-response","84","382016","0.0-84.0","A42E8021F24E4274850A97DA2AB7C107","019dac65-65ec-72b5-b305-321cce97ac5a","019dac5b-243f-7307-af64-a10f53f1ef70","","null","
                <div class=""stimulus-container"">
                    <img src=""images/semantic_sequence/kitchen_operations_semantic/kitchen_operations_semantic_3.png"" class=""exp-image"">
                    <div class=""question-area""></div> 
                </div>","null","","","","","","","","","","","",""
"","","","","","html-button-response","85","382879","0.0-85.0","A42E8021F24E4274850A97DA2AB7C107","019dac65-65ec-72b5-b305-321cce97ac5a","019dac5b-243f-7307-af64-a10f53f1ef70","","861","
                <div class=""stimulus-container"">
                    <img src=""images/semantic_sequence/kitchen_operations_semantic/kitchen_operations_semantic_3.png"" class=""exp-image"">
                    <div class=""question-area"">
                        <p style=""font-size: 20px; font-weight: bold; margin: 0;"">Is there a person in this image?</p>
                    </div>
                </div>","0","main_experiment_trial","3","kitchen_operations_semantic","semantic_sequence","chronological","","","","","","",""
"","","","","","html-keyboard-response","86","387892","0.0-86.0","A42E8021F24E4274850A97DA2AB7C107","019dac65-65ec-72b5-b305-321cce97ac5a","019dac5b-243f-7307-af64-a10f53f1ef70","","null","
                <div class=""stimulus-container"">
                    <img src=""images/semantic_sequence/kitchen_operations_semantic/kitchen_operations_semantic_4.png"" class=""exp-image"">
                    <div class=""question-area""></div> 
                </div>","null","","","","","","","","","","","",""
"","","","","","html-button-response","87","388952","0.0-87.0","A42E8021F24E4274850A97DA2AB7C107","019dac65-65ec-72b5-b305-321cce97ac5a","019dac5b-243f-7307-af64-a10f53f1ef70","","1059","
                <div class=""stimulus-container"">
                    <img src=""images/semantic_sequence/kitchen_operations_semantic/kitchen_operations_semantic_4.png"" class=""exp-image"">
                    <div class=""question-area"">
                        <p style=""font-size: 20px; font-weight: bold; margin: 0;"">Is there a person in this image?</p>
                    </div>
                </div>","0","main_experiment_trial","4","kitchen_operations_semantic","semantic_sequence","chronological","","","","","","",""
"","","","","","html-keyboard-response","88","393971","0.0-88.0","A42E8021F24E4274850A97DA2AB7C107","019dac65-65ec-72b5-b305-321cce97ac5a","019dac5b-243f-7307-af64-a10f53f1ef70","","null","
                <div class=""stimulus-container"">
                    <img src=""images/semantic_sequence/kitchen_operations_semantic/kitchen_operations_semantic_5.png"" class=""exp-image"">
                    <div class=""question-area""></div> 
                </div>","null","","","","","","","","","","","",""
"","","","","","html-button-response","89","394631","0.0-89.0","A42E8021F24E4274850A97DA2AB7C107","019dac65-65ec-72b5-b305-321cce97ac5a","019dac5b-243f-7307-af64-a10f53f1ef70","","659","
                <div class=""stimulus-container"">
                    <img src=""images/semantic_sequence/kitchen_operations_semantic/kitchen_operations_semantic_5.png"" class=""exp-image"">
                    <div class=""question-area"">
                        <p style=""font-size: 20px; font-weight: bold; margin: 0;"">Is there a person in this image?</p>
                    </div>
                </div>","0","main_experiment_trial","5","kitchen_operations_semantic","semantic_sequence","chronological","","","","","","",""
"","","","","","html-keyboard-response","90","399643","0.0-90.0","A42E8021F24E4274850A97DA2AB7C107","019dac65-65ec-72b5-b305-321cce97ac5a","019dac5b-243f-7307-af64-a10f53f1ef70","","null","
                <div class=""stimulus-container"">
                    <img src=""images/semantic_sequence/kitchen_operations_semantic/kitchen_operations_semantic_6.png"" class=""exp-image"">
                    <div class=""question-area""></div> 
                </div>","null","","","","","","","","","","","",""
"","","","","","html-button-response","91","400289","0.0-91.0","A42E8021F24E4274850A97DA2AB7C107","019dac65-65ec-72b5-b305-321cce97ac5a","019dac5b-243f-7307-af64-a10f53f1ef70","","645","
                <div class=""stimulus-container"">
                    <img src=""images/semantic_sequence/kitchen_operations_semantic/kitchen_operations_semantic_6.png"" class=""exp-image"">
                    <div class=""question-area"">
                        <p style=""font-size: 20px; font-weight: bold; margin: 0;"">Is there a person in this image?</p>
                    </div>
                </div>","0","main_experiment_trial","6","kitchen_operations_semantic","semantic_sequence","chronological","","","","","","",""
"","","","","","html-keyboard-response","92","405291","0.0-92.0","A42E8021F24E4274850A97DA2AB7C107","019dac65-65ec-72b5-b305-321cce97ac5a","019dac5b-243f-7307-af64-a10f53f1ef70","","null","
                <div class=""stimulus-container"">
                    <img src=""images/semantic_sequence/kitchen_operations_semantic/kitchen_operations_semantic_7.png"" class=""exp-image"">
                    <div class=""question-area""></div> 
                </div>","null","","","","","","","","","","","",""
"","","","","","html-button-response","93","406019","0.0-93.0","A42E8021F24E4274850A97DA2AB7C107","019dac65-65ec-72b5-b305-321cce97ac5a","019dac5b-243f-7307-af64-a10f53f1ef70","","726","
                <div class=""stimulus-container"">
                    <img src=""images/semantic_sequence/kitchen_operations_semantic/kitchen_operations_semantic_7.png"" class=""exp-image"">
                    <div class=""question-area"">
                        <p style=""font-size: 20px; font-weight: bold; margin: 0;"">Is there a person in this image?</p>
                    </div>
                </div>","0","main_experiment_trial","7","kitchen_operations_semantic","semantic_sequence","chronological","","","","","","",""
"","","","","","html-keyboard-response","94","411024","0.0-94.0","A42E8021F24E4274850A97DA2AB7C107","019dac65-65ec-72b5-b305-321cce97ac5a","019dac5b-243f-7307-af64-a10f53f1ef70","","null","
                <div class=""stimulus-container"">
                    <img src=""images/semantic_sequence/kitchen_operations_semantic/kitchen_operations_semantic_8.png"" class=""exp-image"">
                    <div class=""question-area""></div> 
                </div>","null","","","","","","","","","","","",""
"","","","","","html-button-response","95","411693","0.0-95.0","A42E8021F24E4274850A97DA2AB7C107","019dac65-65ec-72b5-b305-321cce97ac5a","019dac5b-243f-7307-af64-a10f53f1ef70","","666","
                <div class=""stimulus-container"">
                    <img src=""images/semantic_sequence/kitchen_operations_semantic/kitchen_operations_semantic_8.png"" class=""exp-image"">
                    <div class=""question-area"">
                        <p style=""font-size: 20px; font-weight: bold; margin: 0;"">Is there a person in this image?</p>
                    </div>
                </div>","0","main_experiment_trial","8","kitchen_operations_semantic","semantic_sequence","chronological","","","","","","",""
"","","","","","html-keyboard-response","96","416705","0.0-96.0","A42E8021F24E4274850A97DA2AB7C107","019dac65-65ec-72b5-b305-321cce97ac5a","019dac5b-243f-7307-af64-a10f53f1ef70","","null","
                <div class=""stimulus-container"">
                    <img src=""images/semantic_sequence/kitchen_operations_semantic/kitchen_operations_semantic_9.png"" class=""exp-image"">
                    <div class=""question-area""></div> 
                </div>","null","","","","","","","","","","","",""
"","","","","","html-button-response","97","417355","0.0-97.0","A42E8021F24E4274850A97DA2AB7C107","019dac65-65ec-72b5-b305-321cce97ac5a","019dac5b-243f-7307-af64-a10f53f1ef70","","648","
                <div class=""stimulus-container"">
                    <img src=""images/semantic_sequence/kitchen_operations_semantic/kitchen_operations_semantic_9.png"" class=""exp-image"">
                    <div class=""question-area"">
                        <p style=""font-size: 20px; font-weight: bold; margin: 0;"">Is there a person in this image?</p>
                    </div>
                </div>","0","main_experiment_trial","9","kitchen_operations_semantic","semantic_sequence","chronological","","","","","","",""
"","","","","","html-keyboard-response","98","422368","0.0-98.0","A42E8021F24E4274850A97DA2AB7C107","019dac65-65ec-72b5-b305-321cce97ac5a","019dac5b-243f-7307-af64-a10f53f1ef70","","null","
                <div class=""stimulus-container"">
                    <img src=""images/semantic_sequence/kitchen_operations_semantic/kitchen_operations_semantic_ten.png"" class=""exp-image"">
                    <div class=""question-area""></div> 
                </div>","null","","","","","","","","","","","",""
"","","","","","html-button-response","99","423081","0.0-99.0","A42E8021F24E4274850A97DA2AB7C107","019dac65-65ec-72b5-b305-321cce97ac5a","019dac5b-243f-7307-af64-a10f53f1ef70","","712","
                <div class=""stimulus-container"">
                    <img src=""images/semantic_sequence/kitchen_operations_semantic/kitchen_operations_semantic_ten.png"" class=""exp-image"">
                    <div class=""question-area"">
                        <p style=""font-size: 20px; font-weight: bold; margin: 0;"">Is there a person in this image?</p>
                    </div>
                </div>","0","main_experiment_trial","ten","kitchen_operations_semantic","semantic_sequence","chronological","","","","","","",""
"","","","","","html-keyboard-response","100","428090","0.0-100.0","A42E8021F24E4274850A97DA2AB7C107","019dac65-65ec-72b5-b305-321cce97ac5a","019dac5b-243f-7307-af64-a10f53f1ef70","","null","<div style=""background-color: white; width: 100vw; height: 100vh;""></div>","null","","","","","","","","","","","",""
"","","","","","html-keyboard-response","101","433105","0.0-101.0","A42E8021F24E4274850A97DA2AB7C107","019dac65-65ec-72b5-b305-321cce97ac5a","019dac5b-243f-7307-af64-a10f53f1ef70","","null","
                <div class=""stimulus-container"">
                    <img src=""images/causal_sequence/saving_a_cat_causal/saving_a_cat_causal_1.png"" class=""exp-image"">
                    <div class=""question-area""></div> 
                </div>","null","","","","","","","","","","","",""
"","","","","","html-button-response","102","433768","0.0-102.0","A42E8021F24E4274850A97DA2AB7C107","019dac65-65ec-72b5-b305-321cce97ac5a","019dac5b-243f-7307-af64-a10f53f1ef70","","660","
                <div class=""stimulus-container"">
                    <img src=""images/causal_sequence/saving_a_cat_causal/saving_a_cat_causal_1.png"" class=""exp-image"">
                    <div class=""question-area"">
                        <p style=""font-size: 20px; font-weight: bold; margin: 0;"">Is there a person in this image?</p>
                    </div>
                </div>","0","main_experiment_trial","1","saving_a_cat_causal","causal_sequence","chronological","","","","","","",""
"","","","","","html-keyboard-response","103","438771","0.0-103.0","A42E8021F24E4274850A97DA2AB7C107","019dac65-65ec-72b5-b305-321cce97ac5a","019dac5b-243f-7307-af64-a10f53f1ef70","","null","
                <div class=""stimulus-container"">
                    <img src=""images/causal_sequence/saving_a_cat_causal/saving_a_cat_causal_2.png"" class=""exp-image"">
                    <div class=""question-area""></div> 
                </div>","null","","","","","","","","","","","",""
"","","","","","html-button-response","104","439495","0.0-104.0","A42E8021F24E4274850A97DA2AB7C107","019dac65-65ec-72b5-b305-321cce97ac5a","019dac5b-243f-7307-af64-a10f53f1ef70","","722","
                <div class=""stimulus-container"">
                    <img src=""images/causal_sequence/saving_a_cat_causal/saving_a_cat_causal_2.png"" class=""exp-image"">
                    <div class=""question-area"">
                        <p style=""font-size: 20px; font-weight: bold; margin: 0;"">Is there a person in this image?</p>
                    </div>
                </div>","1","main_experiment_trial","2","saving_a_cat_causal","causal_sequence","chronological","","","","","","",""
"","","","","","html-keyboard-response","105","444510","0.0-105.0","A42E8021F24E4274850A97DA2AB7C107","019dac65-65ec-72b5-b305-321cce97ac5a","019dac5b-243f-7307-af64-a10f53f1ef70","","null","
                <div class=""stimulus-container"">
                    <img src=""images/causal_sequence/saving_a_cat_causal/saving_a_cat_causal_3.png"" class=""exp-image"">
                    <div class=""question-area""></div> 
                </div>","null","","","","","","","","","","","",""
"","","","","","html-button-response","106","445552","0.0-106.0","A42E8021F24E4274850A97DA2AB7C107","019dac65-65ec-72b5-b305-321cce97ac5a","019dac5b-243f-7307-af64-a10f53f1ef70","","1040","
                <div class=""stimulus-container"">
                    <img src=""images/causal_sequence/saving_a_cat_causal/saving_a_cat_causal_3.png"" class=""exp-image"">
                    <div class=""question-area"">
                        <p style=""font-size: 20px; font-weight: bold; margin: 0;"">Is there a person in this image?</p>
                    </div>
                </div>","1","main_experiment_trial","3","saving_a_cat_causal","causal_sequence","chronological","","","","","","",""
"","","","","","html-keyboard-response","107","450563","0.0-107.0","A42E8021F24E4274850A97DA2AB7C107","019dac65-65ec-72b5-b305-321cce97ac5a","019dac5b-243f-7307-af64-a10f53f1ef70","","null","
                <div class=""stimulus-container"">
                    <img src=""images/causal_sequence/saving_a_cat_causal/saving_a_cat_causal_4.png"" class=""exp-image"">
                    <div class=""question-area""></div> 
                </div>","null","","","","","","","","","","","",""
"","","","","","html-button-response","108","451402","0.0-108.0","A42E8021F24E4274850A97DA2AB7C107","019dac65-65ec-72b5-b305-321cce97ac5a","019dac5b-243f-7307-af64-a10f53f1ef70","","837","
                <div class=""stimulus-container"">
                    <img src=""images/causal_sequence/saving_a_cat_causal/saving_a_cat_causal_4.png"" class=""exp-image"">
                    <div class=""question-area"">
                        <p style=""font-size: 20px; font-weight: bold; margin: 0;"">Is there a person in this image?</p>
                    </div>
                </div>","0","main_experiment_trial","4","saving_a_cat_causal","causal_sequence","chronological","","","","","","",""
"","","","","","html-keyboard-response","109","456414","0.0-109.0","A42E8021F24E4274850A97DA2AB7C107","019dac65-65ec-72b5-b305-321cce97ac5a","019dac5b-243f-7307-af64-a10f53f1ef70","","null","
                <div class=""stimulus-container"">
                    <img src=""images/causal_sequence/saving_a_cat_causal/saving_a_cat_causal_5.png"" class=""exp-image"">
                    <div class=""question-area""></div> 
                </div>","null","","","","","","","","","","","",""
"","","","","","html-button-response","110","457163","0.0-110.0","A42E8021F24E4274850A97DA2AB7C107","019dac65-65ec-72b5-b305-321cce97ac5a","019dac5b-243f-7307-af64-a10f53f1ef70","","747","
                <div class=""stimulus-container"">
                    <img src=""images/causal_sequence/saving_a_cat_causal/saving_a_cat_causal_5.png"" class=""exp-image"">
                    <div class=""question-area"">
                        <p style=""font-size: 20px; font-weight: bold; margin: 0;"">Is there a person in this image?</p>
                    </div>
                </div>","0","main_experiment_trial","5","saving_a_cat_causal","causal_sequence","chronological","","","","","","",""
"","","","","","html-keyboard-response","111","462178","0.0-111.0","A42E8021F24E4274850A97DA2AB7C107","019dac65-65ec-72b5-b305-321cce97ac5a","019dac5b-243f-7307-af64-a10f53f1ef70","","null","
                <div class=""stimulus-container"">
                    <img src=""images/causal_sequence/saving_a_cat_causal/saving_a_cat_causal_6.png"" class=""exp-image"">
                    <div class=""question-area""></div> 
                </div>","null","","","","","","","","","","","",""
"","","","","","html-button-response","112","462987","0.0-112.0","A42E8021F24E4274850A97DA2AB7C107","019dac65-65ec-72b5-b305-321cce97ac5a","019dac5b-243f-7307-af64-a10f53f1ef70","","807","
                <div class=""stimulus-container"">
                    <img src=""images/causal_sequence/saving_a_cat_causal/saving_a_cat_causal_6.png"" class=""exp-image"">
                    <div class=""question-area"">
                        <p style=""font-size: 20px; font-weight: bold; margin: 0;"">Is there a person in this image?</p>
                    </div>
                </div>","0","main_experiment_trial","6","saving_a_cat_causal","causal_sequence","chronological","","","","","","",""
"","","","","","html-keyboard-response","113","467991","0.0-113.0","A42E8021F24E4274850A97DA2AB7C107","019dac65-65ec-72b5-b305-321cce97ac5a","019dac5b-243f-7307-af64-a10f53f1ef70","","null","
                <div class=""stimulus-container"">
                    <img src=""images/causal_sequence/saving_a_cat_causal/saving_a_cat_causal_7.png"" class=""exp-image"">
                    <div class=""question-area""></div> 
                </div>","null","","","","","","","","","","","",""
"","","","","","html-button-response","114","468733","0.0-114.0","A42E8021F24E4274850A97DA2AB7C107","019dac65-65ec-72b5-b305-321cce97ac5a","019dac5b-243f-7307-af64-a10f53f1ef70","","740","
                <div class=""stimulus-container"">
                    <img src=""images/causal_sequence/saving_a_cat_causal/saving_a_cat_causal_7.png"" class=""exp-image"">
                    <div class=""question-area"">
                        <p style=""font-size: 20px; font-weight: bold; margin: 0;"">Is there a person in this image?</p>
                    </div>
                </div>","0","main_experiment_trial","7","saving_a_cat_causal","causal_sequence","chronological","","","","","","",""
"","","","","","html-keyboard-response","115","473745","0.0-115.0","A42E8021F24E4274850A97DA2AB7C107","019dac65-65ec-72b5-b305-321cce97ac5a","019dac5b-243f-7307-af64-a10f53f1ef70","","null","
                <div class=""stimulus-container"">
                    <img src=""images/causal_sequence/saving_a_cat_causal/saving_a_cat_causal_8.png"" class=""exp-image"">
                    <div class=""question-area""></div> 
                </div>","null","","","","","","","","","","","",""
"","","","","","html-button-response","116","474418","0.0-116.0","A42E8021F24E4274850A97DA2AB7C107","019dac65-65ec-72b5-b305-321cce97ac5a","019dac5b-243f-7307-af64-a10f53f1ef70","","671","
                <div class=""stimulus-container"">
                    <img src=""images/causal_sequence/saving_a_cat_causal/saving_a_cat_causal_8.png"" class=""exp-image"">
                    <div class=""question-area"">
                        <p style=""font-size: 20px; font-weight: bold; margin: 0;"">Is there a person in this image?</p>
                    </div>
                </div>","0","main_experiment_trial","8","saving_a_cat_causal","causal_sequence","chronological","","","","","","",""
"","","","","","html-keyboard-response","117","479427","0.0-117.0","A42E8021F24E4274850A97DA2AB7C107","019dac65-65ec-72b5-b305-321cce97ac5a","019dac5b-243f-7307-af64-a10f53f1ef70","","null","
                <div class=""stimulus-container"">
                    <img src=""images/causal_sequence/saving_a_cat_causal/saving_a_cat_causal_9.png"" class=""exp-image"">
                    <div class=""question-area""></div> 
                </div>","null","","","","","","","","","","","",""
"","","","","","html-button-response","118","480255","0.0-118.0","A42E8021F24E4274850A97DA2AB7C107","019dac65-65ec-72b5-b305-321cce97ac5a","019dac5b-243f-7307-af64-a10f53f1ef70","","826","
                <div class=""stimulus-container"">
                    <img src=""images/causal_sequence/saving_a_cat_causal/saving_a_cat_causal_9.png"" class=""exp-image"">
                    <div class=""question-area"">
                        <p style=""font-size: 20px; font-weight: bold; margin: 0;"">Is there a person in this image?</p>
                    </div>
                </div>","0","main_experiment_trial","9","saving_a_cat_causal","causal_sequence","chronological","","","","","","",""
"","","","","","html-keyboard-response","119","485266","0.0-119.0","A42E8021F24E4274850A97DA2AB7C107","019dac65-65ec-72b5-b305-321cce97ac5a","019dac5b-243f-7307-af64-a10f53f1ef70","","null","
                <div class=""stimulus-container"">
                    <img src=""images/causal_sequence/saving_a_cat_causal/saving_a_cat_causal_ten.png"" class=""exp-image"">
                    <div class=""question-area""></div> 
                </div>","null","","","","","","","","","","","",""
"","","","","","html-button-response","120","486169","0.0-120.0","A42E8021F24E4274850A97DA2AB7C107","019dac65-65ec-72b5-b305-321cce97ac5a","019dac5b-243f-7307-af64-a10f53f1ef70","","900","
                <div class=""stimulus-container"">
                    <img src=""images/causal_sequence/saving_a_cat_causal/saving_a_cat_causal_ten.png"" class=""exp-image"">
                    <div class=""question-area"">
                        <p style=""font-size: 20px; font-weight: bold; margin: 0;"">Is there a person in this image?</p>
                    </div>
                </div>","0","main_experiment_trial","ten","saving_a_cat_causal","causal_sequence","chronological","","","","","","",""
"","","","","","html-keyboard-response","121","491176","0.0-121.0","A42E8021F24E4274850A97DA2AB7C107","019dac65-65ec-72b5-b305-321cce97ac5a","019dac5b-243f-7307-af64-a10f53f1ef70","","null","<div style=""background-color: white; width: 100vw; height: 100vh;""></div>","null","","","","","","","","","","","",""
"","","","","","html-keyboard-response","122","496189","0.0-122.0","A42E8021F24E4274850A97DA2AB7C107","019dac65-65ec-72b5-b305-321cce97ac5a","019dac5b-243f-7307-af64-a10f53f1ef70","","null","
                <div class=""stimulus-container"">
                    <img src=""images/semantic_sequence/maintaining_a_car_semantic/maintaining_a_car_semantic_1.png"" class=""exp-image"">
                    <div class=""question-area""></div> 
                </div>","null","","","","","","","","","","","",""
"","","","","","html-button-response","123","496970","0.0-123.0","A42E8021F24E4274850A97DA2AB7C107","019dac65-65ec-72b5-b305-321cce97ac5a","019dac5b-243f-7307-af64-a10f53f1ef70","","779","
                <div class=""stimulus-container"">
                    <img src=""images/semantic_sequence/maintaining_a_car_semantic/maintaining_a_car_semantic_1.png"" class=""exp-image"">
                    <div class=""question-area"">
                        <p style=""font-size: 20px; font-weight: bold; margin: 0;"">Is there a person in this image?</p>
                    </div>
                </div>","0","main_experiment_trial","1","maintaining_a_car_semantic","semantic_sequence","chronological","","","","","","",""
"","","","","","html-keyboard-response","124","501983","0.0-124.0","A42E8021F24E4274850A97DA2AB7C107","019dac65-65ec-72b5-b305-321cce97ac5a","019dac5b-243f-7307-af64-a10f53f1ef70","","null","
                <div class=""stimulus-container"">
                    <img src=""images/semantic_sequence/maintaining_a_car_semantic/maintaining_a_car_semantic_2.png"" class=""exp-image"">
                    <div class=""question-area""></div> 
                </div>","null","","","","","","","","","","","",""
"","","","","","html-button-response","125","502734","0.0-125.0","A42E8021F24E4274850A97DA2AB7C107","019dac65-65ec-72b5-b305-321cce97ac5a","019dac5b-243f-7307-af64-a10f53f1ef70","","750","
                <div class=""stimulus-container"">
                    <img src=""images/semantic_sequence/maintaining_a_car_semantic/maintaining_a_car_semantic_2.png"" class=""exp-image"">
                    <div class=""question-area"">
                        <p style=""font-size: 20px; font-weight: bold; margin: 0;"">Is there a person in this image?</p>
                    </div>
                </div>","0","main_experiment_trial","2","maintaining_a_car_semantic","semantic_sequence","chronological","","","","","","",""
"","","","","","html-keyboard-response","126","507748","0.0-126.0","A42E8021F24E4274850A97DA2AB7C107","019dac65-65ec-72b5-b305-321cce97ac5a","019dac5b-243f-7307-af64-a10f53f1ef70","","null","
                <div class=""stimulus-container"">
                    <img src=""images/semantic_sequence/maintaining_a_car_semantic/maintaining_a_car_semantic_3.png"" class=""exp-image"">
                    <div class=""question-area""></div> 
                </div>","null","","","","","","","","","","","",""
"","","","","","html-button-response","127","508630","0.0-127.0","A42E8021F24E4274850A97DA2AB7C107","019dac65-65ec-72b5-b305-321cce97ac5a","019dac5b-243f-7307-af64-a10f53f1ef70","","881","
                <div class=""stimulus-container"">
                    <img src=""images/semantic_sequence/maintaining_a_car_semantic/maintaining_a_car_semantic_3.png"" class=""exp-image"">
                    <div class=""question-area"">
                        <p style=""font-size: 20px; font-weight: bold; margin: 0;"">Is there a person in this image?</p>
                    </div>
                </div>","0","main_experiment_trial","3","maintaining_a_car_semantic","semantic_sequence","chronological","","","","","","",""
"","","","","","html-keyboard-response","128","513637","0.0-128.0","A42E8021F24E4274850A97DA2AB7C107","019dac65-65ec-72b5-b305-321cce97ac5a","019dac5b-243f-7307-af64-a10f53f1ef70","","null","
                <div class=""stimulus-container"">
                    <img src=""images/semantic_sequence/maintaining_a_car_semantic/maintaining_a_car_semantic_4.png"" class=""exp-image"">
                    <div class=""question-area""></div> 
                </div>","null","","","","","","","","","","","",""
"","","","","","html-button-response","129","514274","0.0-129.0","A42E8021F24E4274850A97DA2AB7C107","019dac65-65ec-72b5-b305-321cce97ac5a","019dac5b-243f-7307-af64-a10f53f1ef70","","635","
                <div class=""stimulus-container"">
                    <img src=""images/semantic_sequence/maintaining_a_car_semantic/maintaining_a_car_semantic_4.png"" class=""exp-image"">
                    <div class=""question-area"">
                        <p style=""font-size: 20px; font-weight: bold; margin: 0;"">Is there a person in this image?</p>
                    </div>
                </div>","0","main_experiment_trial","4","maintaining_a_car_semantic","semantic_sequence","chronological","","","","","","",""
"","","","","","html-keyboard-response","130","519288","0.0-130.0","A42E8021F24E4274850A97DA2AB7C107","019dac65-65ec-72b5-b305-321cce97ac5a","019dac5b-243f-7307-af64-a10f53f1ef70","","null","
                <div class=""stimulus-container"">
                    <img src=""images/semantic_sequence/maintaining_a_car_semantic/maintaining_a_car_semantic_5.png"" class=""exp-image"">
                    <div class=""question-area""></div> 
                </div>","null","","","","","","","","","","","",""
"","","","","","html-button-response","131","519975","0.0-131.0","A42E8021F24E4274850A97DA2AB7C107","019dac65-65ec-72b5-b305-321cce97ac5a","019dac5b-243f-7307-af64-a10f53f1ef70","","686","
                <div class=""stimulus-container"">
                    <img src=""images/semantic_sequence/maintaining_a_car_semantic/maintaining_a_car_semantic_5.png"" class=""exp-image"">
                    <div class=""question-area"">
                        <p style=""font-size: 20px; font-weight: bold; margin: 0;"">Is there a person in this image?</p>
                    </div>
                </div>","0","main_experiment_trial","5","maintaining_a_car_semantic","semantic_sequence","chronological","","","","","","",""
"","","","","","html-keyboard-response","132","524981","0.0-132.0","A42E8021F24E4274850A97DA2AB7C107","019dac65-65ec-72b5-b305-321cce97ac5a","019dac5b-243f-7307-af64-a10f53f1ef70","","null","
                <div class=""stimulus-container"">
                    <img src=""images/semantic_sequence/maintaining_a_car_semantic/maintaining_a_car_semantic_6.png"" class=""exp-image"">
                    <div class=""question-area""></div> 
                </div>","null","","","","","","","","","","","",""
"","","","","","html-button-response","133","525622","0.0-133.0","A42E8021F24E4274850A97DA2AB7C107","019dac65-65ec-72b5-b305-321cce97ac5a","019dac5b-243f-7307-af64-a10f53f1ef70","","640","
                <div class=""stimulus-container"">
                    <img src=""images/semantic_sequence/maintaining_a_car_semantic/maintaining_a_car_semantic_6.png"" class=""exp-image"">
                    <div class=""question-area"">
                        <p style=""font-size: 20px; font-weight: bold; margin: 0;"">Is there a person in this image?</p>
                    </div>
                </div>","0","main_experiment_trial","6","maintaining_a_car_semantic","semantic_sequence","chronological","","","","","","",""
"","","","","","html-keyboard-response","134","530634","0.0-134.0","A42E8021F24E4274850A97DA2AB7C107","019dac65-65ec-72b5-b305-321cce97ac5a","019dac5b-243f-7307-af64-a10f53f1ef70","","null","
                <div class=""stimulus-container"">
                    <img src=""images/semantic_sequence/maintaining_a_car_semantic/maintaining_a_car_semantic_7.png"" class=""exp-image"">
                    <div class=""question-area""></div> 
                </div>","null","","","","","","","","","","","",""
"","","","","","html-button-response","135","531474","0.0-135.0","A42E8021F24E4274850A97DA2AB7C107","019dac65-65ec-72b5-b305-321cce97ac5a","019dac5b-243f-7307-af64-a10f53f1ef70","","837","
                <div class=""stimulus-container"">
                    <img src=""images/semantic_sequence/maintaining_a_car_semantic/maintaining_a_car_semantic_7.png"" class=""exp-image"">
                    <div class=""question-area"">
                        <p style=""font-size: 20px; font-weight: bold; margin: 0;"">Is there a person in this image?</p>
                    </div>
                </div>","0","main_experiment_trial","7","maintaining_a_car_semantic","semantic_sequence","chronological","","","","","","",""
"","","","","","html-keyboard-response","136","536480","0.0-136.0","A42E8021F24E4274850A97DA2AB7C107","019dac65-65ec-72b5-b305-321cce97ac5a","019dac5b-243f-7307-af64-a10f53f1ef70","","null","
                <div class=""stimulus-container"">
                    <img src=""images/semantic_sequence/maintaining_a_car_semantic/maintaining_a_car_semantic_8.png"" class=""exp-image"">
                    <div class=""question-area""></div> 
                </div>","null","","","","","","","","","","","",""
"","","","","","html-button-response","137","537162","0.0-137.0","A42E8021F24E4274850A97DA2AB7C107","019dac65-65ec-72b5-b305-321cce97ac5a","019dac5b-243f-7307-af64-a10f53f1ef70","","679","
                <div class=""stimulus-container"">
                    <img src=""images/semantic_sequence/maintaining_a_car_semantic/maintaining_a_car_semantic_8.png"" class=""exp-image"">
                    <div class=""question-area"">
                        <p style=""font-size: 20px; font-weight: bold; margin: 0;"">Is there a person in this image?</p>
                    </div>
                </div>","0","main_experiment_trial","8","maintaining_a_car_semantic","semantic_sequence","chronological","","","","","","",""
"","","","","","html-keyboard-response","138","542165","0.0-138.0","A42E8021F24E4274850A97DA2AB7C107","019dac65-65ec-72b5-b305-321cce97ac5a","019dac5b-243f-7307-af64-a10f53f1ef70","","null","
                <div class=""stimulus-container"">
                    <img src=""images/semantic_sequence/maintaining_a_car_semantic/maintaining_a_car_semantic_9.png"" class=""exp-image"">
                    <div class=""question-area""></div> 
                </div>","null","","","","","","","","","","","",""
"","","","","","html-button-response","139","543098","0.0-139.0","A42E8021F24E4274850A97DA2AB7C107","019dac65-65ec-72b5-b305-321cce97ac5a","019dac5b-243f-7307-af64-a10f53f1ef70","","931","
                <div class=""stimulus-container"">
                    <img src=""images/semantic_sequence/maintaining_a_car_semantic/maintaining_a_car_semantic_9.png"" class=""exp-image"">
                    <div class=""question-area"">
                        <p style=""font-size: 20px; font-weight: bold; margin: 0;"">Is there a person in this image?</p>
                    </div>
                </div>","0","main_experiment_trial","9","maintaining_a_car_semantic","semantic_sequence","chronological","","","","","","",""
"","","","","","html-keyboard-response","140","548112","0.0-140.0","A42E8021F24E4274850A97DA2AB7C107","019dac65-65ec-72b5-b305-321cce97ac5a","019dac5b-243f-7307-af64-a10f53f1ef70","","null","
                <div class=""stimulus-container"">
                    <img src=""images/semantic_sequence/maintaining_a_car_semantic/maintaining_a_car_semantic_ten.png"" class=""exp-image"">
                    <div class=""question-area""></div> 
                </div>","null","","","","","","","","","","","",""
"","","","","","html-button-response","141","549233","0.0-141.0","A42E8021F24E4274850A97DA2AB7C107","019dac65-65ec-72b5-b305-321cce97ac5a","019dac5b-243f-7307-af64-a10f53f1ef70","","1118","
                <div class=""stimulus-container"">
                    <img src=""images/semantic_sequence/maintaining_a_car_semantic/maintaining_a_car_semantic_ten.png"" class=""exp-image"">
                    <div class=""question-area"">
                        <p style=""font-size: 20px; font-weight: bold; margin: 0;"">Is there a person in this image?</p>
                    </div>
                </div>","0","main_experiment_trial","ten","maintaining_a_car_semantic","semantic_sequence","chronological","","","","","","",""
"","","","","","html-keyboard-response","142","554238","0.0-142.0","A42E8021F24E4274850A97DA2AB7C107","019dac65-65ec-72b5-b305-321cce97ac5a","019dac5b-243f-7307-af64-a10f53f1ef70","","null","<div style=""background-color: white; width: 100vw; height: 100vh;""></div>","null","","","","","","","","","","","",""
"","","","","","html-keyboard-response","143","559240","0.0-143.0","A42E8021F24E4274850A97DA2AB7C107","019dac65-65ec-72b5-b305-321cce97ac5a","019dac5b-243f-7307-af64-a10f53f1ef70","","null","
                <div class=""stimulus-container"">
                    <img src=""images/semantic_sequence/physical_activity_semantic/physical_activity_semantic_1.png"" class=""exp-image"">
                    <div class=""question-area""></div> 
                </div>","null","","","","","","","","","","","",""
"","","","","","html-button-response","144","559880","0.0-144.0","A42E8021F24E4274850A97DA2AB7C107","019dac65-65ec-72b5-b305-321cce97ac5a","019dac5b-243f-7307-af64-a10f53f1ef70","","639","
                <div class=""stimulus-container"">
                    <img src=""images/semantic_sequence/physical_activity_semantic/physical_activity_semantic_1.png"" class=""exp-image"">
                    <div class=""question-area"">
                        <p style=""font-size: 20px; font-weight: bold; margin: 0;"">Is there a person in this image?</p>
                    </div>
                </div>","0","main_experiment_trial","1","physical_activity_semantic","semantic_sequence","chronological","","","","","","",""
"","","","","","html-keyboard-response","145","564894","0.0-145.0","A42E8021F24E4274850A97DA2AB7C107","019dac65-65ec-72b5-b305-321cce97ac5a","019dac5b-243f-7307-af64-a10f53f1ef70","","null","
                <div class=""stimulus-container"">
                    <img src=""images/semantic_sequence/physical_activity_semantic/physical_activity_semantic_2.png"" class=""exp-image"">
                    <div class=""question-area""></div> 
                </div>","null","","","","","","","","","","","",""
"","","","","","html-button-response","146","565890","0.0-146.0","A42E8021F24E4274850A97DA2AB7C107","019dac65-65ec-72b5-b305-321cce97ac5a","019dac5b-243f-7307-af64-a10f53f1ef70","","994","
                <div class=""stimulus-container"">
                    <img src=""images/semantic_sequence/physical_activity_semantic/physical_activity_semantic_2.png"" class=""exp-image"">
                    <div class=""question-area"">
                        <p style=""font-size: 20px; font-weight: bold; margin: 0;"">Is there a person in this image?</p>
                    </div>
                </div>","0","main_experiment_trial","2","physical_activity_semantic","semantic_sequence","chronological","","","","","","",""
"","","","","","html-keyboard-response","147","570904","0.0-147.0","A42E8021F24E4274850A97DA2AB7C107","019dac65-65ec-72b5-b305-321cce97ac5a","019dac5b-243f-7307-af64-a10f53f1ef70","","null","
                <div class=""stimulus-container"">
                    <img src=""images/semantic_sequence/physical_activity_semantic/physical_activity_semantic_3.png"" class=""exp-image"">
                    <div class=""question-area""></div> 
                </div>","null","","","","","","","","","","","",""
"","","","","","html-button-response","148","571674","0.0-148.0","A42E8021F24E4274850A97DA2AB7C107","019dac65-65ec-72b5-b305-321cce97ac5a","019dac5b-243f-7307-af64-a10f53f1ef70","","767","
                <div class=""stimulus-container"">
                    <img src=""images/semantic_sequence/physical_activity_semantic/physical_activity_semantic_3.png"" class=""exp-image"">
                    <div class=""question-area"">
                        <p style=""font-size: 20px; font-weight: bold; margin: 0;"">Is there a person in this image?</p>
                    </div>
                </div>","0","main_experiment_trial","3","physical_activity_semantic","semantic_sequence","chronological","","","","","","",""
"","","","","","html-keyboard-response","149","576690","0.0-149.0","A42E8021F24E4274850A97DA2AB7C107","019dac65-65ec-72b5-b305-321cce97ac5a","019dac5b-243f-7307-af64-a10f53f1ef70","","null","
                <div class=""stimulus-container"">
                    <img src=""images/semantic_sequence/physical_activity_semantic/physical_activity_semantic_4.png"" class=""exp-image"">
                    <div class=""question-area""></div> 
                </div>","null","","","","","","","","","","","",""
"","","","","","html-button-response","150","577337","0.0-150.0","A42E8021F24E4274850A97DA2AB7C107","019dac65-65ec-72b5-b305-321cce97ac5a","019dac5b-243f-7307-af64-a10f53f1ef70","","645","
                <div class=""stimulus-container"">
                    <img src=""images/semantic_sequence/physical_activity_semantic/physical_activity_semantic_4.png"" class=""exp-image"">
                    <div class=""question-area"">
                        <p style=""font-size: 20px; font-weight: bold; margin: 0;"">Is there a person in this image?</p>
                    </div>
                </div>","0","main_experiment_trial","4","physical_activity_semantic","semantic_sequence","chronological","","","","","","",""
"","","","","","html-keyboard-response","151","582346","0.0-151.0","A42E8021F24E4274850A97DA2AB7C107","019dac65-65ec-72b5-b305-321cce97ac5a","019dac5b-243f-7307-af64-a10f53f1ef70","","null","
                <div class=""stimulus-container"">
                    <img src=""images/semantic_sequence/physical_activity_semantic/physical_activity_semantic_5.png"" class=""exp-image"">
                    <div class=""question-area""></div> 
                </div>","null","","","","","","","","","","","",""
"","","","","","html-button-response","152","582972","0.0-152.0","A42E8021F24E4274850A97DA2AB7C107","019dac65-65ec-72b5-b305-321cce97ac5a","019dac5b-243f-7307-af64-a10f53f1ef70","","624","
                <div class=""stimulus-container"">
                    <img src=""images/semantic_sequence/physical_activity_semantic/physical_activity_semantic_5.png"" class=""exp-image"">
                    <div class=""question-area"">
                        <p style=""font-size: 20px; font-weight: bold; margin: 0;"">Is there a person in this image?</p>
                    </div>
                </div>","0","main_experiment_trial","5","physical_activity_semantic","semantic_sequence","chronological","","","","","","",""
"","","","","","html-keyboard-response","153","587975","0.0-153.0","A42E8021F24E4274850A97DA2AB7C107","019dac65-65ec-72b5-b305-321cce97ac5a","019dac5b-243f-7307-af64-a10f53f1ef70","","null","
                <div class=""stimulus-container"">
                    <img src=""images/semantic_sequence/physical_activity_semantic/physical_activity_semantic_6.png"" class=""exp-image"">
                    <div class=""question-area""></div> 
                </div>","null","","","","","","","","","","","",""
"","","","","","html-button-response","154","588647","0.0-154.0","A42E8021F24E4274850A97DA2AB7C107","019dac65-65ec-72b5-b305-321cce97ac5a","019dac5b-243f-7307-af64-a10f53f1ef70","","671","
                <div class=""stimulus-container"">
                    <img src=""images/semantic_sequence/physical_activity_semantic/physical_activity_semantic_6.png"" class=""exp-image"">
                    <div class=""question-area"">
                        <p style=""font-size: 20px; font-weight: bold; margin: 0;"">Is there a person in this image?</p>
                    </div>
                </div>","0","main_experiment_trial","6","physical_activity_semantic","semantic_sequence","chronological","","","","","","",""
"","","","","","html-keyboard-response","155","593649","0.0-155.0","A42E8021F24E4274850A97DA2AB7C107","019dac65-65ec-72b5-b305-321cce97ac5a","019dac5b-243f-7307-af64-a10f53f1ef70","","null","
                <div class=""stimulus-container"">
                    <img src=""images/semantic_sequence/physical_activity_semantic/physical_activity_semantic_7.png"" class=""exp-image"">
                    <div class=""question-area""></div> 
                </div>","null","","","","","","","","","","","",""
"","","","","","html-button-response","156","594629","0.0-156.0","A42E8021F24E4274850A97DA2AB7C107","019dac65-65ec-72b5-b305-321cce97ac5a","019dac5b-243f-7307-af64-a10f53f1ef70","","979","
                <div class=""stimulus-container"">
                    <img src=""images/semantic_sequence/physical_activity_semantic/physical_activity_semantic_7.png"" class=""exp-image"">
                    <div class=""question-area"">
                        <p style=""font-size: 20px; font-weight: bold; margin: 0;"">Is there a person in this image?</p>
                    </div>
                </div>","0","main_experiment_trial","7","physical_activity_semantic","semantic_sequence","chronological","","","","","","",""
"","","","","","html-keyboard-response","157","599630","0.0-157.0","A42E8021F24E4274850A97DA2AB7C107","019dac65-65ec-72b5-b305-321cce97ac5a","019dac5b-243f-7307-af64-a10f53f1ef70","","null","
                <div class=""stimulus-container"">
                    <img src=""images/semantic_sequence/physical_activity_semantic/physical_activity_semantic_8.png"" class=""exp-image"">
                    <div class=""question-area""></div> 
                </div>","null","","","","","","","","","","","",""
"","","","","","html-button-response","158","601240","0.0-158.0","A42E8021F24E4274850A97DA2AB7C107","019dac65-65ec-72b5-b305-321cce97ac5a","019dac5b-243f-7307-af64-a10f53f1ef70","","1609","
                <div class=""stimulus-container"">
                    <img src=""images/semantic_sequence/physical_activity_semantic/physical_activity_semantic_8.png"" class=""exp-image"">
                    <div class=""question-area"">
                        <p style=""font-size: 20px; font-weight: bold; margin: 0;"">Is there a person in this image?</p>
                    </div>
                </div>","0","main_experiment_trial","8","physical_activity_semantic","semantic_sequence","chronological","","","","","","",""
"","","","","","html-keyboard-response","159","606246","0.0-159.0","A42E8021F24E4274850A97DA2AB7C107","019dac65-65ec-72b5-b305-321cce97ac5a","019dac5b-243f-7307-af64-a10f53f1ef70","","null","
                <div class=""stimulus-container"">
                    <img src=""images/semantic_sequence/physical_activity_semantic/physical_activity_semantic_9.png"" class=""exp-image"">
                    <div class=""question-area""></div> 
                </div>","null","","","","","","","","","","","",""
"","","","","","html-button-response","160","606993","0.0-160.0","A42E8021F24E4274850A97DA2AB7C107","019dac65-65ec-72b5-b305-321cce97ac5a","019dac5b-243f-7307-af64-a10f53f1ef70","","745","
                <div class=""stimulus-container"">
                    <img src=""images/semantic_sequence/physical_activity_semantic/physical_activity_semantic_9.png"" class=""exp-image"">
                    <div class=""question-area"">
                        <p style=""font-size: 20px; font-weight: bold; margin: 0;"">Is there a person in this image?</p>
                    </div>
                </div>","0","main_experiment_trial","9","physical_activity_semantic","semantic_sequence","chronological","","","","","","",""
"","","","","","html-keyboard-response","161","611996","0.0-161.0","A42E8021F24E4274850A97DA2AB7C107","019dac65-65ec-72b5-b305-321cce97ac5a","019dac5b-243f-7307-af64-a10f53f1ef70","","null","
                <div class=""stimulus-container"">
                    <img src=""images/semantic_sequence/physical_activity_semantic/physical_activity_semantic_ten.png"" class=""exp-image"">
                    <div class=""question-area""></div> 
                </div>","null","","","","","","","","","","","",""
"","","","","","html-button-response","162","612665","0.0-162.0","A42E8021F24E4274850A97DA2AB7C107","019dac65-65ec-72b5-b305-321cce97ac5a","019dac5b-243f-7307-af64-a10f53f1ef70","","666","
                <div class=""stimulus-container"">
                    <img src=""images/semantic_sequence/physical_activity_semantic/physical_activity_semantic_ten.png"" class=""exp-image"">
                    <div class=""question-area"">
                        <p style=""font-size: 20px; font-weight: bold; margin: 0;"">Is there a person in this image?</p>
                    </div>
                </div>","0","main_experiment_trial","ten","physical_activity_semantic","semantic_sequence","chronological","","","","","","",""
"","","","","","html-keyboard-response","163","617678","0.0-163.0","A42E8021F24E4274850A97DA2AB7C107","019dac65-65ec-72b5-b305-321cce97ac5a","019dac5b-243f-7307-af64-a10f53f1ef70","","null","<div style=""background-color: white; width: 100vw; height: 100vh;""></div>","null","","","","","","","","","","","",""
"","","","","","html-keyboard-response","164","622681","0.0-164.0","A42E8021F24E4274850A97DA2AB7C107","019dac65-65ec-72b5-b305-321cce97ac5a","019dac5b-243f-7307-af64-a10f53f1ef70","","null","
                <div class=""stimulus-container"">
                    <img src=""images/semantic_sequence/self_care_activities_semantic/self_care_activities_semantic_1.png"" class=""exp-image"">
                    <div class=""question-area""></div> 
                </div>","null","","","","","","","","","","","",""
"","","","","","html-button-response","165","623322","0.0-165.0","A42E8021F24E4274850A97DA2AB7C107","019dac65-65ec-72b5-b305-321cce97ac5a","019dac5b-243f-7307-af64-a10f53f1ef70","","639","
                <div class=""stimulus-container"">
                    <img src=""images/semantic_sequence/self_care_activities_semantic/self_care_activities_semantic_1.png"" class=""exp-image"">
                    <div class=""question-area"">
                        <p style=""font-size: 20px; font-weight: bold; margin: 0;"">Is there a person in this image?</p>
                    </div>
                </div>","0","main_experiment_trial","1","self_care_activities_semantic","semantic_sequence","chronological","","","","","","",""
"","","","","","html-keyboard-response","166","628337","0.0-166.0","A42E8021F24E4274850A97DA2AB7C107","019dac65-65ec-72b5-b305-321cce97ac5a","019dac5b-243f-7307-af64-a10f53f1ef70","","null","
                <div class=""stimulus-container"">
                    <img src=""images/semantic_sequence/self_care_activities_semantic/self_care_activities_semantic_2.png"" class=""exp-image"">
                    <div class=""question-area""></div> 
                </div>","null","","","","","","","","","","","",""
"","","","","","html-button-response","167","628992","0.0-167.0","A42E8021F24E4274850A97DA2AB7C107","019dac65-65ec-72b5-b305-321cce97ac5a","019dac5b-243f-7307-af64-a10f53f1ef70","","654","
                <div class=""stimulus-container"">
                    <img src=""images/semantic_sequence/self_care_activities_semantic/self_care_activities_semantic_2.png"" class=""exp-image"">
                    <div class=""question-area"">
                        <p style=""font-size: 20px; font-weight: bold; margin: 0;"">Is there a person in this image?</p>
                    </div>
                </div>","0","main_experiment_trial","2","self_care_activities_semantic","semantic_sequence","chronological","","","","","","",""
"","","","","","html-keyboard-response","168","633994","0.0-168.0","A42E8021F24E4274850A97DA2AB7C107","019dac65-65ec-72b5-b305-321cce97ac5a","019dac5b-243f-7307-af64-a10f53f1ef70","","null","
                <div class=""stimulus-container"">
                    <img src=""images/semantic_sequence/self_care_activities_semantic/self_care_activities_semantic_3.png"" class=""exp-image"">
                    <div class=""question-area""></div> 
                </div>","null","","","","","","","","","","","",""
"","","","","","html-button-response","169","634768","0.0-169.0","A42E8021F24E4274850A97DA2AB7C107","019dac65-65ec-72b5-b305-321cce97ac5a","019dac5b-243f-7307-af64-a10f53f1ef70","","773","
                <div class=""stimulus-container"">
                    <img src=""images/semantic_sequence/self_care_activities_semantic/self_care_activities_semantic_3.png"" class=""exp-image"">
                    <div class=""question-area"">
                        <p style=""font-size: 20px; font-weight: bold; margin: 0;"">Is there a person in this image?</p>
                    </div>
                </div>","0","main_experiment_trial","3","self_care_activities_semantic","semantic_sequence","chronological","","","","","","",""
"","","","","","html-keyboard-response","170","639777","0.0-170.0","A42E8021F24E4274850A97DA2AB7C107","019dac65-65ec-72b5-b305-321cce97ac5a","019dac5b-243f-7307-af64-a10f53f1ef70","","null","
                <div class=""stimulus-container"">
                    <img src=""images/semantic_sequence/self_care_activities_semantic/self_care_activities_semantic_4.png"" class=""exp-image"">
                    <div class=""question-area""></div> 
                </div>","null","","","","","","","","","","","",""
"","","","","","html-button-response","171","640469","0.0-171.0","A42E8021F24E4274850A97DA2AB7C107","019dac65-65ec-72b5-b305-321cce97ac5a","019dac5b-243f-7307-af64-a10f53f1ef70","","691","
                <div class=""stimulus-container"">
                    <img src=""images/semantic_sequence/self_care_activities_semantic/self_care_activities_semantic_4.png"" class=""exp-image"">
                    <div class=""question-area"">
                        <p style=""font-size: 20px; font-weight: bold; margin: 0;"">Is there a person in this image?</p>
                    </div>
                </div>","0","main_experiment_trial","4","self_care_activities_semantic","semantic_sequence","chronological","","","","","","",""
"","","","","","html-keyboard-response","172","645471","0.0-172.0","A42E8021F24E4274850A97DA2AB7C107","019dac65-65ec-72b5-b305-321cce97ac5a","019dac5b-243f-7307-af64-a10f53f1ef70","","null","
                <div class=""stimulus-container"">
                    <img src=""images/semantic_sequence/self_care_activities_semantic/self_care_activities_semantic_5.png"" class=""exp-image"">
                    <div class=""question-area""></div> 
                </div>","null","","","","","","","","","","","",""
"","","","","","html-button-response","173","646118","0.0-173.0","A42E8021F24E4274850A97DA2AB7C107","019dac65-65ec-72b5-b305-321cce97ac5a","019dac5b-243f-7307-af64-a10f53f1ef70","","645","
                <div class=""stimulus-container"">
                    <img src=""images/semantic_sequence/self_care_activities_semantic/self_care_activities_semantic_5.png"" class=""exp-image"">
                    <div class=""question-area"">
                        <p style=""font-size: 20px; font-weight: bold; margin: 0;"">Is there a person in this image?</p>
                    </div>
                </div>","0","main_experiment_trial","5","self_care_activities_semantic","semantic_sequence","chronological","","","","","","",""
"","","","","","html-keyboard-response","174","651125","0.0-174.0","A42E8021F24E4274850A97DA2AB7C107","019dac65-65ec-72b5-b305-321cce97ac5a","019dac5b-243f-7307-af64-a10f53f1ef70","","null","
                <div class=""stimulus-container"">
                    <img src=""images/semantic_sequence/self_care_activities_semantic/self_care_activities_semantic_6.png"" class=""exp-image"">
