"success","timeout","failed_images","failed_audio","failed_video","trial_type","trial_index","time_elapsed","internal_node_id","subject_id","study_id","session_id","view_history","rt","stimulus","response","task","image_index","folder","sequence_type","presentation_order","valuable_image_index","reward_type","distance_from_x","target_X","chosen_image_index","is_x_plus_dist","correct_choice"
"true","false","[]","[]","[]","preload","0","7304","0.0-0.0","9B0988A23ECB48B99EAE45B12C5DAED8","019d6be0-0507-7682-915c-b89917a1f1e5","019d6b6d-d11f-7233-9b95-7a424dbf389f","","","","","","","","","","","","","","","",""
"","","","","","instructions","1","9766","0.0-1.0","9B0988A23ECB48B99EAE45B12C5DAED8","019d6be0-0507-7682-915c-b89917a1f1e5","019d6b6d-d11f-7233-9b95-7a424dbf389f","[{""page_index"":0,""viewing_time"":2461}]","2461","","","","","","","","","","","","","",""
"","","","","","instructions","2","13375","0.0-2.0","9B0988A23ECB48B99EAE45B12C5DAED8","019d6be0-0507-7682-915c-b89917a1f1e5","019d6b6d-d11f-7233-9b95-7a424dbf389f","[{""page_index"":0,""viewing_time"":3609}]","3609","","","","","","","","","","","","","",""
"true","","","","","fullscreen","3","16888","0.0-3.0","9B0988A23ECB48B99EAE45B12C5DAED8","019d6be0-0507-7682-915c-b89917a1f1e5","019d6b6d-d11f-7233-9b95-7a424dbf389f","","2498","","","","","","","","","","","","","",""
"","","","","","instructions","4","27219","0.0-4.0","9B0988A23ECB48B99EAE45B12C5DAED8","019d6be0-0507-7682-915c-b89917a1f1e5","019d6b6d-d11f-7233-9b95-7a424dbf389f","[{""page_index"":0,""viewing_time"":10329}]","10330","","","","","","","","","","","","","",""
"","","","","","instructions","5","39876","0.0-5.0","9B0988A23ECB48B99EAE45B12C5DAED8","019d6be0-0507-7682-915c-b89917a1f1e5","019d6b6d-d11f-7233-9b95-7a424dbf389f","[{""page_index"":0,""viewing_time"":12655}]","12655","","","","","","","","","","","","","",""
"","","","","","html-keyboard-response","6","43878","0.0-6.0","9B0988A23ECB48B99EAE45B12C5DAED8","019d6be0-0507-7682-915c-b89917a1f1e5","019d6b6d-d11f-7233-9b95-7a424dbf389f","","null","
            <div class=""stimulus-container"">
                <img src=""images/instructions/movie_1.png"" class=""exp-image"">
                <div class=""question-area""></div> 
            </div>","null","","","","","","","","","","","",""
"","","","","","html-button-response","7","46121","0.0-7.0","9B0988A23ECB48B99EAE45B12C5DAED8","019d6be0-0507-7682-915c-b89917a1f1e5","019d6b6d-d11f-7233-9b95-7a424dbf389f","","2241","
            <div class=""stimulus-container"">
                <img src=""images/instructions/movie_1.png"" class=""exp-image"">
                <div class=""question-area"">
                    <p style=""font-size: 20px; font-weight: bold; margin: 0;"">Was there a person in this image?</p>
                </div>
            </div>","0","example_question","1","","","","","","","","","",""
"","","","","","html-keyboard-response","8","50128","0.0-8.0","9B0988A23ECB48B99EAE45B12C5DAED8","019d6be0-0507-7682-915c-b89917a1f1e5","019d6b6d-d11f-7233-9b95-7a424dbf389f","","null","
            <div class=""stimulus-container"">
                <img src=""images/instructions/movie_2.png"" class=""exp-image"">
                <div class=""question-area""></div> 
            </div>","null","","","","","","","","","","","",""
"","","","","","html-button-response","9","52124","0.0-9.0","9B0988A23ECB48B99EAE45B12C5DAED8","019d6be0-0507-7682-915c-b89917a1f1e5","019d6b6d-d11f-7233-9b95-7a424dbf389f","","1994","
            <div class=""stimulus-container"">
                <img src=""images/instructions/movie_2.png"" class=""exp-image"">
                <div class=""question-area"">
                    <p style=""font-size: 20px; font-weight: bold; margin: 0;"">Was there a person in this image?</p>
                </div>
            </div>","0","example_question","2","","","","","","","","","",""
"","","","","","html-keyboard-response","10","56127","0.0-10.0","9B0988A23ECB48B99EAE45B12C5DAED8","019d6be0-0507-7682-915c-b89917a1f1e5","019d6b6d-d11f-7233-9b95-7a424dbf389f","","null","
            <div class=""stimulus-container"">
                <img src=""images/instructions/movie_3.png"" class=""exp-image"">
                <div class=""question-area""></div> 
            </div>","null","","","","","","","","","","","",""
"","","","","","html-button-response","11","57628","0.0-11.0","9B0988A23ECB48B99EAE45B12C5DAED8","019d6be0-0507-7682-915c-b89917a1f1e5","019d6b6d-d11f-7233-9b95-7a424dbf389f","","1499","
            <div class=""stimulus-container"">
                <img src=""images/instructions/movie_3.png"" class=""exp-image"">
                <div class=""question-area"">
                    <p style=""font-size: 20px; font-weight: bold; margin: 0;"">Was there a person in this image?</p>
                </div>
            </div>","0","example_question","3","","","","","","","","","",""
"","","","","","html-keyboard-response","12","61638","0.0-12.0","9B0988A23ECB48B99EAE45B12C5DAED8","019d6be0-0507-7682-915c-b89917a1f1e5","019d6b6d-d11f-7233-9b95-7a424dbf389f","","null","
            <div class=""stimulus-container"">
                <img src=""images/instructions/movie_4.png"" class=""exp-image"">
                <div class=""question-area""></div> 
            </div>","null","","","","","","","","","","","",""
"","","","","","html-button-response","13","63355","0.0-13.0","9B0988A23ECB48B99EAE45B12C5DAED8","019d6be0-0507-7682-915c-b89917a1f1e5","019d6b6d-d11f-7233-9b95-7a424dbf389f","","1716","
            <div class=""stimulus-container"">
                <img src=""images/instructions/movie_4.png"" class=""exp-image"">
                <div class=""question-area"">
                    <p style=""font-size: 20px; font-weight: bold; margin: 0;"">Was there a person in this image?</p>
                </div>
            </div>","0","example_question","4","","","","","","","","","",""
"","","","","","instructions","14","65163","0.0-14.0","9B0988A23ECB48B99EAE45B12C5DAED8","019d6be0-0507-7682-915c-b89917a1f1e5","019d6b6d-d11f-7233-9b95-7a424dbf389f","[{""page_index"":0,""viewing_time"":1807}]","1807","","","","","","","","","","","","","",""
"","","","","","instructions","15","75187","0.0-15.0","9B0988A23ECB48B99EAE45B12C5DAED8","019d6be0-0507-7682-915c-b89917a1f1e5","019d6b6d-d11f-7233-9b95-7a424dbf389f","[{""page_index"":0,""viewing_time"":10023}]","10023","","","","","","","","","","","","","",""
"","","","","","html-keyboard-response","16","80201","0.0-16.0","9B0988A23ECB48B99EAE45B12C5DAED8","019d6be0-0507-7682-915c-b89917a1f1e5","019d6b6d-d11f-7233-9b95-7a424dbf389f","","null","<div style=""background-color: white; width: 100vw; height: 100vh;""></div>","null","","","","","","","","","","","",""
"","","","","","html-keyboard-response","17","85215","0.0-17.0","9B0988A23ECB48B99EAE45B12C5DAED8","019d6be0-0507-7682-915c-b89917a1f1e5","019d6b6d-d11f-7233-9b95-7a424dbf389f","","null","
                <div class=""stimulus-container"">
                    <img src=""images/causal_sequence/package_causal/package_causal_1.png"" class=""exp-image"">
                    <div class=""question-area""></div> 
                </div>","null","","","","","","","","","","","",""
"","","","","","html-button-response","18","86485","0.0-18.0","9B0988A23ECB48B99EAE45B12C5DAED8","019d6be0-0507-7682-915c-b89917a1f1e5","019d6b6d-d11f-7233-9b95-7a424dbf389f","","1269","
                <div class=""stimulus-container"">
                    <img src=""images/causal_sequence/package_causal/package_causal_1.png"" class=""exp-image"">
                    <div class=""question-area"">
                        <p style=""font-size: 20px; font-weight: bold; margin: 0;"">Is there a person in this image?</p>
                    </div>
                </div>","0","main_experiment_trial","1","package_causal","causal_sequence","chronological","","","","","","",""
"","","","","","html-keyboard-response","19","91493","0.0-19.0","9B0988A23ECB48B99EAE45B12C5DAED8","019d6be0-0507-7682-915c-b89917a1f1e5","019d6b6d-d11f-7233-9b95-7a424dbf389f","","null","
                <div class=""stimulus-container"">
                    <img src=""images/causal_sequence/package_causal/package_causal_2.png"" class=""exp-image"">
                    <div class=""question-area""></div> 
                </div>","null","","","","","","","","","","","",""
"","","","","","html-button-response","20","93640","0.0-20.0","9B0988A23ECB48B99EAE45B12C5DAED8","019d6be0-0507-7682-915c-b89917a1f1e5","019d6b6d-d11f-7233-9b95-7a424dbf389f","","2145","
                <div class=""stimulus-container"">
                    <img src=""images/causal_sequence/package_causal/package_causal_2.png"" class=""exp-image"">
                    <div class=""question-area"">
                        <p style=""font-size: 20px; font-weight: bold; margin: 0;"">Is there a person in this image?</p>
                    </div>
                </div>","0","main_experiment_trial","2","package_causal","causal_sequence","chronological","","","","","","",""
"","","","","","html-keyboard-response","21","98651","0.0-21.0","9B0988A23ECB48B99EAE45B12C5DAED8","019d6be0-0507-7682-915c-b89917a1f1e5","019d6b6d-d11f-7233-9b95-7a424dbf389f","","null","
                <div class=""stimulus-container"">
                    <img src=""images/causal_sequence/package_causal/package_causal_3.png"" class=""exp-image"">
                    <div class=""question-area""></div> 
                </div>","null","","","","","","","","","","","",""
"","","","","","html-button-response","22","100121","0.0-22.0","9B0988A23ECB48B99EAE45B12C5DAED8","019d6be0-0507-7682-915c-b89917a1f1e5","019d6b6d-d11f-7233-9b95-7a424dbf389f","","1469","
                <div class=""stimulus-container"">
                    <img src=""images/causal_sequence/package_causal/package_causal_3.png"" class=""exp-image"">
                    <div class=""question-area"">
                        <p style=""font-size: 20px; font-weight: bold; margin: 0;"">Is there a person in this image?</p>
                    </div>
                </div>","0","main_experiment_trial","3","package_causal","causal_sequence","chronological","","","","","","",""
"","","","","","html-keyboard-response","23","105132","0.0-23.0","9B0988A23ECB48B99EAE45B12C5DAED8","019d6be0-0507-7682-915c-b89917a1f1e5","019d6b6d-d11f-7233-9b95-7a424dbf389f","","null","
                <div class=""stimulus-container"">
                    <img src=""images/causal_sequence/package_causal/package_causal_4.png"" class=""exp-image"">
                    <div class=""question-area""></div> 
                </div>","null","","","","","","","","","","","",""
"","","","","","html-button-response","24","106351","0.0-24.0","9B0988A23ECB48B99EAE45B12C5DAED8","019d6be0-0507-7682-915c-b89917a1f1e5","019d6b6d-d11f-7233-9b95-7a424dbf389f","","1217","
                <div class=""stimulus-container"">
                    <img src=""images/causal_sequence/package_causal/package_causal_4.png"" class=""exp-image"">
                    <div class=""question-area"">
                        <p style=""font-size: 20px; font-weight: bold; margin: 0;"">Is there a person in this image?</p>
                    </div>
                </div>","1","main_experiment_trial","4","package_causal","causal_sequence","chronological","","","","","","",""
"","","","","","html-keyboard-response","25","111353","0.0-25.0","9B0988A23ECB48B99EAE45B12C5DAED8","019d6be0-0507-7682-915c-b89917a1f1e5","019d6b6d-d11f-7233-9b95-7a424dbf389f","","null","
                <div class=""stimulus-container"">
                    <img src=""images/causal_sequence/package_causal/package_causal_5.png"" class=""exp-image"">
                    <div class=""question-area""></div> 
                </div>","null","","","","","","","","","","","",""
"","","","","","html-button-response","26","112448","0.0-26.0","9B0988A23ECB48B99EAE45B12C5DAED8","019d6be0-0507-7682-915c-b89917a1f1e5","019d6b6d-d11f-7233-9b95-7a424dbf389f","","1094","
                <div class=""stimulus-container"">
                    <img src=""images/causal_sequence/package_causal/package_causal_5.png"" class=""exp-image"">
                    <div class=""question-area"">
                        <p style=""font-size: 20px; font-weight: bold; margin: 0;"">Is there a person in this image?</p>
                    </div>
                </div>","0","main_experiment_trial","5","package_causal","causal_sequence","chronological","","","","","","",""
"","","","","","html-keyboard-response","27","117463","0.0-27.0","9B0988A23ECB48B99EAE45B12C5DAED8","019d6be0-0507-7682-915c-b89917a1f1e5","019d6b6d-d11f-7233-9b95-7a424dbf389f","","null","
                <div class=""stimulus-container"">
                    <img src=""images/causal_sequence/package_causal/package_causal_6.png"" class=""exp-image"">
                    <div class=""question-area""></div> 
                </div>","null","","","","","","","","","","","",""
"","","","","","html-button-response","28","118596","0.0-28.0","9B0988A23ECB48B99EAE45B12C5DAED8","019d6be0-0507-7682-915c-b89917a1f1e5","019d6b6d-d11f-7233-9b95-7a424dbf389f","","1132","
                <div class=""stimulus-container"">
                    <img src=""images/causal_sequence/package_causal/package_causal_6.png"" class=""exp-image"">
                    <div class=""question-area"">
                        <p style=""font-size: 20px; font-weight: bold; margin: 0;"">Is there a person in this image?</p>
                    </div>
                </div>","0","main_experiment_trial","6","package_causal","causal_sequence","chronological","","","","","","",""
"","","","","","html-keyboard-response","29","123604","0.0-29.0","9B0988A23ECB48B99EAE45B12C5DAED8","019d6be0-0507-7682-915c-b89917a1f1e5","019d6b6d-d11f-7233-9b95-7a424dbf389f","","null","
                <div class=""stimulus-container"">
                    <img src=""images/causal_sequence/package_causal/package_causal_7.png"" class=""exp-image"">
                    <div class=""question-area""></div> 
                </div>","null","","","","","","","","","","","",""
"","","","","","html-button-response","30","124745","0.0-30.0","9B0988A23ECB48B99EAE45B12C5DAED8","019d6be0-0507-7682-915c-b89917a1f1e5","019d6b6d-d11f-7233-9b95-7a424dbf389f","","1139","
                <div class=""stimulus-container"">
                    <img src=""images/causal_sequence/package_causal/package_causal_7.png"" class=""exp-image"">
                    <div class=""question-area"">
                        <p style=""font-size: 20px; font-weight: bold; margin: 0;"">Is there a person in this image?</p>
                    </div>
                </div>","0","main_experiment_trial","7","package_causal","causal_sequence","chronological","","","","","","",""
"","","","","","html-keyboard-response","31","129757","0.0-31.0","9B0988A23ECB48B99EAE45B12C5DAED8","019d6be0-0507-7682-915c-b89917a1f1e5","019d6b6d-d11f-7233-9b95-7a424dbf389f","","null","
                <div class=""stimulus-container"">
                    <img src=""images/causal_sequence/package_causal/package_causal_8.png"" class=""exp-image"">
                    <div class=""question-area""></div> 
                </div>","null","","","","","","","","","","","",""
"","","","","","html-button-response","32","132578","0.0-32.0","9B0988A23ECB48B99EAE45B12C5DAED8","019d6be0-0507-7682-915c-b89917a1f1e5","019d6b6d-d11f-7233-9b95-7a424dbf389f","","2820","
                <div class=""stimulus-container"">
                    <img src=""images/causal_sequence/package_causal/package_causal_8.png"" class=""exp-image"">
                    <div class=""question-area"">
                        <p style=""font-size: 20px; font-weight: bold; margin: 0;"">Is there a person in this image?</p>
                    </div>
                </div>","0","main_experiment_trial","8","package_causal","causal_sequence","chronological","","","","","","",""
"","","","","","html-keyboard-response","33","137586","0.0-33.0","9B0988A23ECB48B99EAE45B12C5DAED8","019d6be0-0507-7682-915c-b89917a1f1e5","019d6b6d-d11f-7233-9b95-7a424dbf389f","","null","
                <div class=""stimulus-container"">
                    <img src=""images/causal_sequence/package_causal/package_causal_9.png"" class=""exp-image"">
                    <div class=""question-area""></div> 
                </div>","null","","","","","","","","","","","",""
"","","","","","html-button-response","34","138652","0.0-34.0","9B0988A23ECB48B99EAE45B12C5DAED8","019d6be0-0507-7682-915c-b89917a1f1e5","019d6b6d-d11f-7233-9b95-7a424dbf389f","","1064","
                <div class=""stimulus-container"">
                    <img src=""images/causal_sequence/package_causal/package_causal_9.png"" class=""exp-image"">
                    <div class=""question-area"">
                        <p style=""font-size: 20px; font-weight: bold; margin: 0;"">Is there a person in this image?</p>
                    </div>
                </div>","0","main_experiment_trial","9","package_causal","causal_sequence","chronological","","","","","","",""
"","","","","","html-keyboard-response","35","143660","0.0-35.0","9B0988A23ECB48B99EAE45B12C5DAED8","019d6be0-0507-7682-915c-b89917a1f1e5","019d6b6d-d11f-7233-9b95-7a424dbf389f","","null","
                <div class=""stimulus-container"">
                    <img src=""images/causal_sequence/package_causal/package_causal_ten.png"" class=""exp-image"">
                    <div class=""question-area""></div> 
                </div>","null","","","","","","","","","","","",""
"","","","","","html-button-response","36","145808","0.0-36.0","9B0988A23ECB48B99EAE45B12C5DAED8","019d6be0-0507-7682-915c-b89917a1f1e5","019d6b6d-d11f-7233-9b95-7a424dbf389f","","2145","
                <div class=""stimulus-container"">
                    <img src=""images/causal_sequence/package_causal/package_causal_ten.png"" class=""exp-image"">
                    <div class=""question-area"">
                        <p style=""font-size: 20px; font-weight: bold; margin: 0;"">Is there a person in this image?</p>
                    </div>
                </div>","0","main_experiment_trial","ten","package_causal","causal_sequence","chronological","","","","","","",""
"","","","","","html-keyboard-response","37","150812","0.0-37.0","9B0988A23ECB48B99EAE45B12C5DAED8","019d6be0-0507-7682-915c-b89917a1f1e5","019d6b6d-d11f-7233-9b95-7a424dbf389f","","null","<div style=""background-color: white; width: 100vw; height: 100vh;""></div>","null","","","","","","","","","","","",""
"","","","","","html-keyboard-response","38","155822","0.0-38.0","9B0988A23ECB48B99EAE45B12C5DAED8","019d6be0-0507-7682-915c-b89917a1f1e5","019d6b6d-d11f-7233-9b95-7a424dbf389f","","null","
                <div class=""stimulus-container"">
                    <img src=""images/causal_sequence/dog_causal/dog_causal_1.png"" class=""exp-image"">
                    <div class=""question-area""></div> 
                </div>","null","","","","","","","","","","","",""
"","","","","","html-button-response","39","157474","0.0-39.0","9B0988A23ECB48B99EAE45B12C5DAED8","019d6be0-0507-7682-915c-b89917a1f1e5","019d6b6d-d11f-7233-9b95-7a424dbf389f","","1651","
                <div class=""stimulus-container"">
                    <img src=""images/causal_sequence/dog_causal/dog_causal_1.png"" class=""exp-image"">
                    <div class=""question-area"">
                        <p style=""font-size: 20px; font-weight: bold; margin: 0;"">Is there a person in this image?</p>
                    </div>
                </div>","0","main_experiment_trial","1","dog_causal","causal_sequence","chronological","","","","","","",""
"","","","","","html-keyboard-response","40","162481","0.0-40.0","9B0988A23ECB48B99EAE45B12C5DAED8","019d6be0-0507-7682-915c-b89917a1f1e5","019d6b6d-d11f-7233-9b95-7a424dbf389f","","null","
                <div class=""stimulus-container"">
                    <img src=""images/causal_sequence/dog_causal/dog_causal_2.png"" class=""exp-image"">
                    <div class=""question-area""></div> 
                </div>","null","","","","","","","","","","","",""
"","","","","","html-button-response","41","164083","0.0-41.0","9B0988A23ECB48B99EAE45B12C5DAED8","019d6be0-0507-7682-915c-b89917a1f1e5","019d6b6d-d11f-7233-9b95-7a424dbf389f","","1600","
                <div class=""stimulus-container"">
                    <img src=""images/causal_sequence/dog_causal/dog_causal_2.png"" class=""exp-image"">
                    <div class=""question-area"">
                        <p style=""font-size: 20px; font-weight: bold; margin: 0;"">Is there a person in this image?</p>
                    </div>
                </div>","0","main_experiment_trial","2","dog_causal","causal_sequence","chronological","","","","","","",""
"","","","","","html-keyboard-response","42","169088","0.0-42.0","9B0988A23ECB48B99EAE45B12C5DAED8","019d6be0-0507-7682-915c-b89917a1f1e5","019d6b6d-d11f-7233-9b95-7a424dbf389f","","null","
                <div class=""stimulus-container"">
                    <img src=""images/causal_sequence/dog_causal/dog_causal_3.png"" class=""exp-image"">
                    <div class=""question-area""></div> 
                </div>","null","","","","","","","","","","","",""
"","","","","","html-button-response","43","170572","0.0-43.0","9B0988A23ECB48B99EAE45B12C5DAED8","019d6be0-0507-7682-915c-b89917a1f1e5","019d6b6d-d11f-7233-9b95-7a424dbf389f","","1483","
                <div class=""stimulus-container"">
                    <img src=""images/causal_sequence/dog_causal/dog_causal_3.png"" class=""exp-image"">
                    <div class=""question-area"">
                        <p style=""font-size: 20px; font-weight: bold; margin: 0;"">Is there a person in this image?</p>
                    </div>
                </div>","0","main_experiment_trial","3","dog_causal","causal_sequence","chronological","","","","","","",""
"","","","","","html-keyboard-response","44","175576","0.0-44.0","9B0988A23ECB48B99EAE45B12C5DAED8","019d6be0-0507-7682-915c-b89917a1f1e5","019d6b6d-d11f-7233-9b95-7a424dbf389f","","null","
                <div class=""stimulus-container"">
                    <img src=""images/causal_sequence/dog_causal/dog_causal_4.png"" class=""exp-image"">
                    <div class=""question-area""></div> 
                </div>","null","","","","","","","","","","","",""
"","","","","","html-button-response","45","178590","0.0-45.0","9B0988A23ECB48B99EAE45B12C5DAED8","019d6be0-0507-7682-915c-b89917a1f1e5","019d6b6d-d11f-7233-9b95-7a424dbf389f","","null","
                <div class=""stimulus-container"">
                    <img src=""images/causal_sequence/dog_causal/dog_causal_4.png"" class=""exp-image"">
                    <div class=""question-area"">
                        <p style=""font-size: 20px; font-weight: bold; margin: 0;"">Is there a person in this image?</p>
                    </div>
                </div>","null","main_experiment_trial","4","dog_causal","causal_sequence","chronological","","","","","","",""
"","","","","","html-keyboard-response","46","183595","0.0-46.0","9B0988A23ECB48B99EAE45B12C5DAED8","019d6be0-0507-7682-915c-b89917a1f1e5","019d6b6d-d11f-7233-9b95-7a424dbf389f","","null","
                <div class=""stimulus-container"">
                    <img src=""images/causal_sequence/dog_causal/dog_causal_5.png"" class=""exp-image"">
                    <div class=""question-area""></div> 
                </div>","null","","","","","","","","","","","",""
"","","","","","html-button-response","47","184758","0.0-47.0","9B0988A23ECB48B99EAE45B12C5DAED8","019d6be0-0507-7682-915c-b89917a1f1e5","019d6b6d-d11f-7233-9b95-7a424dbf389f","","1161","
                <div class=""stimulus-container"">
                    <img src=""images/causal_sequence/dog_causal/dog_causal_5.png"" class=""exp-image"">
                    <div class=""question-area"">
                        <p style=""font-size: 20px; font-weight: bold; margin: 0;"">Is there a person in this image?</p>
                    </div>
                </div>","0","main_experiment_trial","5","dog_causal","causal_sequence","chronological","","","","","","",""
"","","","","","html-keyboard-response","48","189766","0.0-48.0","9B0988A23ECB48B99EAE45B12C5DAED8","019d6be0-0507-7682-915c-b89917a1f1e5","019d6b6d-d11f-7233-9b95-7a424dbf389f","","null","
                <div class=""stimulus-container"">
                    <img src=""images/causal_sequence/dog_causal/dog_causal_6.png"" class=""exp-image"">
                    <div class=""question-area""></div> 
                </div>","null","","","","","","","","","","","",""
"","","","","","html-button-response","49","191125","0.0-49.0","9B0988A23ECB48B99EAE45B12C5DAED8","019d6be0-0507-7682-915c-b89917a1f1e5","019d6b6d-d11f-7233-9b95-7a424dbf389f","","1358","
                <div class=""stimulus-container"">
                    <img src=""images/causal_sequence/dog_causal/dog_causal_6.png"" class=""exp-image"">
                    <div class=""question-area"">
                        <p style=""font-size: 20px; font-weight: bold; margin: 0;"">Is there a person in this image?</p>
                    </div>
                </div>","0","main_experiment_trial","6","dog_causal","causal_sequence","chronological","","","","","","",""
"","","","","","html-keyboard-response","50","196140","0.0-50.0","9B0988A23ECB48B99EAE45B12C5DAED8","019d6be0-0507-7682-915c-b89917a1f1e5","019d6b6d-d11f-7233-9b95-7a424dbf389f","","null","
                <div class=""stimulus-container"">
                    <img src=""images/causal_sequence/dog_causal/dog_causal_7.png"" class=""exp-image"">
                    <div class=""question-area""></div> 
                </div>","null","","","","","","","","","","","",""
"","","","","","html-button-response","51","197054","0.0-51.0","9B0988A23ECB48B99EAE45B12C5DAED8","019d6be0-0507-7682-915c-b89917a1f1e5","019d6b6d-d11f-7233-9b95-7a424dbf389f","","914","
                <div class=""stimulus-container"">
                    <img src=""images/causal_sequence/dog_causal/dog_causal_7.png"" class=""exp-image"">
                    <div class=""question-area"">
                        <p style=""font-size: 20px; font-weight: bold; margin: 0;"">Is there a person in this image?</p>
                    </div>
                </div>","0","main_experiment_trial","7","dog_causal","causal_sequence","chronological","","","","","","",""
"","","","","","html-keyboard-response","52","202060","0.0-52.0","9B0988A23ECB48B99EAE45B12C5DAED8","019d6be0-0507-7682-915c-b89917a1f1e5","019d6b6d-d11f-7233-9b95-7a424dbf389f","","null","
                <div class=""stimulus-container"">
                    <img src=""images/causal_sequence/dog_causal/dog_causal_8.png"" class=""exp-image"">
                    <div class=""question-area""></div> 
                </div>","null","","","","","","","","","","","",""
"","","","","","html-button-response","53","203362","0.0-53.0","9B0988A23ECB48B99EAE45B12C5DAED8","019d6be0-0507-7682-915c-b89917a1f1e5","019d6b6d-d11f-7233-9b95-7a424dbf389f","","1301","
                <div class=""stimulus-container"">
                    <img src=""images/causal_sequence/dog_causal/dog_causal_8.png"" class=""exp-image"">
                    <div class=""question-area"">
                        <p style=""font-size: 20px; font-weight: bold; margin: 0;"">Is there a person in this image?</p>
                    </div>
                </div>","0","main_experiment_trial","8","dog_causal","causal_sequence","chronological","","","","","","",""
"","","","","","html-keyboard-response","54","208369","0.0-54.0","9B0988A23ECB48B99EAE45B12C5DAED8","019d6be0-0507-7682-915c-b89917a1f1e5","019d6b6d-d11f-7233-9b95-7a424dbf389f","","null","
                <div class=""stimulus-container"">
                    <img src=""images/causal_sequence/dog_causal/dog_causal_9.png"" class=""exp-image"">
                    <div class=""question-area""></div> 
                </div>","null","","","","","","","","","","","",""
"","","","","","html-button-response","55","209314","0.0-55.0","9B0988A23ECB48B99EAE45B12C5DAED8","019d6be0-0507-7682-915c-b89917a1f1e5","019d6b6d-d11f-7233-9b95-7a424dbf389f","","943","
                <div class=""stimulus-container"">
                    <img src=""images/causal_sequence/dog_causal/dog_causal_9.png"" class=""exp-image"">
                    <div class=""question-area"">
                        <p style=""font-size: 20px; font-weight: bold; margin: 0;"">Is there a person in this image?</p>
                    </div>
                </div>","0","main_experiment_trial","9","dog_causal","causal_sequence","chronological","","","","","","",""
"","","","","","html-keyboard-response","56","214320","0.0-56.0","9B0988A23ECB48B99EAE45B12C5DAED8","019d6be0-0507-7682-915c-b89917a1f1e5","019d6b6d-d11f-7233-9b95-7a424dbf389f","","null","
                <div class=""stimulus-container"">
                    <img src=""images/causal_sequence/dog_causal/dog_causal_ten.png"" class=""exp-image"">
                    <div class=""question-area""></div> 
                </div>","null","","","","","","","","","","","",""
"","","","","","html-button-response","57","215267","0.0-57.0","9B0988A23ECB48B99EAE45B12C5DAED8","019d6be0-0507-7682-915c-b89917a1f1e5","019d6b6d-d11f-7233-9b95-7a424dbf389f","","945","
                <div class=""stimulus-container"">
                    <img src=""images/causal_sequence/dog_causal/dog_causal_ten.png"" class=""exp-image"">
                    <div class=""question-area"">
                        <p style=""font-size: 20px; font-weight: bold; margin: 0;"">Is there a person in this image?</p>
                    </div>
                </div>","0","main_experiment_trial","ten","dog_causal","causal_sequence","chronological","","","","","","",""
"","","","","","html-keyboard-response","58","220268","0.0-58.0","9B0988A23ECB48B99EAE45B12C5DAED8","019d6be0-0507-7682-915c-b89917a1f1e5","019d6b6d-d11f-7233-9b95-7a424dbf389f","","null","<div style=""background-color: white; width: 100vw; height: 100vh;""></div>","null","","","","","","","","","","","",""
"","","","","","html-keyboard-response","59","225278","0.0-59.0","9B0988A23ECB48B99EAE45B12C5DAED8","019d6be0-0507-7682-915c-b89917a1f1e5","019d6b6d-d11f-7233-9b95-7a424dbf389f","","null","
                <div class=""stimulus-container"">
                    <img src=""semantic_sequence_notimeline/fruits_semantic/fruits_semantic_1.png"" class=""exp-image"">
                    <div class=""question-area""></div> 
                </div>","null","","","","","","","","","","","",""
"","","","","","html-button-response","60","226415","0.0-60.0","9B0988A23ECB48B99EAE45B12C5DAED8","019d6be0-0507-7682-915c-b89917a1f1e5","019d6b6d-d11f-7233-9b95-7a424dbf389f","","1136","
                <div class=""stimulus-container"">
                    <img src=""semantic_sequence_notimeline/fruits_semantic/fruits_semantic_1.png"" class=""exp-image"">
                    <div class=""question-area"">
                        <p style=""font-size: 20px; font-weight: bold; margin: 0;"">Is there a person in this image?</p>
                    </div>
                </div>","1","main_experiment_trial","1","fruits_semantic","semantic_sequence_notimeline","chronological","","","","","","",""
"","","","","","html-keyboard-response","61","231417","0.0-61.0","9B0988A23ECB48B99EAE45B12C5DAED8","019d6be0-0507-7682-915c-b89917a1f1e5","019d6b6d-d11f-7233-9b95-7a424dbf389f","","null","
                <div class=""stimulus-container"">
                    <img src=""semantic_sequence_notimeline/fruits_semantic/fruits_semantic_2.png"" class=""exp-image"">
                    <div class=""question-area""></div> 
                </div>","null","","","","","","","","","","","",""
"","","","","","html-button-response","62","232034","0.0-62.0","9B0988A23ECB48B99EAE45B12C5DAED8","019d6be0-0507-7682-915c-b89917a1f1e5","019d6b6d-d11f-7233-9b95-7a424dbf389f","","616","
                <div class=""stimulus-container"">
                    <img src=""semantic_sequence_notimeline/fruits_semantic/fruits_semantic_2.png"" class=""exp-image"">
                    <div class=""question-area"">
                        <p style=""font-size: 20px; font-weight: bold; margin: 0;"">Is there a person in this image?</p>
                    </div>
                </div>","1","main_experiment_trial","2","fruits_semantic","semantic_sequence_notimeline","chronological","","","","","","",""
"","","","","","html-keyboard-response","63","237036","0.0-63.0","9B0988A23ECB48B99EAE45B12C5DAED8","019d6be0-0507-7682-915c-b89917a1f1e5","019d6b6d-d11f-7233-9b95-7a424dbf389f","","null","
                <div class=""stimulus-container"">
                    <img src=""semantic_sequence_notimeline/fruits_semantic/fruits_semantic_3.png"" class=""exp-image"">
                    <div class=""question-area""></div> 
                </div>","null","","","","","","","","","","","",""
"","","","","","html-button-response","64","237967","0.0-64.0","9B0988A23ECB48B99EAE45B12C5DAED8","019d6be0-0507-7682-915c-b89917a1f1e5","019d6b6d-d11f-7233-9b95-7a424dbf389f","","929","
                <div class=""stimulus-container"">
                    <img src=""semantic_sequence_notimeline/fruits_semantic/fruits_semantic_3.png"" class=""exp-image"">
                    <div class=""question-area"">
                        <p style=""font-size: 20px; font-weight: bold; margin: 0;"">Is there a person in this image?</p>
                    </div>
                </div>","1","main_experiment_trial","3","fruits_semantic","semantic_sequence_notimeline","chronological","","","","","","",""
"","","","","","html-keyboard-response","65","242977","0.0-65.0","9B0988A23ECB48B99EAE45B12C5DAED8","019d6be0-0507-7682-915c-b89917a1f1e5","019d6b6d-d11f-7233-9b95-7a424dbf389f","","null","
                <div class=""stimulus-container"">
                    <img src=""semantic_sequence_notimeline/fruits_semantic/fruits_semantic_4.png"" class=""exp-image"">
                    <div class=""question-area""></div> 
                </div>","null","","","","","","","","","","","",""
"","","","","","html-button-response","66","244080","0.0-66.0","9B0988A23ECB48B99EAE45B12C5DAED8","019d6be0-0507-7682-915c-b89917a1f1e5","019d6b6d-d11f-7233-9b95-7a424dbf389f","","1101","
                <div class=""stimulus-container"">
                    <img src=""semantic_sequence_notimeline/fruits_semantic/fruits_semantic_4.png"" class=""exp-image"">
                    <div class=""question-area"">
                        <p style=""font-size: 20px; font-weight: bold; margin: 0;"">Is there a person in this image?</p>
                    </div>
                </div>","1","main_experiment_trial","4","fruits_semantic","semantic_sequence_notimeline","chronological","","","","","","",""
"","","","","","html-keyboard-response","67","249090","0.0-67.0","9B0988A23ECB48B99EAE45B12C5DAED8","019d6be0-0507-7682-915c-b89917a1f1e5","019d6b6d-d11f-7233-9b95-7a424dbf389f","","null","
                <div class=""stimulus-container"">
                    <img src=""semantic_sequence_notimeline/fruits_semantic/fruits_semantic_5.png"" class=""exp-image"">
                    <div class=""question-area""></div> 
                </div>","null","","","","","","","","","","","",""
"","","","","","html-button-response","68","249784","0.0-68.0","9B0988A23ECB48B99EAE45B12C5DAED8","019d6be0-0507-7682-915c-b89917a1f1e5","019d6b6d-d11f-7233-9b95-7a424dbf389f","","692","
                <div class=""stimulus-container"">
                    <img src=""semantic_sequence_notimeline/fruits_semantic/fruits_semantic_5.png"" class=""exp-image"">
                    <div class=""question-area"">
                        <p style=""font-size: 20px; font-weight: bold; margin: 0;"">Is there a person in this image?</p>
                    </div>
                </div>","1","main_experiment_trial","5","fruits_semantic","semantic_sequence_notimeline","chronological","","","","","","",""
"","","","","","html-keyboard-response","69","254795","0.0-69.0","9B0988A23ECB48B99EAE45B12C5DAED8","019d6be0-0507-7682-915c-b89917a1f1e5","019d6b6d-d11f-7233-9b95-7a424dbf389f","","null","
                <div class=""stimulus-container"">
                    <img src=""semantic_sequence_notimeline/fruits_semantic/fruits_semantic_6.png"" class=""exp-image"">
                    <div class=""question-area""></div> 
                </div>","null","","","","","","","","","","","",""
"","","","","","html-button-response","70","255713","0.0-70.0","9B0988A23ECB48B99EAE45B12C5DAED8","019d6be0-0507-7682-915c-b89917a1f1e5","019d6b6d-d11f-7233-9b95-7a424dbf389f","","916","
                <div class=""stimulus-container"">
                    <img src=""semantic_sequence_notimeline/fruits_semantic/fruits_semantic_6.png"" class=""exp-image"">
                    <div class=""question-area"">
                        <p style=""font-size: 20px; font-weight: bold; margin: 0;"">Is there a person in this image?</p>
                    </div>
                </div>","1","main_experiment_trial","6","fruits_semantic","semantic_sequence_notimeline","chronological","","","","","","",""
"","","","","","html-keyboard-response","71","260725","0.0-71.0","9B0988A23ECB48B99EAE45B12C5DAED8","019d6be0-0507-7682-915c-b89917a1f1e5","019d6b6d-d11f-7233-9b95-7a424dbf389f","","null","
                <div class=""stimulus-container"">
                    <img src=""semantic_sequence_notimeline/fruits_semantic/fruits_semantic_7.png"" class=""exp-image"">
                    <div class=""question-area""></div> 
                </div>","null","","","","","","","","","","","",""
"","","","","","html-button-response","72","261408","0.0-72.0","9B0988A23ECB48B99EAE45B12C5DAED8","019d6be0-0507-7682-915c-b89917a1f1e5","019d6b6d-d11f-7233-9b95-7a424dbf389f","","681","
                <div class=""stimulus-container"">
                    <img src=""semantic_sequence_notimeline/fruits_semantic/fruits_semantic_7.png"" class=""exp-image"">
                    <div class=""question-area"">
                        <p style=""font-size: 20px; font-weight: bold; margin: 0;"">Is there a person in this image?</p>
                    </div>
                </div>","1","main_experiment_trial","7","fruits_semantic","semantic_sequence_notimeline","chronological","","","","","","",""
"","","","","","html-keyboard-response","73","266419","0.0-73.0","9B0988A23ECB48B99EAE45B12C5DAED8","019d6be0-0507-7682-915c-b89917a1f1e5","019d6b6d-d11f-7233-9b95-7a424dbf389f","","null","
                <div class=""stimulus-container"">
                    <img src=""semantic_sequence_notimeline/fruits_semantic/fruits_semantic_8.png"" class=""exp-image"">
                    <div class=""question-area""></div> 
                </div>","null","","","","","","","","","","","",""
"","","","","","html-button-response","74","267231","0.0-74.0","9B0988A23ECB48B99EAE45B12C5DAED8","019d6be0-0507-7682-915c-b89917a1f1e5","019d6b6d-d11f-7233-9b95-7a424dbf389f","","808","
                <div class=""stimulus-container"">
                    <img src=""semantic_sequence_notimeline/fruits_semantic/fruits_semantic_8.png"" class=""exp-image"">
                    <div class=""question-area"">
                        <p style=""font-size: 20px; font-weight: bold; margin: 0;"">Is there a person in this image?</p>
                    </div>
                </div>","1","main_experiment_trial","8","fruits_semantic","semantic_sequence_notimeline","chronological","","","","","","",""
"","","","","","html-keyboard-response","75","272240","0.0-75.0","9B0988A23ECB48B99EAE45B12C5DAED8","019d6be0-0507-7682-915c-b89917a1f1e5","019d6b6d-d11f-7233-9b95-7a424dbf389f","","null","
                <div class=""stimulus-container"">
                    <img src=""semantic_sequence_notimeline/fruits_semantic/fruits_semantic_9.png"" class=""exp-image"">
                    <div class=""question-area""></div> 
                </div>","null","","","","","","","","","","","",""
"","","","","","html-button-response","76","273595","0.0-76.0","9B0988A23ECB48B99EAE45B12C5DAED8","019d6be0-0507-7682-915c-b89917a1f1e5","019d6b6d-d11f-7233-9b95-7a424dbf389f","","1354","
                <div class=""stimulus-container"">
                    <img src=""semantic_sequence_notimeline/fruits_semantic/fruits_semantic_9.png"" class=""exp-image"">
                    <div class=""question-area"">
                        <p style=""font-size: 20px; font-weight: bold; margin: 0;"">Is there a person in this image?</p>
                    </div>
                </div>","1","main_experiment_trial","9","fruits_semantic","semantic_sequence_notimeline","chronological","","","","","","",""
"","","","","","html-keyboard-response","77","278611","0.0-77.0","9B0988A23ECB48B99EAE45B12C5DAED8","019d6be0-0507-7682-915c-b89917a1f1e5","019d6b6d-d11f-7233-9b95-7a424dbf389f","","null","
                <div class=""stimulus-container"">
                    <img src=""semantic_sequence_notimeline/fruits_semantic/fruits_semantic_ten.png"" class=""exp-image"">
                    <div class=""question-area""></div> 
                </div>","null","","","","","","","","","","","",""
"","","","","","html-button-response","78","279262","0.0-78.0","9B0988A23ECB48B99EAE45B12C5DAED8","019d6be0-0507-7682-915c-b89917a1f1e5","019d6b6d-d11f-7233-9b95-7a424dbf389f","","649","
                <div class=""stimulus-container"">
                    <img src=""semantic_sequence_notimeline/fruits_semantic/fruits_semantic_ten.png"" class=""exp-image"">
                    <div class=""question-area"">
                        <p style=""font-size: 20px; font-weight: bold; margin: 0;"">Is there a person in this image?</p>
                    </div>
                </div>","1","main_experiment_trial","ten","fruits_semantic","semantic_sequence_notimeline","chronological","","","","","","",""
"","","","","","html-keyboard-response","79","284267","0.0-79.0","9B0988A23ECB48B99EAE45B12C5DAED8","019d6be0-0507-7682-915c-b89917a1f1e5","019d6b6d-d11f-7233-9b95-7a424dbf389f","","null","<div style=""background-color: white; width: 100vw; height: 100vh;""></div>","null","","","","","","","","","","","",""
"","","","","","html-keyboard-response","80","289272","0.0-80.0","9B0988A23ECB48B99EAE45B12C5DAED8","019d6be0-0507-7682-915c-b89917a1f1e5","019d6b6d-d11f-7233-9b95-7a424dbf389f","","null","
                <div class=""stimulus-container"">
                    <img src=""semantic_sequence_notimeline/transportation_semantic/transportation_semantic_1.png"" class=""exp-image"">
                    <div class=""question-area""></div> 
                </div>","null","","","","","","","","","","","",""
"","","","","","html-button-response","81","290537","0.0-81.0","9B0988A23ECB48B99EAE45B12C5DAED8","019d6be0-0507-7682-915c-b89917a1f1e5","019d6b6d-d11f-7233-9b95-7a424dbf389f","","1264","
                <div class=""stimulus-container"">
                    <img src=""semantic_sequence_notimeline/transportation_semantic/transportation_semantic_1.png"" class=""exp-image"">
                    <div class=""question-area"">
                        <p style=""font-size: 20px; font-weight: bold; margin: 0;"">Is there a person in this image?</p>
                    </div>
                </div>","1","main_experiment_trial","1","transportation_semantic","semantic_sequence_notimeline","chronological","","","","","","",""
"","","","","","html-keyboard-response","82","295553","0.0-82.0","9B0988A23ECB48B99EAE45B12C5DAED8","019d6be0-0507-7682-915c-b89917a1f1e5","019d6b6d-d11f-7233-9b95-7a424dbf389f","","null","
                <div class=""stimulus-container"">
                    <img src=""semantic_sequence_notimeline/transportation_semantic/transportation_semantic_2.png"" class=""exp-image"">
                    <div class=""question-area""></div> 
                </div>","null","","","","","","","","","","","",""
"","","","","","html-button-response","83","296624","0.0-83.0","9B0988A23ECB48B99EAE45B12C5DAED8","019d6be0-0507-7682-915c-b89917a1f1e5","019d6b6d-d11f-7233-9b95-7a424dbf389f","","1069","
                <div class=""stimulus-container"">
                    <img src=""semantic_sequence_notimeline/transportation_semantic/transportation_semantic_2.png"" class=""exp-image"">
                    <div class=""question-area"">
                        <p style=""font-size: 20px; font-weight: bold; margin: 0;"">Is there a person in this image?</p>
                    </div>
                </div>","1","main_experiment_trial","2","transportation_semantic","semantic_sequence_notimeline","chronological","","","","","","",""
"","","","","","html-keyboard-response","84","301630","0.0-84.0","9B0988A23ECB48B99EAE45B12C5DAED8","019d6be0-0507-7682-915c-b89917a1f1e5","019d6b6d-d11f-7233-9b95-7a424dbf389f","","null","
                <div class=""stimulus-container"">
                    <img src=""semantic_sequence_notimeline/transportation_semantic/transportation_semantic_3.png"" class=""exp-image"">
                    <div class=""question-area""></div> 
                </div>","null","","","","","","","","","","","",""
"","","","","","html-button-response","85","302408","0.0-85.0","9B0988A23ECB48B99EAE45B12C5DAED8","019d6be0-0507-7682-915c-b89917a1f1e5","019d6b6d-d11f-7233-9b95-7a424dbf389f","","776","
                <div class=""stimulus-container"">
                    <img src=""semantic_sequence_notimeline/transportation_semantic/transportation_semantic_3.png"" class=""exp-image"">
                    <div class=""question-area"">
                        <p style=""font-size: 20px; font-weight: bold; margin: 0;"">Is there a person in this image?</p>
                    </div>
                </div>","1","main_experiment_trial","3","transportation_semantic","semantic_sequence_notimeline","chronological","","","","","","",""
"","","","","","html-keyboard-response","86","307413","0.0-86.0","9B0988A23ECB48B99EAE45B12C5DAED8","019d6be0-0507-7682-915c-b89917a1f1e5","019d6b6d-d11f-7233-9b95-7a424dbf389f","","null","
                <div class=""stimulus-container"">
                    <img src=""semantic_sequence_notimeline/transportation_semantic/transportation_semantic_4.png"" class=""exp-image"">
                    <div class=""question-area""></div> 
                </div>","null","","","","","","","","","","","",""
"","","","","","html-button-response","87","308913","0.0-87.0","9B0988A23ECB48B99EAE45B12C5DAED8","019d6be0-0507-7682-915c-b89917a1f1e5","019d6b6d-d11f-7233-9b95-7a424dbf389f","","1499","
                <div class=""stimulus-container"">
                    <img src=""semantic_sequence_notimeline/transportation_semantic/transportation_semantic_4.png"" class=""exp-image"">
                    <div class=""question-area"">
                        <p style=""font-size: 20px; font-weight: bold; margin: 0;"">Is there a person in this image?</p>
                    </div>
                </div>","1","main_experiment_trial","4","transportation_semantic","semantic_sequence_notimeline","chronological","","","","","","",""
"","","","","","html-keyboard-response","88","313925","0.0-88.0","9B0988A23ECB48B99EAE45B12C5DAED8","019d6be0-0507-7682-915c-b89917a1f1e5","019d6b6d-d11f-7233-9b95-7a424dbf389f","","null","
                <div class=""stimulus-container"">
                    <img src=""semantic_sequence_notimeline/transportation_semantic/transportation_semantic_5.png"" class=""exp-image"">
                    <div class=""question-area""></div> 
                </div>","null","","","","","","","","","","","",""
"","","","","","html-button-response","89","316593","0.0-89.0","9B0988A23ECB48B99EAE45B12C5DAED8","019d6be0-0507-7682-915c-b89917a1f1e5","019d6b6d-d11f-7233-9b95-7a424dbf389f","","2666","
                <div class=""stimulus-container"">
                    <img src=""semantic_sequence_notimeline/transportation_semantic/transportation_semantic_5.png"" class=""exp-image"">
                    <div class=""question-area"">
                        <p style=""font-size: 20px; font-weight: bold; margin: 0;"">Is there a person in this image?</p>
                    </div>
                </div>","1","main_experiment_trial","5","transportation_semantic","semantic_sequence_notimeline","chronological","","","","","","",""
"","","","","","html-keyboard-response","90","321598","0.0-90.0","9B0988A23ECB48B99EAE45B12C5DAED8","019d6be0-0507-7682-915c-b89917a1f1e5","019d6b6d-d11f-7233-9b95-7a424dbf389f","","null","
                <div class=""stimulus-container"">
                    <img src=""semantic_sequence_notimeline/transportation_semantic/transportation_semantic_6.png"" class=""exp-image"">
                    <div class=""question-area""></div> 
                </div>","null","","","","","","","","","","","",""
"","","","","","html-button-response","91","322872","0.0-91.0","9B0988A23ECB48B99EAE45B12C5DAED8","019d6be0-0507-7682-915c-b89917a1f1e5","019d6b6d-d11f-7233-9b95-7a424dbf389f","","1273","
                <div class=""stimulus-container"">
                    <img src=""semantic_sequence_notimeline/transportation_semantic/transportation_semantic_6.png"" class=""exp-image"">
                    <div class=""question-area"">
                        <p style=""font-size: 20px; font-weight: bold; margin: 0;"">Is there a person in this image?</p>
                    </div>
                </div>","0","main_experiment_trial","6","transportation_semantic","semantic_sequence_notimeline","chronological","","","","","","",""
"","","","","","html-keyboard-response","92","327874","0.0-92.0","9B0988A23ECB48B99EAE45B12C5DAED8","019d6be0-0507-7682-915c-b89917a1f1e5","019d6b6d-d11f-7233-9b95-7a424dbf389f","","null","
                <div class=""stimulus-container"">
                    <img src=""semantic_sequence_notimeline/transportation_semantic/transportation_semantic_7.png"" class=""exp-image"">
                    <div class=""question-area""></div> 
                </div>","null","","","","","","","","","","","",""
"","","","","","html-button-response","93","329312","0.0-93.0","9B0988A23ECB48B99EAE45B12C5DAED8","019d6be0-0507-7682-915c-b89917a1f1e5","019d6b6d-d11f-7233-9b95-7a424dbf389f","","1437","
                <div class=""stimulus-container"">
                    <img src=""semantic_sequence_notimeline/transportation_semantic/transportation_semantic_7.png"" class=""exp-image"">
                    <div class=""question-area"">
                        <p style=""font-size: 20px; font-weight: bold; margin: 0;"">Is there a person in this image?</p>
                    </div>
                </div>","1","main_experiment_trial","7","transportation_semantic","semantic_sequence_notimeline","chronological","","","","","","",""
"","","","","","html-keyboard-response","94","334329","0.0-94.0","9B0988A23ECB48B99EAE45B12C5DAED8","019d6be0-0507-7682-915c-b89917a1f1e5","019d6b6d-d11f-7233-9b95-7a424dbf389f","","null","
                <div class=""stimulus-container"">
                    <img src=""semantic_sequence_notimeline/transportation_semantic/transportation_semantic_8.png"" class=""exp-image"">
                    <div class=""question-area""></div> 
                </div>","null","","","","","","","","","","","",""
"","","","","","html-button-response","95","335296","0.0-95.0","9B0988A23ECB48B99EAE45B12C5DAED8","019d6be0-0507-7682-915c-b89917a1f1e5","019d6b6d-d11f-7233-9b95-7a424dbf389f","","966","
                <div class=""stimulus-container"">
                    <img src=""semantic_sequence_notimeline/transportation_semantic/transportation_semantic_8.png"" class=""exp-image"">
                    <div class=""question-area"">
                        <p style=""font-size: 20px; font-weight: bold; margin: 0;"">Is there a person in this image?</p>
                    </div>
                </div>","1","main_experiment_trial","8","transportation_semantic","semantic_sequence_notimeline","chronological","","","","","","",""
"","","","","","html-keyboard-response","96","340306","0.0-96.0","9B0988A23ECB48B99EAE45B12C5DAED8","019d6be0-0507-7682-915c-b89917a1f1e5","019d6b6d-d11f-7233-9b95-7a424dbf389f","","null","
                <div class=""stimulus-container"">
                    <img src=""semantic_sequence_notimeline/transportation_semantic/transportation_semantic_9.png"" class=""exp-image"">
                    <div class=""question-area""></div> 
                </div>","null","","","","","","","","","","","",""
"","","","","","html-button-response","97","341271","0.0-97.0","9B0988A23ECB48B99EAE45B12C5DAED8","019d6be0-0507-7682-915c-b89917a1f1e5","019d6b6d-d11f-7233-9b95-7a424dbf389f","","964","
                <div class=""stimulus-container"">
                    <img src=""semantic_sequence_notimeline/transportation_semantic/transportation_semantic_9.png"" class=""exp-image"">
                    <div class=""question-area"">
                        <p style=""font-size: 20px; font-weight: bold; margin: 0;"">Is there a person in this image?</p>
                    </div>
                </div>","1","main_experiment_trial","9","transportation_semantic","semantic_sequence_notimeline","chronological","","","","","","",""
"","","","","","html-keyboard-response","98","346287","0.0-98.0","9B0988A23ECB48B99EAE45B12C5DAED8","019d6be0-0507-7682-915c-b89917a1f1e5","019d6b6d-d11f-7233-9b95-7a424dbf389f","","null","
                <div class=""stimulus-container"">
                    <img src=""semantic_sequence_notimeline/transportation_semantic/transportation_semantic_ten.png"" class=""exp-image"">
                    <div class=""question-area""></div> 
                </div>","null","","","","","","","","","","","",""
"","","","","","html-button-response","99","347463","0.0-99.0","9B0988A23ECB48B99EAE45B12C5DAED8","019d6be0-0507-7682-915c-b89917a1f1e5","019d6b6d-d11f-7233-9b95-7a424dbf389f","","1175","
                <div class=""stimulus-container"">
                    <img src=""semantic_sequence_notimeline/transportation_semantic/transportation_semantic_ten.png"" class=""exp-image"">
                    <div class=""question-area"">
                        <p style=""font-size: 20px; font-weight: bold; margin: 0;"">Is there a person in this image?</p>
                    </div>
                </div>","1","main_experiment_trial","ten","transportation_semantic","semantic_sequence_notimeline","chronological","","","","","","",""
"","","","","","html-keyboard-response","100","352468","0.0-100.0","9B0988A23ECB48B99EAE45B12C5DAED8","019d6be0-0507-7682-915c-b89917a1f1e5","019d6b6d-d11f-7233-9b95-7a424dbf389f","","null","<div style=""background-color: white; width: 100vw; height: 100vh;""></div>","null","","","","","","","","","","","",""
"","","","","","html-keyboard-response","101","357482","0.0-101.0","9B0988A23ECB48B99EAE45B12C5DAED8","019d6be0-0507-7682-915c-b89917a1f1e5","019d6b6d-d11f-7233-9b95-7a424dbf389f","","null","
                <div class=""stimulus-container"">
                    <img src=""semantic_sequence_notimeline/animals_semantic/animals_semantic_1.png"" class=""exp-image"">
                    <div class=""question-area""></div> 
                </div>","null","","","","","","","","","","","",""
"","","","","","html-button-response","102","358492","0.0-102.0","9B0988A23ECB48B99EAE45B12C5DAED8","019d6be0-0507-7682-915c-b89917a1f1e5","019d6b6d-d11f-7233-9b95-7a424dbf389f","","1010","
                <div class=""stimulus-container"">
                    <img src=""semantic_sequence_notimeline/animals_semantic/animals_semantic_1.png"" class=""exp-image"">
                    <div class=""question-area"">
                        <p style=""font-size: 20px; font-weight: bold; margin: 0;"">Is there a person in this image?</p>
                    </div>
                </div>","1","main_experiment_trial","1","animals_semantic","semantic_sequence_notimeline","chronological","","","","","","",""
"","","","","","html-keyboard-response","103","363502","0.0-103.0","9B0988A23ECB48B99EAE45B12C5DAED8","019d6be0-0507-7682-915c-b89917a1f1e5","019d6b6d-d11f-7233-9b95-7a424dbf389f","","null","
                <div class=""stimulus-container"">
                    <img src=""semantic_sequence_notimeline/animals_semantic/animals_semantic_2.png"" class=""exp-image"">
                    <div class=""question-area""></div> 
                </div>","null","","","","","","","","","","","",""
"","","","","","html-button-response","104","364318","0.0-104.0","9B0988A23ECB48B99EAE45B12C5DAED8","019d6be0-0507-7682-915c-b89917a1f1e5","019d6b6d-d11f-7233-9b95-7a424dbf389f","","815","
                <div class=""stimulus-container"">
                    <img src=""semantic_sequence_notimeline/animals_semantic/animals_semantic_2.png"" class=""exp-image"">
                    <div class=""question-area"">
                        <p style=""font-size: 20px; font-weight: bold; margin: 0;"">Is there a person in this image?</p>
                    </div>
                </div>","1","main_experiment_trial","2","animals_semantic","semantic_sequence_notimeline","chronological","","","","","","",""
"","","","","","html-keyboard-response","105","369330","0.0-105.0","9B0988A23ECB48B99EAE45B12C5DAED8","019d6be0-0507-7682-915c-b89917a1f1e5","019d6b6d-d11f-7233-9b95-7a424dbf389f","","null","
                <div class=""stimulus-container"">
                    <img src=""semantic_sequence_notimeline/animals_semantic/animals_semantic_3.png"" class=""exp-image"">
                    <div class=""question-area""></div> 
                </div>","null","","","","","","","","","","","",""
"","","","","","html-button-response","106","370291","0.0-106.0","9B0988A23ECB48B99EAE45B12C5DAED8","019d6be0-0507-7682-915c-b89917a1f1e5","019d6b6d-d11f-7233-9b95-7a424dbf389f","","959","
                <div class=""stimulus-container"">
                    <img src=""semantic_sequence_notimeline/animals_semantic/animals_semantic_3.png"" class=""exp-image"">
                    <div class=""question-area"">
                        <p style=""font-size: 20px; font-weight: bold; margin: 0;"">Is there a person in this image?</p>
                    </div>
                </div>","1","main_experiment_trial","3","animals_semantic","semantic_sequence_notimeline","chronological","","","","","","",""
"","","","","","html-keyboard-response","107","375293","0.0-107.0","9B0988A23ECB48B99EAE45B12C5DAED8","019d6be0-0507-7682-915c-b89917a1f1e5","019d6b6d-d11f-7233-9b95-7a424dbf389f","","null","
                <div class=""stimulus-container"">
                    <img src=""semantic_sequence_notimeline/animals_semantic/animals_semantic_4.png"" class=""exp-image"">
                    <div class=""question-area""></div> 
                </div>","null","","","","","","","","","","","",""
"","","","","","html-button-response","108","376238","0.0-108.0","9B0988A23ECB48B99EAE45B12C5DAED8","019d6be0-0507-7682-915c-b89917a1f1e5","019d6b6d-d11f-7233-9b95-7a424dbf389f","","944","
                <div class=""stimulus-container"">
                    <img src=""semantic_sequence_notimeline/animals_semantic/animals_semantic_4.png"" class=""exp-image"">
                    <div class=""question-area"">
                        <p style=""font-size: 20px; font-weight: bold; margin: 0;"">Is there a person in this image?</p>
                    </div>
                </div>","1","main_experiment_trial","4","animals_semantic","semantic_sequence_notimeline","chronological","","","","","","",""
"","","","","","html-keyboard-response","109","381252","0.0-109.0","9B0988A23ECB48B99EAE45B12C5DAED8","019d6be0-0507-7682-915c-b89917a1f1e5","019d6b6d-d11f-7233-9b95-7a424dbf389f","","null","
                <div class=""stimulus-container"">
                    <img src=""semantic_sequence_notimeline/animals_semantic/animals_semantic_5.png"" class=""exp-image"">
                    <div class=""question-area""></div> 
                </div>","null","","","","","","","","","","","",""
"","","","","","html-button-response","110","382244","0.0-110.0","9B0988A23ECB48B99EAE45B12C5DAED8","019d6be0-0507-7682-915c-b89917a1f1e5","019d6b6d-d11f-7233-9b95-7a424dbf389f","","991","
                <div class=""stimulus-container"">
                    <img src=""semantic_sequence_notimeline/animals_semantic/animals_semantic_5.png"" class=""exp-image"">
                    <div class=""question-area"">
                        <p style=""font-size: 20px; font-weight: bold; margin: 0;"">Is there a person in this image?</p>
                    </div>
                </div>","1","main_experiment_trial","5","animals_semantic","semantic_sequence_notimeline","chronological","","","","","","",""
"","","","","","html-keyboard-response","111","387246","0.0-111.0","9B0988A23ECB48B99EAE45B12C5DAED8","019d6be0-0507-7682-915c-b89917a1f1e5","019d6b6d-d11f-7233-9b95-7a424dbf389f","","null","
                <div class=""stimulus-container"">
                    <img src=""semantic_sequence_notimeline/animals_semantic/animals_semantic_6.png"" class=""exp-image"">
                    <div class=""question-area""></div> 
                </div>","null","","","","","","","","","","","",""
"","","","","","html-button-response","112","388043","0.0-112.0","9B0988A23ECB48B99EAE45B12C5DAED8","019d6be0-0507-7682-915c-b89917a1f1e5","019d6b6d-d11f-7233-9b95-7a424dbf389f","","796","
                <div class=""stimulus-container"">
                    <img src=""semantic_sequence_notimeline/animals_semantic/animals_semantic_6.png"" class=""exp-image"">
                    <div class=""question-area"">
                        <p style=""font-size: 20px; font-weight: bold; margin: 0;"">Is there a person in this image?</p>
                    </div>
                </div>","1","main_experiment_trial","6","animals_semantic","semantic_sequence_notimeline","chronological","","","","","","",""
"","","","","","html-keyboard-response","113","393050","0.0-113.0","9B0988A23ECB48B99EAE45B12C5DAED8","019d6be0-0507-7682-915c-b89917a1f1e5","019d6b6d-d11f-7233-9b95-7a424dbf389f","","null","
                <div class=""stimulus-container"">
                    <img src=""semantic_sequence_notimeline/animals_semantic/animals_semantic_7.png"" class=""exp-image"">
                    <div class=""question-area""></div> 
                </div>","null","","","","","","","","","","","",""
"","","","","","html-button-response","114","394783","0.0-114.0","9B0988A23ECB48B99EAE45B12C5DAED8","019d6be0-0507-7682-915c-b89917a1f1e5","019d6b6d-d11f-7233-9b95-7a424dbf389f","","1733","
                <div class=""stimulus-container"">
                    <img src=""semantic_sequence_notimeline/animals_semantic/animals_semantic_7.png"" class=""exp-image"">
                    <div class=""question-area"">
                        <p style=""font-size: 20px; font-weight: bold; margin: 0;"">Is there a person in this image?</p>
                    </div>
                </div>","1","main_experiment_trial","7","animals_semantic","semantic_sequence_notimeline","chronological","","","","","","",""
"","","","","","html-keyboard-response","115","399794","0.0-115.0","9B0988A23ECB48B99EAE45B12C5DAED8","019d6be0-0507-7682-915c-b89917a1f1e5","019d6b6d-d11f-7233-9b95-7a424dbf389f","","null","
                <div class=""stimulus-container"">
                    <img src=""semantic_sequence_notimeline/animals_semantic/animals_semantic_8.png"" class=""exp-image"">
                    <div class=""question-area""></div> 
                </div>","null","","","","","","","","","","","",""
"","","","","","html-button-response","116","402801","0.0-116.0","9B0988A23ECB48B99EAE45B12C5DAED8","019d6be0-0507-7682-915c-b89917a1f1e5","019d6b6d-d11f-7233-9b95-7a424dbf389f","","null","
                <div class=""stimulus-container"">
                    <img src=""semantic_sequence_notimeline/animals_semantic/animals_semantic_8.png"" class=""exp-image"">
                    <div class=""question-area"">
                        <p style=""font-size: 20px; font-weight: bold; margin: 0;"">Is there a person in this image?</p>
                    </div>
                </div>","null","main_experiment_trial","8","animals_semantic","semantic_sequence_notimeline","chronological","","","","","","",""
"","","","","","html-keyboard-response","117","407812","0.0-117.0","9B0988A23ECB48B99EAE45B12C5DAED8","019d6be0-0507-7682-915c-b89917a1f1e5","019d6b6d-d11f-7233-9b95-7a424dbf389f","","null","
                <div class=""stimulus-container"">
                    <img src=""semantic_sequence_notimeline/animals_semantic/animals_semantic_9.png"" class=""exp-image"">
                    <div class=""question-area""></div> 
                </div>","null","","","","","","","","","","","",""
"","","","","","html-button-response","118","408604","0.0-118.0","9B0988A23ECB48B99EAE45B12C5DAED8","019d6be0-0507-7682-915c-b89917a1f1e5","019d6b6d-d11f-7233-9b95-7a424dbf389f","","791","
                <div class=""stimulus-container"">
                    <img src=""semantic_sequence_notimeline/animals_semantic/animals_semantic_9.png"" class=""exp-image"">
                    <div class=""question-area"">
                        <p style=""font-size: 20px; font-weight: bold; margin: 0;"">Is there a person in this image?</p>
                    </div>
                </div>","1","main_experiment_trial","9","animals_semantic","semantic_sequence_notimeline","chronological","","","","","","",""
"","","","","","html-keyboard-response","119","413608","0.0-119.0","9B0988A23ECB48B99EAE45B12C5DAED8","019d6be0-0507-7682-915c-b89917a1f1e5","019d6b6d-d11f-7233-9b95-7a424dbf389f","","null","
                <div class=""stimulus-container"">
                    <img src=""semantic_sequence_notimeline/animals_semantic/animals_semantic_ten.png"" class=""exp-image"">
                    <div class=""question-area""></div> 
                </div>","null","","","","","","","","","","","",""
"","","","","","html-button-response","120","414324","0.0-120.0","9B0988A23ECB48B99EAE45B12C5DAED8","019d6be0-0507-7682-915c-b89917a1f1e5","019d6b6d-d11f-7233-9b95-7a424dbf389f","","715","
                <div class=""stimulus-container"">
                    <img src=""semantic_sequence_notimeline/animals_semantic/animals_semantic_ten.png"" class=""exp-image"">
                    <div class=""question-area"">
                        <p style=""font-size: 20px; font-weight: bold; margin: 0;"">Is there a person in this image?</p>
                    </div>
                </div>","1","main_experiment_trial","ten","animals_semantic","semantic_sequence_notimeline","chronological","","","","","","",""
"","","","","","html-keyboard-response","121","419330","0.0-121.0","9B0988A23ECB48B99EAE45B12C5DAED8","019d6be0-0507-7682-915c-b89917a1f1e5","019d6b6d-d11f-7233-9b95-7a424dbf389f","","null","<div style=""background-color: white; width: 100vw; height: 100vh;""></div>","null","","","","","","","","","","","",""
"","","","","","html-keyboard-response","122","424340","0.0-122.0","9B0988A23ECB48B99EAE45B12C5DAED8","019d6be0-0507-7682-915c-b89917a1f1e5","019d6b6d-d11f-7233-9b95-7a424dbf389f","","null","
                <div class=""stimulus-container"">
                    <img src=""images/causal_sequence/the_performance_causal/the_performance_causal_1.png"" class=""exp-image"">
                    <div class=""question-area""></div> 
                </div>","null","","","","","","","","","","","",""
"","","","","","html-button-response","123","425613","0.0-123.0","9B0988A23ECB48B99EAE45B12C5DAED8","019d6be0-0507-7682-915c-b89917a1f1e5","019d6b6d-d11f-7233-9b95-7a424dbf389f","","1272","
                <div class=""stimulus-container"">
                    <img src=""images/causal_sequence/the_performance_causal/the_performance_causal_1.png"" class=""exp-image"">
                    <div class=""question-area"">
                        <p style=""font-size: 20px; font-weight: bold; margin: 0;"">Is there a person in this image?</p>
                    </div>
                </div>","0","main_experiment_trial","1","the_performance_causal","causal_sequence","chronological","","","","","","",""
"","","","","","html-keyboard-response","124","430624","0.0-124.0","9B0988A23ECB48B99EAE45B12C5DAED8","019d6be0-0507-7682-915c-b89917a1f1e5","019d6b6d-d11f-7233-9b95-7a424dbf389f","","null","
                <div class=""stimulus-container"">
                    <img src=""images/causal_sequence/the_performance_causal/the_performance_causal_2.png"" class=""exp-image"">
                    <div class=""question-area""></div> 
                </div>","null","","","","","","","","","","","",""
"","","","","","html-button-response","125","432116","0.0-125.0","9B0988A23ECB48B99EAE45B12C5DAED8","019d6be0-0507-7682-915c-b89917a1f1e5","019d6b6d-d11f-7233-9b95-7a424dbf389f","","1490","
                <div class=""stimulus-container"">
                    <img src=""images/causal_sequence/the_performance_causal/the_performance_causal_2.png"" class=""exp-image"">
                    <div class=""question-area"">
                        <p style=""font-size: 20px; font-weight: bold; margin: 0;"">Is there a person in this image?</p>
                    </div>
                </div>","0","main_experiment_trial","2","the_performance_causal","causal_sequence","chronological","","","","","","",""
"","","","","","html-keyboard-response","126","437126","0.0-126.0","9B0988A23ECB48B99EAE45B12C5DAED8","019d6be0-0507-7682-915c-b89917a1f1e5","019d6b6d-d11f-7233-9b95-7a424dbf389f","","null","
                <div class=""stimulus-container"">
                    <img src=""images/causal_sequence/the_performance_causal/the_performance_causal_3.png"" class=""exp-image"">
                    <div class=""question-area""></div> 
                </div>","null","","","","","","","","","","","",""
"","","","","","html-button-response","127","439061","0.0-127.0","9B0988A23ECB48B99EAE45B12C5DAED8","019d6be0-0507-7682-915c-b89917a1f1e5","019d6b6d-d11f-7233-9b95-7a424dbf389f","","1934","
                <div class=""stimulus-container"">
                    <img src=""images/causal_sequence/the_performance_causal/the_performance_causal_3.png"" class=""exp-image"">
                    <div class=""question-area"">
                        <p style=""font-size: 20px; font-weight: bold; margin: 0;"">Is there a person in this image?</p>
                    </div>
                </div>","0","main_experiment_trial","3","the_performance_causal","causal_sequence","chronological","","","","","","",""
"","","","","","html-keyboard-response","128","444063","0.0-128.0","9B0988A23ECB48B99EAE45B12C5DAED8","019d6be0-0507-7682-915c-b89917a1f1e5","019d6b6d-d11f-7233-9b95-7a424dbf389f","","null","
                <div class=""stimulus-container"">
                    <img src=""images/causal_sequence/the_performance_causal/the_performance_causal_4.png"" class=""exp-image"">
                    <div class=""question-area""></div> 
                </div>","null","","","","","","","","","","","",""
"","","","","","html-button-response","129","445809","0.0-129.0","9B0988A23ECB48B99EAE45B12C5DAED8","019d6be0-0507-7682-915c-b89917a1f1e5","019d6b6d-d11f-7233-9b95-7a424dbf389f","","1745","
                <div class=""stimulus-container"">
                    <img src=""images/causal_sequence/the_performance_causal/the_performance_causal_4.png"" class=""exp-image"">
                    <div class=""question-area"">
                        <p style=""font-size: 20px; font-weight: bold; margin: 0;"">Is there a person in this image?</p>
                    </div>
                </div>","0","main_experiment_trial","4","the_performance_causal","causal_sequence","chronological","","","","","","",""
"","","","","","html-keyboard-response","130","450819","0.0-130.0","9B0988A23ECB48B99EAE45B12C5DAED8","019d6be0-0507-7682-915c-b89917a1f1e5","019d6b6d-d11f-7233-9b95-7a424dbf389f","","null","
                <div class=""stimulus-container"">
                    <img src=""images/causal_sequence/the_performance_causal/the_performance_causal_5.png"" class=""exp-image"">
                    <div class=""question-area""></div> 
                </div>","null","","","","","","","","","","","",""
"","","","","","html-button-response","131","452226","0.0-131.0","9B0988A23ECB48B99EAE45B12C5DAED8","019d6be0-0507-7682-915c-b89917a1f1e5","019d6b6d-d11f-7233-9b95-7a424dbf389f","","1406","
                <div class=""stimulus-container"">
                    <img src=""images/causal_sequence/the_performance_causal/the_performance_causal_5.png"" class=""exp-image"">
                    <div class=""question-area"">
                        <p style=""font-size: 20px; font-weight: bold; margin: 0;"">Is there a person in this image?</p>
                    </div>
                </div>","0","main_experiment_trial","5","the_performance_causal","causal_sequence","chronological","","","","","","",""
"","","","","","html-keyboard-response","132","457232","0.0-132.0","9B0988A23ECB48B99EAE45B12C5DAED8","019d6be0-0507-7682-915c-b89917a1f1e5","019d6b6d-d11f-7233-9b95-7a424dbf389f","","null","
                <div class=""stimulus-container"">
                    <img src=""images/causal_sequence/the_performance_causal/the_performance_causal_6.png"" class=""exp-image"">
                    <div class=""question-area""></div> 
                </div>","null","","","","","","","","","","","",""
"","","","","","html-button-response","133","458635","0.0-133.0","9B0988A23ECB48B99EAE45B12C5DAED8","019d6be0-0507-7682-915c-b89917a1f1e5","019d6b6d-d11f-7233-9b95-7a424dbf389f","","1401","
                <div class=""stimulus-container"">
                    <img src=""images/causal_sequence/the_performance_causal/the_performance_causal_6.png"" class=""exp-image"">
                    <div class=""question-area"">
                        <p style=""font-size: 20px; font-weight: bold; margin: 0;"">Is there a person in this image?</p>
                    </div>
                </div>","0","main_experiment_trial","6","the_performance_causal","causal_sequence","chronological","","","","","","",""
"","","","","","html-keyboard-response","134","463644","0.0-134.0","9B0988A23ECB48B99EAE45B12C5DAED8","019d6be0-0507-7682-915c-b89917a1f1e5","019d6b6d-d11f-7233-9b95-7a424dbf389f","","null","
                <div class=""stimulus-container"">
                    <img src=""images/causal_sequence/the_performance_causal/the_performance_causal_7.png"" class=""exp-image"">
                    <div class=""question-area""></div> 
                </div>","null","","","","","","","","","","","",""
"","","","","","html-button-response","135","465463","0.0-135.0","9B0988A23ECB48B99EAE45B12C5DAED8","019d6be0-0507-7682-915c-b89917a1f1e5","019d6b6d-d11f-7233-9b95-7a424dbf389f","","1818","
                <div class=""stimulus-container"">
                    <img src=""images/causal_sequence/the_performance_causal/the_performance_causal_7.png"" class=""exp-image"">
                    <div class=""question-area"">
                        <p style=""font-size: 20px; font-weight: bold; margin: 0;"">Is there a person in this image?</p>
                    </div>
                </div>","0","main_experiment_trial","7","the_performance_causal","causal_sequence","chronological","","","","","","",""
"","","","","","html-keyboard-response","136","470471","0.0-136.0","9B0988A23ECB48B99EAE45B12C5DAED8","019d6be0-0507-7682-915c-b89917a1f1e5","019d6b6d-d11f-7233-9b95-7a424dbf389f","","null","
                <div class=""stimulus-container"">
                    <img src=""images/causal_sequence/the_performance_causal/the_performance_causal_8.png"" class=""exp-image"">
                    <div class=""question-area""></div> 
                </div>","null","","","","","","","","","","","",""
"","","","","","html-button-response","137","472718","0.0-137.0","9B0988A23ECB48B99EAE45B12C5DAED8","019d6be0-0507-7682-915c-b89917a1f1e5","019d6b6d-d11f-7233-9b95-7a424dbf389f","","2244","
                <div class=""stimulus-container"">
                    <img src=""images/causal_sequence/the_performance_causal/the_performance_causal_8.png"" class=""exp-image"">
                    <div class=""question-area"">
                        <p style=""font-size: 20px; font-weight: bold; margin: 0;"">Is there a person in this image?</p>
                    </div>
                </div>","0","main_experiment_trial","8","the_performance_causal","causal_sequence","chronological","","","","","","",""
"","","","","","html-keyboard-response","138","477732","0.0-138.0","9B0988A23ECB48B99EAE45B12C5DAED8","019d6be0-0507-7682-915c-b89917a1f1e5","019d6b6d-d11f-7233-9b95-7a424dbf389f","","null","
                <div class=""stimulus-container"">
                    <img src=""images/causal_sequence/the_performance_causal/the_performance_causal_9.png"" class=""exp-image"">
                    <div class=""question-area""></div> 
                </div>","null","","","","","","","","","","","",""
"","","","","","html-button-response","139","480586","0.0-139.0","9B0988A23ECB48B99EAE45B12C5DAED8","019d6be0-0507-7682-915c-b89917a1f1e5","019d6b6d-d11f-7233-9b95-7a424dbf389f","","2852","
                <div class=""stimulus-container"">
                    <img src=""images/causal_sequence/the_performance_causal/the_performance_causal_9.png"" class=""exp-image"">
                    <div class=""question-area"">
                        <p style=""font-size: 20px; font-weight: bold; margin: 0;"">Is there a person in this image?</p>
                    </div>
                </div>","0","main_experiment_trial","9","the_performance_causal","causal_sequence","chronological","","","","","","",""
"","","","","","html-keyboard-response","140","485587","0.0-140.0","9B0988A23ECB48B99EAE45B12C5DAED8","019d6be0-0507-7682-915c-b89917a1f1e5","019d6b6d-d11f-7233-9b95-7a424dbf389f","","null","
                <div class=""stimulus-container"">
                    <img src=""images/causal_sequence/the_performance_causal/the_performance_causal_ten.png"" class=""exp-image"">
                    <div class=""question-area""></div> 
                </div>","null","","","","","","","","","","","",""
"","","","","","html-button-response","141","486752","0.0-141.0","9B0988A23ECB48B99EAE45B12C5DAED8","019d6be0-0507-7682-915c-b89917a1f1e5","019d6b6d-d11f-7233-9b95-7a424dbf389f","","1163","
                <div class=""stimulus-container"">
                    <img src=""images/causal_sequence/the_performance_causal/the_performance_causal_ten.png"" class=""exp-image"">
                    <div class=""question-area"">
                        <p style=""font-size: 20px; font-weight: bold; margin: 0;"">Is there a person in this image?</p>
                    </div>
                </div>","0","main_experiment_trial","ten","the_performance_causal","causal_sequence","chronological","","","","","","",""
"","","","","","html-keyboard-response","142","491767","0.0-142.0","9B0988A23ECB48B99EAE45B12C5DAED8","019d6be0-0507-7682-915c-b89917a1f1e5","019d6b6d-d11f-7233-9b95-7a424dbf389f","","null","<div style=""background-color: white; width: 100vw; height: 100vh;""></div>","null","","","","","","","","","","","",""
"","","","","","html-keyboard-response","143","496772","0.0-143.0","9B0988A23ECB48B99EAE45B12C5DAED8","019d6be0-0507-7682-915c-b89917a1f1e5","019d6b6d-d11f-7233-9b95-7a424dbf389f","","null","
                <div class=""stimulus-container"">
                    <img src=""semantic_sequence_notimeline/clothing_semantic/clothing_semantic_1.png"" class=""exp-image"">
                    <div class=""question-area""></div> 
                </div>","null","","","","","","","","","","","",""
"","","","","","html-button-response","144","498140","0.0-144.0","9B0988A23ECB48B99EAE45B12C5DAED8","019d6be0-0507-7682-915c-b89917a1f1e5","019d6b6d-d11f-7233-9b95-7a424dbf389f","","1367","
                <div class=""stimulus-container"">
                    <img src=""semantic_sequence_notimeline/clothing_semantic/clothing_semantic_1.png"" class=""exp-image"">
                    <div class=""question-area"">
                        <p style=""font-size: 20px; font-weight: bold; margin: 0;"">Is there a person in this image?</p>
                    </div>
                </div>","1","main_experiment_trial","1","clothing_semantic","semantic_sequence_notimeline","chronological","","","","","","",""
"","","","","","html-keyboard-response","145","503153","0.0-145.0","9B0988A23ECB48B99EAE45B12C5DAED8","019d6be0-0507-7682-915c-b89917a1f1e5","019d6b6d-d11f-7233-9b95-7a424dbf389f","","null","
                <div class=""stimulus-container"">
                    <img src=""semantic_sequence_notimeline/clothing_semantic/clothing_semantic_2.png"" class=""exp-image"">
                    <div class=""question-area""></div> 
                </div>","null","","","","","","","","","","","",""
"","","","","","html-button-response","146","504735","0.0-146.0","9B0988A23ECB48B99EAE45B12C5DAED8","019d6be0-0507-7682-915c-b89917a1f1e5","019d6b6d-d11f-7233-9b95-7a424dbf389f","","1581","
                <div class=""stimulus-container"">
                    <img src=""semantic_sequence_notimeline/clothing_semantic/clothing_semantic_2.png"" class=""exp-image"">
                    <div class=""question-area"">
                        <p style=""font-size: 20px; font-weight: bold; margin: 0;"">Is there a person in this image?</p>
                    </div>
                </div>","1","main_experiment_trial","2","clothing_semantic","semantic_sequence_notimeline","chronological","","","","","","",""
"","","","","","html-keyboard-response","147","509748","0.0-147.0","9B0988A23ECB48B99EAE45B12C5DAED8","019d6be0-0507-7682-915c-b89917a1f1e5","019d6b6d-d11f-7233-9b95-7a424dbf389f","","null","
                <div class=""stimulus-container"">
                    <img src=""semantic_sequence_notimeline/clothing_semantic/clothing_semantic_3.png"" class=""exp-image"">
                    <div class=""question-area""></div> 
                </div>","null","","","","","","","","","","","",""
"","","","","","html-button-response","148","510569","0.0-148.0","9B0988A23ECB48B99EAE45B12C5DAED8","019d6be0-0507-7682-915c-b89917a1f1e5","019d6b6d-d11f-7233-9b95-7a424dbf389f","","819","
                <div class=""stimulus-container"">
                    <img src=""semantic_sequence_notimeline/clothing_semantic/clothing_semantic_3.png"" class=""exp-image"">
                    <div class=""question-area"">
                        <p style=""font-size: 20px; font-weight: bold; margin: 0;"">Is there a person in this image?</p>
                    </div>
                </div>","1","main_experiment_trial","3","clothing_semantic","semantic_sequence_notimeline","chronological","","","","","","",""
"","","","","","html-keyboard-response","149","515571","0.0-149.0","9B0988A23ECB48B99EAE45B12C5DAED8","019d6be0-0507-7682-915c-b89917a1f1e5","019d6b6d-d11f-7233-9b95-7a424dbf389f","","null","
                <div class=""stimulus-container"">
                    <img src=""semantic_sequence_notimeline/clothing_semantic/clothing_semantic_4.png"" class=""exp-image"">
                    <div class=""question-area""></div> 
                </div>","null","","","","","","","","","","","",""
"","","","","","html-button-response","150","516756","0.0-150.0","9B0988A23ECB48B99EAE45B12C5DAED8","019d6be0-0507-7682-915c-b89917a1f1e5","019d6b6d-d11f-7233-9b95-7a424dbf389f","","1184","
                <div class=""stimulus-container"">
                    <img src=""semantic_sequence_notimeline/clothing_semantic/clothing_semantic_4.png"" class=""exp-image"">
                    <div class=""question-area"">
                        <p style=""font-size: 20px; font-weight: bold; margin: 0;"">Is there a person in this image?</p>
                    </div>
                </div>","1","main_experiment_trial","4","clothing_semantic","semantic_sequence_notimeline","chronological","","","","","","",""
"","","","","","html-keyboard-response","151","521770","0.0-151.0","9B0988A23ECB48B99EAE45B12C5DAED8","019d6be0-0507-7682-915c-b89917a1f1e5","019d6b6d-d11f-7233-9b95-7a424dbf389f","","null","
                <div class=""stimulus-container"">
                    <img src=""semantic_sequence_notimeline/clothing_semantic/clothing_semantic_5.png"" class=""exp-image"">
                    <div class=""question-area""></div> 
                </div>","null","","","","","","","","","","","",""
"","","","","","html-button-response","152","523530","0.0-152.0","9B0988A23ECB48B99EAE45B12C5DAED8","019d6be0-0507-7682-915c-b89917a1f1e5","019d6b6d-d11f-7233-9b95-7a424dbf389f","","1760","
                <div class=""stimulus-container"">
                    <img src=""semantic_sequence_notimeline/clothing_semantic/clothing_semantic_5.png"" class=""exp-image"">
                    <div class=""question-area"">
                        <p style=""font-size: 20px; font-weight: bold; margin: 0;"">Is there a person in this image?</p>
                    </div>
                </div>","1","main_experiment_trial","5","clothing_semantic","semantic_sequence_notimeline","chronological","","","","","","",""
"","","","","","html-keyboard-response","153","528541","0.0-153.0","9B0988A23ECB48B99EAE45B12C5DAED8","019d6be0-0507-7682-915c-b89917a1f1e5","019d6b6d-d11f-7233-9b95-7a424dbf389f","","null","
                <div class=""stimulus-container"">
                    <img src=""semantic_sequence_notimeline/clothing_semantic/clothing_semantic_6.png"" class=""exp-image"">
                    <div class=""question-area""></div> 
                </div>","null","","","","","","","","","","","",""
"","","","","","html-button-response","154","529448","0.0-154.0","9B0988A23ECB48B99EAE45B12C5DAED8","019d6be0-0507-7682-915c-b89917a1f1e5","019d6b6d-d11f-7233-9b95-7a424dbf389f","","905","
                <div class=""stimulus-container"">
                    <img src=""semantic_sequence_notimeline/clothing_semantic/clothing_semantic_6.png"" class=""exp-image"">
                    <div class=""question-area"">
                        <p style=""font-size: 20px; font-weight: bold; margin: 0;"">Is there a person in this image?</p>
                    </div>
                </div>","1","main_experiment_trial","6","clothing_semantic","semantic_sequence_notimeline","chronological","","","","","","",""
"","","","","","html-keyboard-response","155","534455","0.0-155.0","9B0988A23ECB48B99EAE45B12C5DAED8","019d6be0-0507-7682-915c-b89917a1f1e5","019d6b6d-d11f-7233-9b95-7a424dbf389f","","null","
                <div class=""stimulus-container"">
                    <img src=""semantic_sequence_notimeline/clothing_semantic/clothing_semantic_7.png"" class=""exp-image"">
                    <div class=""question-area""></div> 
                </div>","null","","","","","","","","","","","",""
"","","","","","html-button-response","156","535146","0.0-156.0","9B0988A23ECB48B99EAE45B12C5DAED8","019d6be0-0507-7682-915c-b89917a1f1e5","019d6b6d-d11f-7233-9b95-7a424dbf389f","","690","
                <div class=""stimulus-container"">
                    <img src=""semantic_sequence_notimeline/clothing_semantic/clothing_semantic_7.png"" class=""exp-image"">
                    <div class=""question-area"">
                        <p style=""font-size: 20px; font-weight: bold; margin: 0;"">Is there a person in this image?</p>
                    </div>
                </div>","1","main_experiment_trial","7","clothing_semantic","semantic_sequence_notimeline","chronological","","","","","","",""
"","","","","","html-keyboard-response","157","540157","0.0-157.0","9B0988A23ECB48B99EAE45B12C5DAED8","019d6be0-0507-7682-915c-b89917a1f1e5","019d6b6d-d11f-7233-9b95-7a424dbf389f","","null","
                <div class=""stimulus-container"">
                    <img src=""semantic_sequence_notimeline/clothing_semantic/clothing_semantic_8.png"" class=""exp-image"">
                    <div class=""question-area""></div> 
                </div>","null","","","","","","","","","","","",""
"","","","","","html-button-response","158","541159","0.0-158.0","9B0988A23ECB48B99EAE45B12C5DAED8","019d6be0-0507-7682-915c-b89917a1f1e5","019d6b6d-d11f-7233-9b95-7a424dbf389f","","1001","
                <div class=""stimulus-container"">
                    <img src=""semantic_sequence_notimeline/clothing_semantic/clothing_semantic_8.png"" class=""exp-image"">
                    <div class=""question-area"">
                        <p style=""font-size: 20px; font-weight: bold; margin: 0;"">Is there a person in this image?</p>
                    </div>
                </div>","1","main_experiment_trial","8","clothing_semantic","semantic_sequence_notimeline","chronological","","","","","","",""
"","","","","","html-keyboard-response","159","546167","0.0-159.0","9B0988A23ECB48B99EAE45B12C5DAED8","019d6be0-0507-7682-915c-b89917a1f1e5","019d6b6d-d11f-7233-9b95-7a424dbf389f","","null","
                <div class=""stimulus-container"">
                    <img src=""semantic_sequence_notimeline/clothing_semantic/clothing_semantic_9.png"" class=""exp-image"">
                    <div class=""question-area""></div> 
                </div>","null","","","","","","","","","","","",""
"","","","","","html-button-response","160","548283","0.0-160.0","9B0988A23ECB48B99EAE45B12C5DAED8","019d6be0-0507-7682-915c-b89917a1f1e5","019d6b6d-d11f-7233-9b95-7a424dbf389f","","2115","
                <div class=""stimulus-container"">
                    <img src=""semantic_sequence_notimeline/clothing_semantic/clothing_semantic_9.png"" class=""exp-image"">
                    <div class=""question-area"">
                        <p style=""font-size: 20px; font-weight: bold; margin: 0;"">Is there a person in this image?</p>
                    </div>
                </div>","1","main_experiment_trial","9","clothing_semantic","semantic_sequence_notimeline","chronological","","","","","","",""
"","","","","","html-keyboard-response","161","553299","0.0-161.0","9B0988A23ECB48B99EAE45B12C5DAED8","019d6be0-0507-7682-915c-b89917a1f1e5","019d6b6d-d11f-7233-9b95-7a424dbf389f","","null","
                <div class=""stimulus-container"">
                    <img src=""semantic_sequence_notimeline/clothing_semantic/clothing_semantic_ten.png"" class=""exp-image"">
                    <div class=""question-area""></div> 
                </div>","null","","","","","","","","","","","",""
"","","","","","html-button-response","162","554643","0.0-162.0","9B0988A23ECB48B99EAE45B12C5DAED8","019d6be0-0507-7682-915c-b89917a1f1e5","019d6b6d-d11f-7233-9b95-7a424dbf389f","","1343","
                <div class=""stimulus-container"">
                    <img src=""semantic_sequence_notimeline/clothing_semantic/clothing_semantic_ten.png"" class=""exp-image"">
                    <div class=""question-area"">
                        <p style=""font-size: 20px; font-weight: bold; margin: 0;"">Is there a person in this image?</p>
                    </div>
                </div>","1","main_experiment_trial","ten","clothing_semantic","semantic_sequence_notimeline","chronological","","","","","","",""
"","","","","","html-keyboard-response","163","559651","0.0-163.0","9B0988A23ECB48B99EAE45B12C5DAED8","019d6be0-0507-7682-915c-b89917a1f1e5","019d6b6d-d11f-7233-9b95-7a424dbf389f","","null","<div style=""background-color: white; width: 100vw; height: 100vh;""></div>","null","","","","","","","","","","","",""
"","","","","","html-keyboard-response","164","564666","0.0-164.0","9B0988A23ECB48B99EAE45B12C5DAED8","019d6be0-0507-7682-915c-b89917a1f1e5","019d6b6d-d11f-7233-9b95-7a424dbf389f","","null","
                <div class=""stimulus-container"">
                    <img src=""images/causal_sequence/museum_causal/museum_causal_1.png"" class=""exp-image"">
                    <div class=""question-area""></div> 
                </div>","null","","","","","","","","","","","",""
"","","","","","html-button-response","165","566395","0.0-165.0","9B0988A23ECB48B99EAE45B12C5DAED8","019d6be0-0507-7682-915c-b89917a1f1e5","019d6b6d-d11f-7233-9b95-7a424dbf389f","","1728","
                <div class=""stimulus-container"">
                    <img src=""images/causal_sequence/museum_causal/museum_causal_1.png"" class=""exp-image"">
                    <div class=""question-area"">
                        <p style=""font-size: 20px; font-weight: bold; margin: 0;"">Is there a person in this image?</p>
                    </div>
                </div>","0","main_experiment_trial","1","museum_causal","causal_sequence","chronological","","","","","","",""
"","","","","","html-keyboard-response","166","571410","0.0-166.0","9B0988A23ECB48B99EAE45B12C5DAED8","019d6be0-0507-7682-915c-b89917a1f1e5","019d6b6d-d11f-7233-9b95-7a424dbf389f","","null","
                <div class=""stimulus-container"">
                    <img src=""images/causal_sequence/museum_causal/museum_causal_2.png"" class=""exp-image"">
                    <div class=""question-area""></div> 
                </div>","null","","","","","","","","","","","",""
"","","","","","html-button-response","167","574202","0.0-167.0","9B0988A23ECB48B99EAE45B12C5DAED8","019d6be0-0507-7682-915c-b89917a1f1e5","019d6b6d-d11f-7233-9b95-7a424dbf389f","","2789","
                <div class=""stimulus-container"">
                    <img src=""images/causal_sequence/museum_causal/museum_causal_2.png"" class=""exp-image"">
                    <div class=""question-area"">
                        <p style=""font-size: 20px; font-weight: bold; margin: 0;"">Is there a person in this image?</p>
                    </div>
                </div>","0","main_experiment_trial","2","museum_causal","causal_sequence","chronological","","","","","","",""
"","","","","","html-keyboard-response","168","579203","0.0-168.0","9B0988A23ECB48B99EAE45B12C5DAED8","019d6be0-0507-7682-915c-b89917a1f1e5","019d6b6d-d11f-7233-9b95-7a424dbf389f","","null","
                <div class=""stimulus-container"">
                    <img src=""images/causal_sequence/museum_causal/museum_causal_3.png"" class=""exp-image"">
                    <div class=""question-area""></div> 
                </div>","null","","","","","","","","","","","",""
"","","","","","html-button-response","169","580571","0.0-169.0","9B0988A23ECB48B99EAE45B12C5DAED8","019d6be0-0507-7682-915c-b89917a1f1e5","019d6b6d-d11f-7233-9b95-7a424dbf389f","","1366","
                <div class=""stimulus-container"">
                    <img src=""images/causal_sequence/museum_causal/museum_causal_3.png"" class=""exp-image"">
                    <div class=""question-area"">
                        <p style=""font-size: 20px; font-weight: bold; margin: 0;"">Is there a person in this image?</p>
                    </div>
                </div>","0","main_experiment_trial","3","museum_causal","causal_sequence","chronological","","","","","","",""
"","","","","","html-keyboard-response","170","585572","0.0-170.0","9B0988A23ECB48B99EAE45B12C5DAED8","019d6be0-0507-7682-915c-b89917a1f1e5","019d6b6d-d11f-7233-9b95-7a424dbf389f","","null","
                <div class=""stimulus-container"">
                    <img src=""images/causal_sequence/museum_causal/museum_causal_4.png"" class=""exp-image"">
                    <div class=""question-area""></div> 
                </div>","null","","","","","","","","","","","",""
"","","","","","html-button-response","171","587002","0.0-171.0","9B0988A23ECB48B99EAE45B12C5DAED8","019d6be0-0507-7682-915c-b89917a1f1e5","019d6b6d-d11f-7233-9b95-7a424dbf389f","","1428","
                <div class=""stimulus-container"">
                    <img src=""images/causal_sequence/museum_causal/museum_causal_4.png"" class=""exp-image"">
                    <div class=""question-area"">
                        <p style=""font-size: 20px; font-weight: bold; margin: 0;"">Is there a person in this image?</p>
                    </div>
                </div>","1","main_experiment_trial","4","museum_causal","causal_sequence","chronological","","","","","","",""
"","","","","","html-keyboard-response","172","592007","0.0-172.0","9B0988A23ECB48B99EAE45B12C5DAED8","019d6be0-0507-7682-915c-b89917a1f1e5","019d6b6d-d11f-7233-9b95-7a424dbf389f","","null","
                <div class=""stimulus-container"">
                    <img src=""images/causal_sequence/museum_causal/museum_causal_5.png"" class=""exp-image"">
                    <div class=""question-area""></div> 
                </div>","null","","","","","","","","","","","",""
"","","","","","html-button-response","173","594334","0.0-173.0","9B0988A23ECB48B99EAE45B12C5DAED8","019d6be0-0507-7682-915c-b89917a1f1e5","019d6b6d-d11f-7233-9b95-7a424dbf389f","","2326","
                <div class=""stimulus-container"">
                    <img src=""images/causal_sequence/museum_causal/museum_causal_5.png"" class=""exp-image"">
                    <div class=""question-area"">
                        <p style=""font-size: 20px; font-weight: bold; margin: 0;"">Is there a person in this image?</p>
                    </div>
                </div>","0","main_experiment_trial","5","museum_causal","causal_sequence","chronological","","","","","","",""
"","","","","","html-keyboard-response","174","599346","0.0-174.0","9B0988A23ECB48B99EAE45B12C5DAED8","019d6be0-0507-7682-915c-b89917a1f1e5","019d6b6d-d11f-7233-9b95-7a424dbf389f","","null","
                <div class=""stimulus-container"">
                    <img src=""images/causal_sequence/museum_causal/museum_causal_6.png"" class=""exp-image"">
                    <div class=""question-area""></div> 
                </div>","null","","","","","","","","","","","",""
"","","","","","html-button-response","175","600672","0.0-175.0","9B0988A23ECB48B99EAE45B12C5DAED8","019d6be0-0507-7682-915c-b89917a1f1e5","019d6b6d-d11f-7233-9b95-7a424dbf389f","","1325","
                <div class=""stimulus-container"">
                    <img src=""images/causal_sequence/museum_causal/museum_causal_6.png"" class=""exp-image"">
                    <div class=""question-area"">
                        <p style=""font-size: 20px; font-weight: bold; margin: 0;"">Is there a person in this image?</p>
                    </div>
                </div>","0","main_experiment_trial","6","museum_causal","causal_sequence","chronological","","","","","","",""
"","","","","","html-keyboard-response","176","605677","0.0-176.0","9B0988A23ECB48B99EAE45B12C5DAED8","019d6be0-0507-7682-915c-b89917a1f1e5","019d6b6d-d11f-7233-9b95-7a424dbf389f","","null","
                <div class=""stimulus-container"">
                    <img src=""images/causal_sequence/museum_causal/museum_causal_7.png"" class=""exp-image"">
                    <div class=""question-area""></div> 
                </div>","null","","","","","","","","","","","",""
"","","","","","html-button-response","177","607038","0.0-177.0","9B0988A23ECB48B99EAE45B12C5DAED8","019d6be0-0507-7682-915c-b89917a1f1e5","019d6b6d-d11f-7233-9b95-7a424dbf389f","","1359","
                <div class=""stimulus-container"">
                    <img src=""images/causal_sequence/museum_causal/museum_causal_7.png"" class=""exp-image"">
                    <div class=""question-area"">
