"success","timeout","failed_images","failed_audio","failed_video","trial_type","trial_index","time_elapsed","internal_node_id","subject_id","study_id","session_id","view_history","rt","stimulus","response","task","image_index","folder","sequence_type","valuable_image_index","reward_type","correct_choice","chosen_image_index","target_X"
"true","false","[]","[]","[]","preload","0","70332","0.0-0.0","015D95BA960E4D8387F933A0C7E87F69","019cf810-8532-78dd-9836-a43d97900524","019cf80d-4266-7117-8a51-54e13c84aca4","","","","","","","","","","","","",""
"","","","","","instructions","1","76445","0.0-1.0","015D95BA960E4D8387F933A0C7E87F69","019cf810-8532-78dd-9836-a43d97900524","019cf80d-4266-7117-8a51-54e13c84aca4","[{""page_index"":0,""viewing_time"":6113}]","6113","","","","","","","","","","",""
"","","","","","instructions","2","81097","0.0-2.0","015D95BA960E4D8387F933A0C7E87F69","019cf810-8532-78dd-9836-a43d97900524","019cf80d-4266-7117-8a51-54e13c84aca4","[{""page_index"":0,""viewing_time"":4650}]","4651","","","","","","","","","","",""
"true","","","","","fullscreen","3","85795","0.0-3.0","015D95BA960E4D8387F933A0C7E87F69","019cf810-8532-78dd-9836-a43d97900524","019cf80d-4266-7117-8a51-54e13c84aca4","","3696","","","","","","","","","","",""
"","","","","","instructions","4","98655","0.0-4.0","015D95BA960E4D8387F933A0C7E87F69","019cf810-8532-78dd-9836-a43d97900524","019cf80d-4266-7117-8a51-54e13c84aca4","[{""page_index"":0,""viewing_time"":12859}]","12859","","","","","","","","","","",""
"","","","","","instructions","5","100851","0.0-5.0","015D95BA960E4D8387F933A0C7E87F69","019cf810-8532-78dd-9836-a43d97900524","019cf80d-4266-7117-8a51-54e13c84aca4","[{""page_index"":0,""viewing_time"":2196}]","2197","","","","","","","","","","",""
"","","","","","html-keyboard-response","6","104862","0.0-6.0","015D95BA960E4D8387F933A0C7E87F69","019cf810-8532-78dd-9836-a43d97900524","019cf80d-4266-7117-8a51-54e13c84aca4","","null","
                <div class=""stimulus-container"">
                    <img src=""images/instructions/movie_1.png"" class=""exp-image"">
                    <div class=""question-area""></div> 
                </div>","null","","","","","","","","",""
"","","","","","html-button-response","7","107730","0.0-7.0","015D95BA960E4D8387F933A0C7E87F69","019cf810-8532-78dd-9836-a43d97900524","019cf80d-4266-7117-8a51-54e13c84aca4","","2867","
                <div class=""stimulus-container"">
                    <img src=""images/instructions/movie_1.png"" class=""exp-image"">
                    <div class=""question-area"">
                        <p style=""font-size: 20px; font-weight: bold; margin: 0;"">Was there a person in this image?</p>
                    </div>
                </div>","0","example_question","1","","","","","","",""
"","","","","","html-keyboard-response","8","111739","0.0-8.0","015D95BA960E4D8387F933A0C7E87F69","019cf810-8532-78dd-9836-a43d97900524","019cf80d-4266-7117-8a51-54e13c84aca4","","null","
                <div class=""stimulus-container"">
                    <img src=""images/instructions/movie_2.png"" class=""exp-image"">
                    <div class=""question-area""></div> 
                </div>","null","","","","","","","","",""
"","","","","","html-button-response","9","113843","0.0-9.0","015D95BA960E4D8387F933A0C7E87F69","019cf810-8532-78dd-9836-a43d97900524","019cf80d-4266-7117-8a51-54e13c84aca4","","2103","
                <div class=""stimulus-container"">
                    <img src=""images/instructions/movie_2.png"" class=""exp-image"">
                    <div class=""question-area"">
                        <p style=""font-size: 20px; font-weight: bold; margin: 0;"">Was there a person in this image?</p>
                    </div>
                </div>","0","example_question","2","","","","","","",""
"","","","","","html-keyboard-response","10","117854","0.0-10.0","015D95BA960E4D8387F933A0C7E87F69","019cf810-8532-78dd-9836-a43d97900524","019cf80d-4266-7117-8a51-54e13c84aca4","","null","
                <div class=""stimulus-container"">
                    <img src=""images/instructions/movie_3.png"" class=""exp-image"">
                    <div class=""question-area""></div> 
                </div>","null","","","","","","","","",""
"","","","","","html-button-response","11","120488","0.0-11.0","015D95BA960E4D8387F933A0C7E87F69","019cf810-8532-78dd-9836-a43d97900524","019cf80d-4266-7117-8a51-54e13c84aca4","","2633","
                <div class=""stimulus-container"">
                    <img src=""images/instructions/movie_3.png"" class=""exp-image"">
                    <div class=""question-area"">
                        <p style=""font-size: 20px; font-weight: bold; margin: 0;"">Was there a person in this image?</p>
                    </div>
                </div>","0","example_question","3","","","","","","",""
"","","","","","html-keyboard-response","12","124495","0.0-12.0","015D95BA960E4D8387F933A0C7E87F69","019cf810-8532-78dd-9836-a43d97900524","019cf80d-4266-7117-8a51-54e13c84aca4","","null","
                <div class=""stimulus-container"">
                    <img src=""images/instructions/movie_4.png"" class=""exp-image"">
                    <div class=""question-area""></div> 
                </div>","null","","","","","","","","",""
"","","","","","html-button-response","13","126917","0.0-13.0","015D95BA960E4D8387F933A0C7E87F69","019cf810-8532-78dd-9836-a43d97900524","019cf80d-4266-7117-8a51-54e13c84aca4","","2421","
                <div class=""stimulus-container"">
                    <img src=""images/instructions/movie_4.png"" class=""exp-image"">
                    <div class=""question-area"">
                        <p style=""font-size: 20px; font-weight: bold; margin: 0;"">Was there a person in this image?</p>
                    </div>
                </div>","0","example_question","4","","","","","","",""
"","","","","","instructions","14","130000","0.0-14.0","015D95BA960E4D8387F933A0C7E87F69","019cf810-8532-78dd-9836-a43d97900524","019cf80d-4266-7117-8a51-54e13c84aca4","[{""page_index"":0,""viewing_time"":3083}]","3083","","","","","","","","","","",""
"","","","","","instructions","15","135393","0.0-15.0","015D95BA960E4D8387F933A0C7E87F69","019cf810-8532-78dd-9836-a43d97900524","019cf80d-4266-7117-8a51-54e13c84aca4","[{""page_index"":0,""viewing_time"":5392}]","5392","","","","","","","","","","",""
"","","","","","html-keyboard-response","16","136395","0.0-16.0","015D95BA960E4D8387F933A0C7E87F69","019cf810-8532-78dd-9836-a43d97900524","019cf80d-4266-7117-8a51-54e13c84aca4","","null","<div style=""background-color: white; width: 100vw; height: 100vh;""></div>","null","","","","","","","","",""
"","","","","","html-keyboard-response","17","141408","0.0-17.0","015D95BA960E4D8387F933A0C7E87F69","019cf810-8532-78dd-9836-a43d97900524","019cf80d-4266-7117-8a51-54e13c84aca4","","null","
                <div class=""stimulus-container"">
                    <img src=""images/semantic_sequence/exploring_nature_semantic/exploring_nature_semantic_1.png"" class=""exp-image"">
                    <div class=""question-area""></div> 
                </div>","null","","","","","","","","",""
"","","","","","html-button-response","18","143013","0.0-18.0","015D95BA960E4D8387F933A0C7E87F69","019cf810-8532-78dd-9836-a43d97900524","019cf80d-4266-7117-8a51-54e13c84aca4","","1604","
                <div class=""stimulus-container"">
                    <img src=""images/semantic_sequence/exploring_nature_semantic/exploring_nature_semantic_1.png"" class=""exp-image"">
                    <div class=""question-area"">
                        <p style=""font-size: 20px; font-weight: bold; margin: 0;"">Is there a person in this image?</p>
                    </div>
                </div>","0","main_experiment_trial","1","exploring_nature_semantic","semantic_sequence","","","","",""
"","","","","","html-keyboard-response","19","148021","0.0-19.0","015D95BA960E4D8387F933A0C7E87F69","019cf810-8532-78dd-9836-a43d97900524","019cf80d-4266-7117-8a51-54e13c84aca4","","null","
                <div class=""stimulus-container"">
                    <img src=""images/semantic_sequence/exploring_nature_semantic/exploring_nature_semantic_2.png"" class=""exp-image"">
                    <div class=""question-area""></div> 
                </div>","null","","","","","","","","",""
"","","","","","html-button-response","20","149238","0.0-20.0","015D95BA960E4D8387F933A0C7E87F69","019cf810-8532-78dd-9836-a43d97900524","019cf80d-4266-7117-8a51-54e13c84aca4","","1216","
                <div class=""stimulus-container"">
                    <img src=""images/semantic_sequence/exploring_nature_semantic/exploring_nature_semantic_2.png"" class=""exp-image"">
                    <div class=""question-area"">
                        <p style=""font-size: 20px; font-weight: bold; margin: 0;"">Is there a person in this image?</p>
                    </div>
                </div>","0","main_experiment_trial","2","exploring_nature_semantic","semantic_sequence","","","","",""
"","","","","","html-keyboard-response","21","154247","0.0-21.0","015D95BA960E4D8387F933A0C7E87F69","019cf810-8532-78dd-9836-a43d97900524","019cf80d-4266-7117-8a51-54e13c84aca4","","null","
                <div class=""stimulus-container"">
                    <img src=""images/semantic_sequence/exploring_nature_semantic/exploring_nature_semantic_3.png"" class=""exp-image"">
                    <div class=""question-area""></div> 
                </div>","null","","","","","","","","",""
"","","","","","html-button-response","22","156393","0.0-22.0","015D95BA960E4D8387F933A0C7E87F69","019cf810-8532-78dd-9836-a43d97900524","019cf80d-4266-7117-8a51-54e13c84aca4","","2145","
                <div class=""stimulus-container"">
                    <img src=""images/semantic_sequence/exploring_nature_semantic/exploring_nature_semantic_3.png"" class=""exp-image"">
                    <div class=""question-area"">
                        <p style=""font-size: 20px; font-weight: bold; margin: 0;"">Is there a person in this image?</p>
                    </div>
                </div>","0","main_experiment_trial","3","exploring_nature_semantic","semantic_sequence","","","","",""
"","","","","","html-keyboard-response","23","161398","0.0-23.0","015D95BA960E4D8387F933A0C7E87F69","019cf810-8532-78dd-9836-a43d97900524","019cf80d-4266-7117-8a51-54e13c84aca4","","null","
                <div class=""stimulus-container"">
                    <img src=""images/semantic_sequence/exploring_nature_semantic/exploring_nature_semantic_4.png"" class=""exp-image"">
                    <div class=""question-area""></div> 
                </div>","null","","","","","","","","",""
"","","","","","html-button-response","24","162791","0.0-24.0","015D95BA960E4D8387F933A0C7E87F69","019cf810-8532-78dd-9836-a43d97900524","019cf80d-4266-7117-8a51-54e13c84aca4","","1392","
                <div class=""stimulus-container"">
                    <img src=""images/semantic_sequence/exploring_nature_semantic/exploring_nature_semantic_4.png"" class=""exp-image"">
                    <div class=""question-area"">
                        <p style=""font-size: 20px; font-weight: bold; margin: 0;"">Is there a person in this image?</p>
                    </div>
                </div>","0","main_experiment_trial","4","exploring_nature_semantic","semantic_sequence","","","","",""
"","","","","","html-keyboard-response","25","167794","0.0-25.0","015D95BA960E4D8387F933A0C7E87F69","019cf810-8532-78dd-9836-a43d97900524","019cf80d-4266-7117-8a51-54e13c84aca4","","null","
                <div class=""stimulus-container"">
                    <img src=""images/semantic_sequence/exploring_nature_semantic/exploring_nature_semantic_5.png"" class=""exp-image"">
                    <div class=""question-area""></div> 
                </div>","null","","","","","","","","",""
"","","","","","html-button-response","26","169166","0.0-26.0","015D95BA960E4D8387F933A0C7E87F69","019cf810-8532-78dd-9836-a43d97900524","019cf80d-4266-7117-8a51-54e13c84aca4","","1371","
                <div class=""stimulus-container"">
                    <img src=""images/semantic_sequence/exploring_nature_semantic/exploring_nature_semantic_5.png"" class=""exp-image"">
                    <div class=""question-area"">
                        <p style=""font-size: 20px; font-weight: bold; margin: 0;"">Is there a person in this image?</p>
                    </div>
                </div>","0","main_experiment_trial","5","exploring_nature_semantic","semantic_sequence","","","","",""
"","","","","","html-keyboard-response","27","174180","0.0-27.0","015D95BA960E4D8387F933A0C7E87F69","019cf810-8532-78dd-9836-a43d97900524","019cf80d-4266-7117-8a51-54e13c84aca4","","null","
                <div class=""stimulus-container"">
                    <img src=""images/semantic_sequence/exploring_nature_semantic/exploring_nature_semantic_6.png"" class=""exp-image"">
                    <div class=""question-area""></div> 
                </div>","null","","","","","","","","",""
"","","","","","html-button-response","28","175504","0.0-28.0","015D95BA960E4D8387F933A0C7E87F69","019cf810-8532-78dd-9836-a43d97900524","019cf80d-4266-7117-8a51-54e13c84aca4","","1323","
                <div class=""stimulus-container"">
                    <img src=""images/semantic_sequence/exploring_nature_semantic/exploring_nature_semantic_6.png"" class=""exp-image"">
                    <div class=""question-area"">
                        <p style=""font-size: 20px; font-weight: bold; margin: 0;"">Is there a person in this image?</p>
                    </div>
                </div>","0","main_experiment_trial","6","exploring_nature_semantic","semantic_sequence","","","","",""
"","","","","","html-keyboard-response","29","180515","0.0-29.0","015D95BA960E4D8387F933A0C7E87F69","019cf810-8532-78dd-9836-a43d97900524","019cf80d-4266-7117-8a51-54e13c84aca4","","null","
                <div class=""stimulus-container"">
                    <img src=""images/semantic_sequence/exploring_nature_semantic/exploring_nature_semantic_7.png"" class=""exp-image"">
                    <div class=""question-area""></div> 
                </div>","null","","","","","","","","",""
"","","","","","html-button-response","30","182067","0.0-30.0","015D95BA960E4D8387F933A0C7E87F69","019cf810-8532-78dd-9836-a43d97900524","019cf80d-4266-7117-8a51-54e13c84aca4","","1551","
                <div class=""stimulus-container"">
                    <img src=""images/semantic_sequence/exploring_nature_semantic/exploring_nature_semantic_7.png"" class=""exp-image"">
                    <div class=""question-area"">
                        <p style=""font-size: 20px; font-weight: bold; margin: 0;"">Is there a person in this image?</p>
                    </div>
                </div>","0","main_experiment_trial","7","exploring_nature_semantic","semantic_sequence","","","","",""
"","","","","","html-keyboard-response","31","187080","0.0-31.0","015D95BA960E4D8387F933A0C7E87F69","019cf810-8532-78dd-9836-a43d97900524","019cf80d-4266-7117-8a51-54e13c84aca4","","null","
                <div class=""stimulus-container"">
                    <img src=""images/semantic_sequence/exploring_nature_semantic/exploring_nature_semantic_8.png"" class=""exp-image"">
                    <div class=""question-area""></div> 
                </div>","null","","","","","","","","",""
"","","","","","html-button-response","32","188315","0.0-32.0","015D95BA960E4D8387F933A0C7E87F69","019cf810-8532-78dd-9836-a43d97900524","019cf80d-4266-7117-8a51-54e13c84aca4","","1234","
                <div class=""stimulus-container"">
                    <img src=""images/semantic_sequence/exploring_nature_semantic/exploring_nature_semantic_8.png"" class=""exp-image"">
                    <div class=""question-area"">
                        <p style=""font-size: 20px; font-weight: bold; margin: 0;"">Is there a person in this image?</p>
                    </div>
                </div>","0","main_experiment_trial","8","exploring_nature_semantic","semantic_sequence","","","","",""
"","","","","","html-keyboard-response","33","193321","0.0-33.0","015D95BA960E4D8387F933A0C7E87F69","019cf810-8532-78dd-9836-a43d97900524","019cf80d-4266-7117-8a51-54e13c84aca4","","null","
                <div class=""stimulus-container"">
                    <img src=""images/semantic_sequence/exploring_nature_semantic/exploring_nature_semantic_9.png"" class=""exp-image"">
                    <div class=""question-area""></div> 
                </div>","null","","","","","","","","",""
"","","","","","html-button-response","34","194705","0.0-34.0","015D95BA960E4D8387F933A0C7E87F69","019cf810-8532-78dd-9836-a43d97900524","019cf80d-4266-7117-8a51-54e13c84aca4","","1383","
                <div class=""stimulus-container"">
                    <img src=""images/semantic_sequence/exploring_nature_semantic/exploring_nature_semantic_9.png"" class=""exp-image"">
                    <div class=""question-area"">
                        <p style=""font-size: 20px; font-weight: bold; margin: 0;"">Is there a person in this image?</p>
                    </div>
                </div>","0","main_experiment_trial","9","exploring_nature_semantic","semantic_sequence","","","","",""
"","","","","","html-keyboard-response","35","199712","0.0-35.0","015D95BA960E4D8387F933A0C7E87F69","019cf810-8532-78dd-9836-a43d97900524","019cf80d-4266-7117-8a51-54e13c84aca4","","null","
                <div class=""stimulus-container"">
                    <img src=""images/semantic_sequence/exploring_nature_semantic/exploring_nature_semantic_ten.png"" class=""exp-image"">
                    <div class=""question-area""></div> 
                </div>","null","","","","","","","","",""
"","","","","","html-button-response","36","201359","0.0-36.0","015D95BA960E4D8387F933A0C7E87F69","019cf810-8532-78dd-9836-a43d97900524","019cf80d-4266-7117-8a51-54e13c84aca4","","1646","
                <div class=""stimulus-container"">
                    <img src=""images/semantic_sequence/exploring_nature_semantic/exploring_nature_semantic_ten.png"" class=""exp-image"">
                    <div class=""question-area"">
                        <p style=""font-size: 20px; font-weight: bold; margin: 0;"">Is there a person in this image?</p>
                    </div>
                </div>","0","main_experiment_trial","ten","exploring_nature_semantic","semantic_sequence","","","","",""
"","","","","","html-keyboard-response","37","202366","0.0-37.0","015D95BA960E4D8387F933A0C7E87F69","019cf810-8532-78dd-9836-a43d97900524","019cf80d-4266-7117-8a51-54e13c84aca4","","null","<div style=""background-color: white; width: 100vw; height: 100vh;""></div>","null","","","","","","","","",""
"","","","","","html-keyboard-response","38","207382","0.0-38.0","015D95BA960E4D8387F933A0C7E87F69","019cf810-8532-78dd-9836-a43d97900524","019cf80d-4266-7117-8a51-54e13c84aca4","","null","
                <div class=""stimulus-container"">
                    <img src=""images/semantic_sequence/using_technology_semantic/using_technology_semantic_1.png"" class=""exp-image"">
                    <div class=""question-area""></div> 
                </div>","null","","","","","","","","",""
"","","","","","html-button-response","39","208949","0.0-39.0","015D95BA960E4D8387F933A0C7E87F69","019cf810-8532-78dd-9836-a43d97900524","019cf80d-4266-7117-8a51-54e13c84aca4","","1566","
                <div class=""stimulus-container"">
                    <img src=""images/semantic_sequence/using_technology_semantic/using_technology_semantic_1.png"" class=""exp-image"">
                    <div class=""question-area"">
                        <p style=""font-size: 20px; font-weight: bold; margin: 0;"">Is there a person in this image?</p>
                    </div>
                </div>","0","main_experiment_trial","1","using_technology_semantic","semantic_sequence","","","","",""
"","","","","","html-keyboard-response","40","213966","0.0-40.0","015D95BA960E4D8387F933A0C7E87F69","019cf810-8532-78dd-9836-a43d97900524","019cf80d-4266-7117-8a51-54e13c84aca4","","null","
                <div class=""stimulus-container"">
                    <img src=""images/semantic_sequence/using_technology_semantic/using_technology_semantic_2.png"" class=""exp-image"">
                    <div class=""question-area""></div> 
                </div>","null","","","","","","","","",""
"","","","","","html-button-response","41","215586","0.0-41.0","015D95BA960E4D8387F933A0C7E87F69","019cf810-8532-78dd-9836-a43d97900524","019cf80d-4266-7117-8a51-54e13c84aca4","","1620","
                <div class=""stimulus-container"">
                    <img src=""images/semantic_sequence/using_technology_semantic/using_technology_semantic_2.png"" class=""exp-image"">
                    <div class=""question-area"">
                        <p style=""font-size: 20px; font-weight: bold; margin: 0;"">Is there a person in this image?</p>
                    </div>
                </div>","0","main_experiment_trial","2","using_technology_semantic","semantic_sequence","","","","",""
"","","","","","html-keyboard-response","42","220594","0.0-42.0","015D95BA960E4D8387F933A0C7E87F69","019cf810-8532-78dd-9836-a43d97900524","019cf80d-4266-7117-8a51-54e13c84aca4","","null","
                <div class=""stimulus-container"">
                    <img src=""images/semantic_sequence/using_technology_semantic/using_technology_semantic_3.png"" class=""exp-image"">
                    <div class=""question-area""></div> 
                </div>","null","","","","","","","","",""
"","","","","","html-button-response","43","221843","0.0-43.0","015D95BA960E4D8387F933A0C7E87F69","019cf810-8532-78dd-9836-a43d97900524","019cf80d-4266-7117-8a51-54e13c84aca4","","1248","
                <div class=""stimulus-container"">
                    <img src=""images/semantic_sequence/using_technology_semantic/using_technology_semantic_3.png"" class=""exp-image"">
                    <div class=""question-area"">
                        <p style=""font-size: 20px; font-weight: bold; margin: 0;"">Is there a person in this image?</p>
                    </div>
                </div>","0","main_experiment_trial","3","using_technology_semantic","semantic_sequence","","","","",""
"","","","","","html-keyboard-response","44","226847","0.0-44.0","015D95BA960E4D8387F933A0C7E87F69","019cf810-8532-78dd-9836-a43d97900524","019cf80d-4266-7117-8a51-54e13c84aca4","","null","
                <div class=""stimulus-container"">
                    <img src=""images/semantic_sequence/using_technology_semantic/using_technology_semantic_4.png"" class=""exp-image"">
                    <div class=""question-area""></div> 
                </div>","null","","","","","","","","",""
"","","","","","html-button-response","45","228487","0.0-45.0","015D95BA960E4D8387F933A0C7E87F69","019cf810-8532-78dd-9836-a43d97900524","019cf80d-4266-7117-8a51-54e13c84aca4","","1639","
                <div class=""stimulus-container"">
                    <img src=""images/semantic_sequence/using_technology_semantic/using_technology_semantic_4.png"" class=""exp-image"">
                    <div class=""question-area"">
                        <p style=""font-size: 20px; font-weight: bold; margin: 0;"">Is there a person in this image?</p>
                    </div>
                </div>","0","main_experiment_trial","4","using_technology_semantic","semantic_sequence","","","","",""
"","","","","","html-keyboard-response","46","233499","0.0-46.0","015D95BA960E4D8387F933A0C7E87F69","019cf810-8532-78dd-9836-a43d97900524","019cf80d-4266-7117-8a51-54e13c84aca4","","null","
                <div class=""stimulus-container"">
                    <img src=""images/semantic_sequence/using_technology_semantic/using_technology_semantic_5.png"" class=""exp-image"">
                    <div class=""question-area""></div> 
                </div>","null","","","","","","","","",""
"","","","","","html-button-response","47","234451","0.0-47.0","015D95BA960E4D8387F933A0C7E87F69","019cf810-8532-78dd-9836-a43d97900524","019cf80d-4266-7117-8a51-54e13c84aca4","","951","
                <div class=""stimulus-container"">
                    <img src=""images/semantic_sequence/using_technology_semantic/using_technology_semantic_5.png"" class=""exp-image"">
                    <div class=""question-area"">
                        <p style=""font-size: 20px; font-weight: bold; margin: 0;"">Is there a person in this image?</p>
                    </div>
                </div>","0","main_experiment_trial","5","using_technology_semantic","semantic_sequence","","","","",""
"","","","","","html-keyboard-response","48","239466","0.0-48.0","015D95BA960E4D8387F933A0C7E87F69","019cf810-8532-78dd-9836-a43d97900524","019cf80d-4266-7117-8a51-54e13c84aca4","","null","
                <div class=""stimulus-container"">
                    <img src=""images/semantic_sequence/using_technology_semantic/using_technology_semantic_6.png"" class=""exp-image"">
                    <div class=""question-area""></div> 
                </div>","null","","","","","","","","",""
"","","","","","html-button-response","49","240407","0.0-49.0","015D95BA960E4D8387F933A0C7E87F69","019cf810-8532-78dd-9836-a43d97900524","019cf80d-4266-7117-8a51-54e13c84aca4","","940","
                <div class=""stimulus-container"">
                    <img src=""images/semantic_sequence/using_technology_semantic/using_technology_semantic_6.png"" class=""exp-image"">
                    <div class=""question-area"">
                        <p style=""font-size: 20px; font-weight: bold; margin: 0;"">Is there a person in this image?</p>
                    </div>
                </div>","0","main_experiment_trial","6","using_technology_semantic","semantic_sequence","","","","",""
"","","","","","html-keyboard-response","50","245412","0.0-50.0","015D95BA960E4D8387F933A0C7E87F69","019cf810-8532-78dd-9836-a43d97900524","019cf80d-4266-7117-8a51-54e13c84aca4","","null","
                <div class=""stimulus-container"">
                    <img src=""images/semantic_sequence/using_technology_semantic/using_technology_semantic_7.png"" class=""exp-image"">
                    <div class=""question-area""></div> 
                </div>","null","","","","","","","","",""
"","","","","","html-button-response","51","246107","0.0-51.0","015D95BA960E4D8387F933A0C7E87F69","019cf810-8532-78dd-9836-a43d97900524","019cf80d-4266-7117-8a51-54e13c84aca4","","693","
                <div class=""stimulus-container"">
                    <img src=""images/semantic_sequence/using_technology_semantic/using_technology_semantic_7.png"" class=""exp-image"">
                    <div class=""question-area"">
                        <p style=""font-size: 20px; font-weight: bold; margin: 0;"">Is there a person in this image?</p>
                    </div>
                </div>","0","main_experiment_trial","7","using_technology_semantic","semantic_sequence","","","","",""
"","","","","","html-keyboard-response","52","251123","0.0-52.0","015D95BA960E4D8387F933A0C7E87F69","019cf810-8532-78dd-9836-a43d97900524","019cf80d-4266-7117-8a51-54e13c84aca4","","null","
                <div class=""stimulus-container"">
                    <img src=""images/semantic_sequence/using_technology_semantic/using_technology_semantic_8.png"" class=""exp-image"">
                    <div class=""question-area""></div> 
                </div>","null","","","","","","","","",""
"","","","","","html-button-response","53","252309","0.0-53.0","015D95BA960E4D8387F933A0C7E87F69","019cf810-8532-78dd-9836-a43d97900524","019cf80d-4266-7117-8a51-54e13c84aca4","","1186","
                <div class=""stimulus-container"">
                    <img src=""images/semantic_sequence/using_technology_semantic/using_technology_semantic_8.png"" class=""exp-image"">
                    <div class=""question-area"">
                        <p style=""font-size: 20px; font-weight: bold; margin: 0;"">Is there a person in this image?</p>
                    </div>
                </div>","0","main_experiment_trial","8","using_technology_semantic","semantic_sequence","","","","",""
"","","","","","html-keyboard-response","54","257315","0.0-54.0","015D95BA960E4D8387F933A0C7E87F69","019cf810-8532-78dd-9836-a43d97900524","019cf80d-4266-7117-8a51-54e13c84aca4","","null","
                <div class=""stimulus-container"">
                    <img src=""images/semantic_sequence/using_technology_semantic/using_technology_semantic_9.png"" class=""exp-image"">
                    <div class=""question-area""></div> 
                </div>","null","","","","","","","","",""
"","","","","","html-button-response","55","259158","0.0-55.0","015D95BA960E4D8387F933A0C7E87F69","019cf810-8532-78dd-9836-a43d97900524","019cf80d-4266-7117-8a51-54e13c84aca4","","1841","
                <div class=""stimulus-container"">
                    <img src=""images/semantic_sequence/using_technology_semantic/using_technology_semantic_9.png"" class=""exp-image"">
                    <div class=""question-area"">
                        <p style=""font-size: 20px; font-weight: bold; margin: 0;"">Is there a person in this image?</p>
                    </div>
                </div>","0","main_experiment_trial","9","using_technology_semantic","semantic_sequence","","","","",""
"","","","","","html-keyboard-response","56","264166","0.0-56.0","015D95BA960E4D8387F933A0C7E87F69","019cf810-8532-78dd-9836-a43d97900524","019cf80d-4266-7117-8a51-54e13c84aca4","","null","
                <div class=""stimulus-container"">
                    <img src=""images/semantic_sequence/using_technology_semantic/using_technology_semantic_ten.png"" class=""exp-image"">
                    <div class=""question-area""></div> 
                </div>","null","","","","","","","","",""
"","","","","","html-button-response","57","266433","0.0-57.0","015D95BA960E4D8387F933A0C7E87F69","019cf810-8532-78dd-9836-a43d97900524","019cf80d-4266-7117-8a51-54e13c84aca4","","2266","
                <div class=""stimulus-container"">
                    <img src=""images/semantic_sequence/using_technology_semantic/using_technology_semantic_ten.png"" class=""exp-image"">
                    <div class=""question-area"">
                        <p style=""font-size: 20px; font-weight: bold; margin: 0;"">Is there a person in this image?</p>
                    </div>
                </div>","0","main_experiment_trial","ten","using_technology_semantic","semantic_sequence","","","","",""
"","","","","","html-keyboard-response","58","267434","0.0-58.0","015D95BA960E4D8387F933A0C7E87F69","019cf810-8532-78dd-9836-a43d97900524","019cf80d-4266-7117-8a51-54e13c84aca4","","null","<div style=""background-color: white; width: 100vw; height: 100vh;""></div>","null","","","","","","","","",""
"","","","","","html-keyboard-response","59","272447","0.0-59.0","015D95BA960E4D8387F933A0C7E87F69","019cf810-8532-78dd-9836-a43d97900524","019cf80d-4266-7117-8a51-54e13c84aca4","","null","
                <div class=""stimulus-container"">
                    <img src=""images/schematic_sequence/supermarket_scheme/supermarket_scheme_1.png"" class=""exp-image"">
                    <div class=""question-area""></div> 
                </div>","null","","","","","","","","",""
"","","","","","html-button-response","60","274496","0.0-60.0","015D95BA960E4D8387F933A0C7E87F69","019cf810-8532-78dd-9836-a43d97900524","019cf80d-4266-7117-8a51-54e13c84aca4","","2048","
                <div class=""stimulus-container"">
                    <img src=""images/schematic_sequence/supermarket_scheme/supermarket_scheme_1.png"" class=""exp-image"">
                    <div class=""question-area"">
                        <p style=""font-size: 20px; font-weight: bold; margin: 0;"">Is there a person in this image?</p>
                    </div>
                </div>","1","main_experiment_trial","1","supermarket_scheme","schematic_sequence","","","","",""
"","","","","","html-keyboard-response","61","279499","0.0-61.0","015D95BA960E4D8387F933A0C7E87F69","019cf810-8532-78dd-9836-a43d97900524","019cf80d-4266-7117-8a51-54e13c84aca4","","null","
                <div class=""stimulus-container"">
                    <img src=""images/schematic_sequence/supermarket_scheme/supermarket_scheme_2.png"" class=""exp-image"">
                    <div class=""question-area""></div> 
                </div>","null","","","","","","","","",""
"","","","","","html-button-response","62","281507","0.0-62.0","015D95BA960E4D8387F933A0C7E87F69","019cf810-8532-78dd-9836-a43d97900524","019cf80d-4266-7117-8a51-54e13c84aca4","","2007","
                <div class=""stimulus-container"">
                    <img src=""images/schematic_sequence/supermarket_scheme/supermarket_scheme_2.png"" class=""exp-image"">
                    <div class=""question-area"">
                        <p style=""font-size: 20px; font-weight: bold; margin: 0;"">Is there a person in this image?</p>
                    </div>
                </div>","1","main_experiment_trial","2","supermarket_scheme","schematic_sequence","","","","",""
"","","","","","html-keyboard-response","63","286512","0.0-63.0","015D95BA960E4D8387F933A0C7E87F69","019cf810-8532-78dd-9836-a43d97900524","019cf80d-4266-7117-8a51-54e13c84aca4","","null","
                <div class=""stimulus-container"">
                    <img src=""images/schematic_sequence/supermarket_scheme/supermarket_scheme_3.png"" class=""exp-image"">
                    <div class=""question-area""></div> 
                </div>","null","","","","","","","","",""
"","","","","","html-button-response","64","289517","0.0-64.0","015D95BA960E4D8387F933A0C7E87F69","019cf810-8532-78dd-9836-a43d97900524","019cf80d-4266-7117-8a51-54e13c84aca4","","null","
                <div class=""stimulus-container"">
                    <img src=""images/schematic_sequence/supermarket_scheme/supermarket_scheme_3.png"" class=""exp-image"">
                    <div class=""question-area"">
                        <p style=""font-size: 20px; font-weight: bold; margin: 0;"">Is there a person in this image?</p>
                    </div>
                </div>","null","main_experiment_trial","3","supermarket_scheme","schematic_sequence","","","","",""
"","","","","","html-keyboard-response","65","294529","0.0-65.0","015D95BA960E4D8387F933A0C7E87F69","019cf810-8532-78dd-9836-a43d97900524","019cf80d-4266-7117-8a51-54e13c84aca4","","null","
                <div class=""stimulus-container"">
                    <img src=""images/schematic_sequence/supermarket_scheme/supermarket_scheme_4.png"" class=""exp-image"">
                    <div class=""question-area""></div> 
                </div>","null","","","","","","","","",""
"","","","","","html-button-response","66","297191","0.0-66.0","015D95BA960E4D8387F933A0C7E87F69","019cf810-8532-78dd-9836-a43d97900524","019cf80d-4266-7117-8a51-54e13c84aca4","","2661","
                <div class=""stimulus-container"">
                    <img src=""images/schematic_sequence/supermarket_scheme/supermarket_scheme_4.png"" class=""exp-image"">
                    <div class=""question-area"">
                        <p style=""font-size: 20px; font-weight: bold; margin: 0;"">Is there a person in this image?</p>
                    </div>
                </div>","0","main_experiment_trial","4","supermarket_scheme","schematic_sequence","","","","",""
"","","","","","html-keyboard-response","67","302203","0.0-67.0","015D95BA960E4D8387F933A0C7E87F69","019cf810-8532-78dd-9836-a43d97900524","019cf80d-4266-7117-8a51-54e13c84aca4","","null","
                <div class=""stimulus-container"">
                    <img src=""images/schematic_sequence/supermarket_scheme/supermarket_scheme_5.png"" class=""exp-image"">
                    <div class=""question-area""></div> 
                </div>","null","","","","","","","","",""
"","","","","","html-button-response","68","305212","0.0-68.0","015D95BA960E4D8387F933A0C7E87F69","019cf810-8532-78dd-9836-a43d97900524","019cf80d-4266-7117-8a51-54e13c84aca4","","null","
                <div class=""stimulus-container"">
                    <img src=""images/schematic_sequence/supermarket_scheme/supermarket_scheme_5.png"" class=""exp-image"">
                    <div class=""question-area"">
                        <p style=""font-size: 20px; font-weight: bold; margin: 0;"">Is there a person in this image?</p>
                    </div>
                </div>","null","main_experiment_trial","5","supermarket_scheme","schematic_sequence","","","","",""
"","","","","","html-keyboard-response","69","310217","0.0-69.0","015D95BA960E4D8387F933A0C7E87F69","019cf810-8532-78dd-9836-a43d97900524","019cf80d-4266-7117-8a51-54e13c84aca4","","null","
                <div class=""stimulus-container"">
                    <img src=""images/schematic_sequence/supermarket_scheme/supermarket_scheme_6.png"" class=""exp-image"">
                    <div class=""question-area""></div> 
                </div>","null","","","","","","","","",""
"","","","","","html-button-response","70","311802","0.0-70.0","015D95BA960E4D8387F933A0C7E87F69","019cf810-8532-78dd-9836-a43d97900524","019cf80d-4266-7117-8a51-54e13c84aca4","","1583","
                <div class=""stimulus-container"">
                    <img src=""images/schematic_sequence/supermarket_scheme/supermarket_scheme_6.png"" class=""exp-image"">
                    <div class=""question-area"">
                        <p style=""font-size: 20px; font-weight: bold; margin: 0;"">Is there a person in this image?</p>
                    </div>
                </div>","0","main_experiment_trial","6","supermarket_scheme","schematic_sequence","","","","",""
"","","","","","html-keyboard-response","71","316816","0.0-71.0","015D95BA960E4D8387F933A0C7E87F69","019cf810-8532-78dd-9836-a43d97900524","019cf80d-4266-7117-8a51-54e13c84aca4","","null","
                <div class=""stimulus-container"">
                    <img src=""images/schematic_sequence/supermarket_scheme/supermarket_scheme_7.png"" class=""exp-image"">
                    <div class=""question-area""></div> 
                </div>","null","","","","","","","","",""
"","","","","","html-button-response","72","317593","0.0-72.0","015D95BA960E4D8387F933A0C7E87F69","019cf810-8532-78dd-9836-a43d97900524","019cf80d-4266-7117-8a51-54e13c84aca4","","776","
                <div class=""stimulus-container"">
                    <img src=""images/schematic_sequence/supermarket_scheme/supermarket_scheme_7.png"" class=""exp-image"">
                    <div class=""question-area"">
                        <p style=""font-size: 20px; font-weight: bold; margin: 0;"">Is there a person in this image?</p>
                    </div>
                </div>","0","main_experiment_trial","7","supermarket_scheme","schematic_sequence","","","","",""
"","","","","","html-keyboard-response","73","322599","0.0-73.0","015D95BA960E4D8387F933A0C7E87F69","019cf810-8532-78dd-9836-a43d97900524","019cf80d-4266-7117-8a51-54e13c84aca4","","null","
                <div class=""stimulus-container"">
                    <img src=""images/schematic_sequence/supermarket_scheme/supermarket_scheme_8.png"" class=""exp-image"">
                    <div class=""question-area""></div> 
                </div>","null","","","","","","","","",""
"","","","","","html-button-response","74","323263","0.0-74.0","015D95BA960E4D8387F933A0C7E87F69","019cf810-8532-78dd-9836-a43d97900524","019cf80d-4266-7117-8a51-54e13c84aca4","","663","
                <div class=""stimulus-container"">
                    <img src=""images/schematic_sequence/supermarket_scheme/supermarket_scheme_8.png"" class=""exp-image"">
                    <div class=""question-area"">
                        <p style=""font-size: 20px; font-weight: bold; margin: 0;"">Is there a person in this image?</p>
                    </div>
                </div>","0","main_experiment_trial","8","supermarket_scheme","schematic_sequence","","","","",""
"","","","","","html-keyboard-response","75","328279","0.0-75.0","015D95BA960E4D8387F933A0C7E87F69","019cf810-8532-78dd-9836-a43d97900524","019cf80d-4266-7117-8a51-54e13c84aca4","","null","
                <div class=""stimulus-container"">
                    <img src=""images/schematic_sequence/supermarket_scheme/supermarket_scheme_9.png"" class=""exp-image"">
                    <div class=""question-area""></div> 
                </div>","null","","","","","","","","",""
"","","","","","html-button-response","76","328956","0.0-76.0","015D95BA960E4D8387F933A0C7E87F69","019cf810-8532-78dd-9836-a43d97900524","019cf80d-4266-7117-8a51-54e13c84aca4","","676","
                <div class=""stimulus-container"">
                    <img src=""images/schematic_sequence/supermarket_scheme/supermarket_scheme_9.png"" class=""exp-image"">
                    <div class=""question-area"">
                        <p style=""font-size: 20px; font-weight: bold; margin: 0;"">Is there a person in this image?</p>
                    </div>
                </div>","0","main_experiment_trial","9","supermarket_scheme","schematic_sequence","","","","",""
"","","","","","html-keyboard-response","77","333970","0.0-77.0","015D95BA960E4D8387F933A0C7E87F69","019cf810-8532-78dd-9836-a43d97900524","019cf80d-4266-7117-8a51-54e13c84aca4","","null","
                <div class=""stimulus-container"">
                    <img src=""images/schematic_sequence/supermarket_scheme/supermarket_scheme_ten.png"" class=""exp-image"">
                    <div class=""question-area""></div> 
                </div>","null","","","","","","","","",""
"","","","","","html-button-response","78","335165","0.0-78.0","015D95BA960E4D8387F933A0C7E87F69","019cf810-8532-78dd-9836-a43d97900524","019cf80d-4266-7117-8a51-54e13c84aca4","","1195","
                <div class=""stimulus-container"">
                    <img src=""images/schematic_sequence/supermarket_scheme/supermarket_scheme_ten.png"" class=""exp-image"">
                    <div class=""question-area"">
                        <p style=""font-size: 20px; font-weight: bold; margin: 0;"">Is there a person in this image?</p>
                    </div>
                </div>","1","main_experiment_trial","ten","supermarket_scheme","schematic_sequence","","","","",""
"","","","","","html-keyboard-response","79","336166","0.0-79.0","015D95BA960E4D8387F933A0C7E87F69","019cf810-8532-78dd-9836-a43d97900524","019cf80d-4266-7117-8a51-54e13c84aca4","","null","<div style=""background-color: white; width: 100vw; height: 100vh;""></div>","null","","","","","","","","",""
"","","","","","html-keyboard-response","80","341168","0.0-80.0","015D95BA960E4D8387F933A0C7E87F69","019cf810-8532-78dd-9836-a43d97900524","019cf80d-4266-7117-8a51-54e13c84aca4","","null","
                <div class=""stimulus-container"">
                    <img src=""images/schematic_sequence/restaurant_scheme/restaurant_scheme_1.png"" class=""exp-image"">
                    <div class=""question-area""></div> 
                </div>","null","","","","","","","","",""
"","","","","","html-button-response","81","341998","0.0-81.0","015D95BA960E4D8387F933A0C7E87F69","019cf810-8532-78dd-9836-a43d97900524","019cf80d-4266-7117-8a51-54e13c84aca4","","829","
                <div class=""stimulus-container"">
                    <img src=""images/schematic_sequence/restaurant_scheme/restaurant_scheme_1.png"" class=""exp-image"">
                    <div class=""question-area"">
                        <p style=""font-size: 20px; font-weight: bold; margin: 0;"">Is there a person in this image?</p>
                    </div>
                </div>","0","main_experiment_trial","1","restaurant_scheme","schematic_sequence","","","","",""
"","","","","","html-keyboard-response","82","347013","0.0-82.0","015D95BA960E4D8387F933A0C7E87F69","019cf810-8532-78dd-9836-a43d97900524","019cf80d-4266-7117-8a51-54e13c84aca4","","null","
                <div class=""stimulus-container"">
                    <img src=""images/schematic_sequence/restaurant_scheme/restaurant_scheme_2.png"" class=""exp-image"">
                    <div class=""question-area""></div> 
                </div>","null","","","","","","","","",""
"","","","","","html-button-response","83","347864","0.0-83.0","015D95BA960E4D8387F933A0C7E87F69","019cf810-8532-78dd-9836-a43d97900524","019cf80d-4266-7117-8a51-54e13c84aca4","","851","
                <div class=""stimulus-container"">
                    <img src=""images/schematic_sequence/restaurant_scheme/restaurant_scheme_2.png"" class=""exp-image"">
                    <div class=""question-area"">
                        <p style=""font-size: 20px; font-weight: bold; margin: 0;"">Is there a person in this image?</p>
                    </div>
                </div>","1","main_experiment_trial","2","restaurant_scheme","schematic_sequence","","","","",""
"","","","","","html-keyboard-response","84","352868","0.0-84.0","015D95BA960E4D8387F933A0C7E87F69","019cf810-8532-78dd-9836-a43d97900524","019cf80d-4266-7117-8a51-54e13c84aca4","","null","
                <div class=""stimulus-container"">
                    <img src=""images/schematic_sequence/restaurant_scheme/restaurant_scheme_3.png"" class=""exp-image"">
                    <div class=""question-area""></div> 
                </div>","null","","","","","","","","",""
"","","","","","html-button-response","85","353385","0.0-85.0","015D95BA960E4D8387F933A0C7E87F69","019cf810-8532-78dd-9836-a43d97900524","019cf80d-4266-7117-8a51-54e13c84aca4","","516","
                <div class=""stimulus-container"">
                    <img src=""images/schematic_sequence/restaurant_scheme/restaurant_scheme_3.png"" class=""exp-image"">
                    <div class=""question-area"">
                        <p style=""font-size: 20px; font-weight: bold; margin: 0;"">Is there a person in this image?</p>
                    </div>
                </div>","1","main_experiment_trial","3","restaurant_scheme","schematic_sequence","","","","",""
"","","","","","html-keyboard-response","86","358387","0.0-86.0","015D95BA960E4D8387F933A0C7E87F69","019cf810-8532-78dd-9836-a43d97900524","019cf80d-4266-7117-8a51-54e13c84aca4","","null","
                <div class=""stimulus-container"">
                    <img src=""images/schematic_sequence/restaurant_scheme/restaurant_scheme_4.png"" class=""exp-image"">
                    <div class=""question-area""></div> 
                </div>","null","","","","","","","","",""
"","","","","","html-button-response","87","359106","0.0-87.0","015D95BA960E4D8387F933A0C7E87F69","019cf810-8532-78dd-9836-a43d97900524","019cf80d-4266-7117-8a51-54e13c84aca4","","719","
                <div class=""stimulus-container"">
                    <img src=""images/schematic_sequence/restaurant_scheme/restaurant_scheme_4.png"" class=""exp-image"">
                    <div class=""question-area"">
                        <p style=""font-size: 20px; font-weight: bold; margin: 0;"">Is there a person in this image?</p>
                    </div>
                </div>","0","main_experiment_trial","4","restaurant_scheme","schematic_sequence","","","","",""
"","","","","","html-keyboard-response","88","364118","0.0-88.0","015D95BA960E4D8387F933A0C7E87F69","019cf810-8532-78dd-9836-a43d97900524","019cf80d-4266-7117-8a51-54e13c84aca4","","null","
                <div class=""stimulus-container"">
                    <img src=""images/schematic_sequence/restaurant_scheme/restaurant_scheme_5.png"" class=""exp-image"">
                    <div class=""question-area""></div> 
                </div>","null","","","","","","","","",""
"","","","","","html-button-response","89","364733","0.0-89.0","015D95BA960E4D8387F933A0C7E87F69","019cf810-8532-78dd-9836-a43d97900524","019cf80d-4266-7117-8a51-54e13c84aca4","","614","
                <div class=""stimulus-container"">
                    <img src=""images/schematic_sequence/restaurant_scheme/restaurant_scheme_5.png"" class=""exp-image"">
                    <div class=""question-area"">
                        <p style=""font-size: 20px; font-weight: bold; margin: 0;"">Is there a person in this image?</p>
                    </div>
                </div>","0","main_experiment_trial","5","restaurant_scheme","schematic_sequence","","","","",""
"","","","","","html-keyboard-response","90","369748","0.0-90.0","015D95BA960E4D8387F933A0C7E87F69","019cf810-8532-78dd-9836-a43d97900524","019cf80d-4266-7117-8a51-54e13c84aca4","","null","
                <div class=""stimulus-container"">
                    <img src=""images/schematic_sequence/restaurant_scheme/restaurant_scheme_6.png"" class=""exp-image"">
                    <div class=""question-area""></div> 
                </div>","null","","","","","","","","",""
"","","","","","html-button-response","91","370373","0.0-91.0","015D95BA960E4D8387F933A0C7E87F69","019cf810-8532-78dd-9836-a43d97900524","019cf80d-4266-7117-8a51-54e13c84aca4","","623","
                <div class=""stimulus-container"">
                    <img src=""images/schematic_sequence/restaurant_scheme/restaurant_scheme_6.png"" class=""exp-image"">
                    <div class=""question-area"">
                        <p style=""font-size: 20px; font-weight: bold; margin: 0;"">Is there a person in this image?</p>
                    </div>
                </div>","1","main_experiment_trial","6","restaurant_scheme","schematic_sequence","","","","",""
"","","","","","html-keyboard-response","92","375385","0.0-92.0","015D95BA960E4D8387F933A0C7E87F69","019cf810-8532-78dd-9836-a43d97900524","019cf80d-4266-7117-8a51-54e13c84aca4","","null","
                <div class=""stimulus-container"">
                    <img src=""images/schematic_sequence/restaurant_scheme/restaurant_scheme_7.png"" class=""exp-image"">
                    <div class=""question-area""></div> 
                </div>","null","","","","","","","","",""
"","","","","","html-button-response","93","375907","0.0-93.0","015D95BA960E4D8387F933A0C7E87F69","019cf810-8532-78dd-9836-a43d97900524","019cf80d-4266-7117-8a51-54e13c84aca4","","521","
                <div class=""stimulus-container"">
                    <img src=""images/schematic_sequence/restaurant_scheme/restaurant_scheme_7.png"" class=""exp-image"">
                    <div class=""question-area"">
                        <p style=""font-size: 20px; font-weight: bold; margin: 0;"">Is there a person in this image?</p>
                    </div>
                </div>","1","main_experiment_trial","7","restaurant_scheme","schematic_sequence","","","","",""
"","","","","","html-keyboard-response","94","380920","0.0-94.0","015D95BA960E4D8387F933A0C7E87F69","019cf810-8532-78dd-9836-a43d97900524","019cf80d-4266-7117-8a51-54e13c84aca4","","null","
                <div class=""stimulus-container"">
                    <img src=""images/schematic_sequence/restaurant_scheme/restaurant_scheme_8.png"" class=""exp-image"">
                    <div class=""question-area""></div> 
                </div>","null","","","","","","","","",""
"","","","","","html-button-response","95","383018","0.0-95.0","015D95BA960E4D8387F933A0C7E87F69","019cf810-8532-78dd-9836-a43d97900524","019cf80d-4266-7117-8a51-54e13c84aca4","","2098","
                <div class=""stimulus-container"">
                    <img src=""images/schematic_sequence/restaurant_scheme/restaurant_scheme_8.png"" class=""exp-image"">
                    <div class=""question-area"">
                        <p style=""font-size: 20px; font-weight: bold; margin: 0;"">Is there a person in this image?</p>
                    </div>
                </div>","0","main_experiment_trial","8","restaurant_scheme","schematic_sequence","","","","",""
"","","","","","html-keyboard-response","96","388020","0.0-96.0","015D95BA960E4D8387F933A0C7E87F69","019cf810-8532-78dd-9836-a43d97900524","019cf80d-4266-7117-8a51-54e13c84aca4","","null","
                <div class=""stimulus-container"">
                    <img src=""images/schematic_sequence/restaurant_scheme/restaurant_scheme_9.png"" class=""exp-image"">
                    <div class=""question-area""></div> 
                </div>","null","","","","","","","","",""
"","","","","","html-button-response","97","389117","0.0-97.0","015D95BA960E4D8387F933A0C7E87F69","019cf810-8532-78dd-9836-a43d97900524","019cf80d-4266-7117-8a51-54e13c84aca4","","1096","
                <div class=""stimulus-container"">
                    <img src=""images/schematic_sequence/restaurant_scheme/restaurant_scheme_9.png"" class=""exp-image"">
                    <div class=""question-area"">
                        <p style=""font-size: 20px; font-weight: bold; margin: 0;"">Is there a person in this image?</p>
                    </div>
                </div>","0","main_experiment_trial","9","restaurant_scheme","schematic_sequence","","","","",""
"","","","","","html-keyboard-response","98","394118","0.0-98.0","015D95BA960E4D8387F933A0C7E87F69","019cf810-8532-78dd-9836-a43d97900524","019cf80d-4266-7117-8a51-54e13c84aca4","","null","
                <div class=""stimulus-container"">
                    <img src=""images/schematic_sequence/restaurant_scheme/restaurant_scheme_ten.png"" class=""exp-image"">
                    <div class=""question-area""></div> 
                </div>","null","","","","","","","","",""
"","","","","","html-button-response","99","394989","0.0-99.0","015D95BA960E4D8387F933A0C7E87F69","019cf810-8532-78dd-9836-a43d97900524","019cf80d-4266-7117-8a51-54e13c84aca4","","870","
                <div class=""stimulus-container"">
                    <img src=""images/schematic_sequence/restaurant_scheme/restaurant_scheme_ten.png"" class=""exp-image"">
                    <div class=""question-area"">
                        <p style=""font-size: 20px; font-weight: bold; margin: 0;"">Is there a person in this image?</p>
                    </div>
                </div>","0","main_experiment_trial","ten","restaurant_scheme","schematic_sequence","","","","",""
"","","","","","html-keyboard-response","100","395997","0.0-100.0","015D95BA960E4D8387F933A0C7E87F69","019cf810-8532-78dd-9836-a43d97900524","019cf80d-4266-7117-8a51-54e13c84aca4","","null","<div style=""background-color: white; width: 100vw; height: 100vh;""></div>","null","","","","","","","","",""
"","","","","","html-keyboard-response","101","401011","0.0-101.0","015D95BA960E4D8387F933A0C7E87F69","019cf810-8532-78dd-9836-a43d97900524","019cf80d-4266-7117-8a51-54e13c84aca4","","null","
                <div class=""stimulus-container"">
                    <img src=""images/schematic_sequence/dinner_party_scheme/dinner_party_scheme_1.png"" class=""exp-image"">
                    <div class=""question-area""></div> 
                </div>","null","","","","","","","","",""
"","","","","","html-button-response","102","401725","0.0-102.0","015D95BA960E4D8387F933A0C7E87F69","019cf810-8532-78dd-9836-a43d97900524","019cf80d-4266-7117-8a51-54e13c84aca4","","713","
                <div class=""stimulus-container"">
                    <img src=""images/schematic_sequence/dinner_party_scheme/dinner_party_scheme_1.png"" class=""exp-image"">
                    <div class=""question-area"">
                        <p style=""font-size: 20px; font-weight: bold; margin: 0;"">Is there a person in this image?</p>
                    </div>
                </div>","0","main_experiment_trial","1","dinner_party_scheme","schematic_sequence","","","","",""
"","","","","","html-keyboard-response","103","406730","0.0-103.0","015D95BA960E4D8387F933A0C7E87F69","019cf810-8532-78dd-9836-a43d97900524","019cf80d-4266-7117-8a51-54e13c84aca4","","null","
                <div class=""stimulus-container"">
                    <img src=""images/schematic_sequence/dinner_party_scheme/dinner_party_scheme_2.png"" class=""exp-image"">
                    <div class=""question-area""></div> 
                </div>","null","","","","","","","","",""
"","","","","","html-button-response","104","407297","0.0-104.0","015D95BA960E4D8387F933A0C7E87F69","019cf810-8532-78dd-9836-a43d97900524","019cf80d-4266-7117-8a51-54e13c84aca4","","565","
                <div class=""stimulus-container"">
                    <img src=""images/schematic_sequence/dinner_party_scheme/dinner_party_scheme_2.png"" class=""exp-image"">
                    <div class=""question-area"">
                        <p style=""font-size: 20px; font-weight: bold; margin: 0;"">Is there a person in this image?</p>
                    </div>
                </div>","0","main_experiment_trial","2","dinner_party_scheme","schematic_sequence","","","","",""
"","","","","","html-keyboard-response","105","412313","0.0-105.0","015D95BA960E4D8387F933A0C7E87F69","019cf810-8532-78dd-9836-a43d97900524","019cf80d-4266-7117-8a51-54e13c84aca4","","null","
                <div class=""stimulus-container"">
                    <img src=""images/schematic_sequence/dinner_party_scheme/dinner_party_scheme_3.png"" class=""exp-image"">
                    <div class=""question-area""></div> 
                </div>","null","","","","","","","","",""
"","","","","","html-button-response","106","412974","0.0-106.0","015D95BA960E4D8387F933A0C7E87F69","019cf810-8532-78dd-9836-a43d97900524","019cf80d-4266-7117-8a51-54e13c84aca4","","660","
                <div class=""stimulus-container"">
                    <img src=""images/schematic_sequence/dinner_party_scheme/dinner_party_scheme_3.png"" class=""exp-image"">
                    <div class=""question-area"">
                        <p style=""font-size: 20px; font-weight: bold; margin: 0;"">Is there a person in this image?</p>
                    </div>
                </div>","0","main_experiment_trial","3","dinner_party_scheme","schematic_sequence","","","","",""
"","","","","","html-keyboard-response","107","417983","0.0-107.0","015D95BA960E4D8387F933A0C7E87F69","019cf810-8532-78dd-9836-a43d97900524","019cf80d-4266-7117-8a51-54e13c84aca4","","null","
                <div class=""stimulus-container"">
                    <img src=""images/schematic_sequence/dinner_party_scheme/dinner_party_scheme_4.png"" class=""exp-image"">
                    <div class=""question-area""></div> 
                </div>","null","","","","","","","","",""
"","","","","","html-button-response","108","418474","0.0-108.0","015D95BA960E4D8387F933A0C7E87F69","019cf810-8532-78dd-9836-a43d97900524","019cf80d-4266-7117-8a51-54e13c84aca4","","490","
                <div class=""stimulus-container"">
                    <img src=""images/schematic_sequence/dinner_party_scheme/dinner_party_scheme_4.png"" class=""exp-image"">
                    <div class=""question-area"">
                        <p style=""font-size: 20px; font-weight: bold; margin: 0;"">Is there a person in this image?</p>
                    </div>
                </div>","0","main_experiment_trial","4","dinner_party_scheme","schematic_sequence","","","","",""
"","","","","","html-keyboard-response","109","423478","0.0-109.0","015D95BA960E4D8387F933A0C7E87F69","019cf810-8532-78dd-9836-a43d97900524","019cf80d-4266-7117-8a51-54e13c84aca4","","null","
                <div class=""stimulus-container"">
                    <img src=""images/schematic_sequence/dinner_party_scheme/dinner_party_scheme_5.png"" class=""exp-image"">
                    <div class=""question-area""></div> 
                </div>","null","","","","","","","","",""
"","","","","","html-button-response","110","423993","0.0-110.0","015D95BA960E4D8387F933A0C7E87F69","019cf810-8532-78dd-9836-a43d97900524","019cf80d-4266-7117-8a51-54e13c84aca4","","514","
                <div class=""stimulus-container"">
                    <img src=""images/schematic_sequence/dinner_party_scheme/dinner_party_scheme_5.png"" class=""exp-image"">
                    <div class=""question-area"">
                        <p style=""font-size: 20px; font-weight: bold; margin: 0;"">Is there a person in this image?</p>
                    </div>
                </div>","0","main_experiment_trial","5","dinner_party_scheme","schematic_sequence","","","","",""
"","","","","","html-keyboard-response","111","429000","0.0-111.0","015D95BA960E4D8387F933A0C7E87F69","019cf810-8532-78dd-9836-a43d97900524","019cf80d-4266-7117-8a51-54e13c84aca4","","null","
                <div class=""stimulus-container"">
                    <img src=""images/schematic_sequence/dinner_party_scheme/dinner_party_scheme_6.png"" class=""exp-image"">
                    <div class=""question-area""></div> 
                </div>","null","","","","","","","","",""
"","","","","","html-button-response","112","429535","0.0-112.0","015D95BA960E4D8387F933A0C7E87F69","019cf810-8532-78dd-9836-a43d97900524","019cf80d-4266-7117-8a51-54e13c84aca4","","534","
                <div class=""stimulus-container"">
                    <img src=""images/schematic_sequence/dinner_party_scheme/dinner_party_scheme_6.png"" class=""exp-image"">
                    <div class=""question-area"">
                        <p style=""font-size: 20px; font-weight: bold; margin: 0;"">Is there a person in this image?</p>
                    </div>
                </div>","0","main_experiment_trial","6","dinner_party_scheme","schematic_sequence","","","","",""
"","","","","","html-keyboard-response","113","434549","0.0-113.0","015D95BA960E4D8387F933A0C7E87F69","019cf810-8532-78dd-9836-a43d97900524","019cf80d-4266-7117-8a51-54e13c84aca4","","null","
                <div class=""stimulus-container"">
                    <img src=""images/schematic_sequence/dinner_party_scheme/dinner_party_scheme_7.png"" class=""exp-image"">
                    <div class=""question-area""></div> 
                </div>","null","","","","","","","","",""
"","","","","","html-button-response","114","435191","0.0-114.0","015D95BA960E4D8387F933A0C7E87F69","019cf810-8532-78dd-9836-a43d97900524","019cf80d-4266-7117-8a51-54e13c84aca4","","641","
                <div class=""stimulus-container"">
                    <img src=""images/schematic_sequence/dinner_party_scheme/dinner_party_scheme_7.png"" class=""exp-image"">
                    <div class=""question-area"">
                        <p style=""font-size: 20px; font-weight: bold; margin: 0;"">Is there a person in this image?</p>
                    </div>
                </div>","0","main_experiment_trial","7","dinner_party_scheme","schematic_sequence","","","","",""
"","","","","","html-keyboard-response","115","440198","0.0-115.0","015D95BA960E4D8387F933A0C7E87F69","019cf810-8532-78dd-9836-a43d97900524","019cf80d-4266-7117-8a51-54e13c84aca4","","null","
                <div class=""stimulus-container"">
                    <img src=""images/schematic_sequence/dinner_party_scheme/dinner_party_scheme_8.png"" class=""exp-image"">
                    <div class=""question-area""></div> 
                </div>","null","","","","","","","","",""
"","","","","","html-button-response","116","441079","0.0-116.0","015D95BA960E4D8387F933A0C7E87F69","019cf810-8532-78dd-9836-a43d97900524","019cf80d-4266-7117-8a51-54e13c84aca4","","880","
                <div class=""stimulus-container"">
                    <img src=""images/schematic_sequence/dinner_party_scheme/dinner_party_scheme_8.png"" class=""exp-image"">
                    <div class=""question-area"">
                        <p style=""font-size: 20px; font-weight: bold; margin: 0;"">Is there a person in this image?</p>
                    </div>
                </div>","0","main_experiment_trial","8","dinner_party_scheme","schematic_sequence","","","","",""
"","","","","","html-keyboard-response","117","446082","0.0-117.0","015D95BA960E4D8387F933A0C7E87F69","019cf810-8532-78dd-9836-a43d97900524","019cf80d-4266-7117-8a51-54e13c84aca4","","null","
                <div class=""stimulus-container"">
                    <img src=""images/schematic_sequence/dinner_party_scheme/dinner_party_scheme_9.png"" class=""exp-image"">
                    <div class=""question-area""></div> 
                </div>","null","","","","","","","","",""
"","","","","","html-button-response","118","446937","0.0-118.0","015D95BA960E4D8387F933A0C7E87F69","019cf810-8532-78dd-9836-a43d97900524","019cf80d-4266-7117-8a51-54e13c84aca4","","854","
                <div class=""stimulus-container"">
                    <img src=""images/schematic_sequence/dinner_party_scheme/dinner_party_scheme_9.png"" class=""exp-image"">
                    <div class=""question-area"">
                        <p style=""font-size: 20px; font-weight: bold; margin: 0;"">Is there a person in this image?</p>
                    </div>
                </div>","0","main_experiment_trial","9","dinner_party_scheme","schematic_sequence","","","","",""
"","","","","","html-keyboard-response","119","451951","0.0-119.0","015D95BA960E4D8387F933A0C7E87F69","019cf810-8532-78dd-9836-a43d97900524","019cf80d-4266-7117-8a51-54e13c84aca4","","null","
                <div class=""stimulus-container"">
                    <img src=""images/schematic_sequence/dinner_party_scheme/dinner_party_scheme_ten.png"" class=""exp-image"">
                    <div class=""question-area""></div> 
                </div>","null","","","","","","","","",""
"","","","","","html-button-response","120","452908","0.0-120.0","015D95BA960E4D8387F933A0C7E87F69","019cf810-8532-78dd-9836-a43d97900524","019cf80d-4266-7117-8a51-54e13c84aca4","","956","
                <div class=""stimulus-container"">
                    <img src=""images/schematic_sequence/dinner_party_scheme/dinner_party_scheme_ten.png"" class=""exp-image"">
                    <div class=""question-area"">
                        <p style=""font-size: 20px; font-weight: bold; margin: 0;"">Is there a person in this image?</p>
                    </div>
                </div>","0","main_experiment_trial","ten","dinner_party_scheme","schematic_sequence","","","","",""
"","","","","","html-keyboard-response","121","453922","0.0-121.0","015D95BA960E4D8387F933A0C7E87F69","019cf810-8532-78dd-9836-a43d97900524","019cf80d-4266-7117-8a51-54e13c84aca4","","null","<div style=""background-color: white; width: 100vw; height: 100vh;""></div>","null","","","","","","","","",""
"","","","","","html-keyboard-response","122","458932","0.0-122.0","015D95BA960E4D8387F933A0C7E87F69","019cf810-8532-78dd-9836-a43d97900524","019cf80d-4266-7117-8a51-54e13c84aca4","","null","
                <div class=""stimulus-container"">
                    <img src=""images/semantic_sequence/redecorating_a_house_semantic/redecorating_a_house_semantic_1.png"" class=""exp-image"">
                    <div class=""question-area""></div> 
                </div>","null","","","","","","","","",""
"","","","","","html-button-response","123","459641","0.0-123.0","015D95BA960E4D8387F933A0C7E87F69","019cf810-8532-78dd-9836-a43d97900524","019cf80d-4266-7117-8a51-54e13c84aca4","","708","
                <div class=""stimulus-container"">
                    <img src=""images/semantic_sequence/redecorating_a_house_semantic/redecorating_a_house_semantic_1.png"" class=""exp-image"">
                    <div class=""question-area"">
                        <p style=""font-size: 20px; font-weight: bold; margin: 0;"">Is there a person in this image?</p>
                    </div>
                </div>","0","main_experiment_trial","1","redecorating_a_house_semantic","semantic_sequence","","","","",""
"","","","","","html-keyboard-response","124","464648","0.0-124.0","015D95BA960E4D8387F933A0C7E87F69","019cf810-8532-78dd-9836-a43d97900524","019cf80d-4266-7117-8a51-54e13c84aca4","","null","
                <div class=""stimulus-container"">
                    <img src=""images/semantic_sequence/redecorating_a_house_semantic/redecorating_a_house_semantic_2.png"" class=""exp-image"">
                    <div class=""question-area""></div> 
                </div>","null","","","","","","","","",""
"","","","","","html-button-response","125","465387","0.0-125.0","015D95BA960E4D8387F933A0C7E87F69","019cf810-8532-78dd-9836-a43d97900524","019cf80d-4266-7117-8a51-54e13c84aca4","","738","
                <div class=""stimulus-container"">
                    <img src=""images/semantic_sequence/redecorating_a_house_semantic/redecorating_a_house_semantic_2.png"" class=""exp-image"">
                    <div class=""question-area"">
                        <p style=""font-size: 20px; font-weight: bold; margin: 0;"">Is there a person in this image?</p>
                    </div>
                </div>","0","main_experiment_trial","2","redecorating_a_house_semantic","semantic_sequence","","","","",""
"","","","","","html-keyboard-response","126","470388","0.0-126.0","015D95BA960E4D8387F933A0C7E87F69","019cf810-8532-78dd-9836-a43d97900524","019cf80d-4266-7117-8a51-54e13c84aca4","","null","
                <div class=""stimulus-container"">
                    <img src=""images/semantic_sequence/redecorating_a_house_semantic/redecorating_a_house_semantic_3.png"" class=""exp-image"">
                    <div class=""question-area""></div> 
                </div>","null","","","","","","","","",""
"","","","","","html-button-response","127","471216","0.0-127.0","015D95BA960E4D8387F933A0C7E87F69","019cf810-8532-78dd-9836-a43d97900524","019cf80d-4266-7117-8a51-54e13c84aca4","","827","
                <div class=""stimulus-container"">
                    <img src=""images/semantic_sequence/redecorating_a_house_semantic/redecorating_a_house_semantic_3.png"" class=""exp-image"">
                    <div class=""question-area"">
                        <p style=""font-size: 20px; font-weight: bold; margin: 0;"">Is there a person in this image?</p>
                    </div>
                </div>","0","main_experiment_trial","3","redecorating_a_house_semantic","semantic_sequence","","","","",""
"","","","","","html-keyboard-response","128","476222","0.0-128.0","015D95BA960E4D8387F933A0C7E87F69","019cf810-8532-78dd-9836-a43d97900524","019cf80d-4266-7117-8a51-54e13c84aca4","","null","
                <div class=""stimulus-container"">
                    <img src=""images/semantic_sequence/redecorating_a_house_semantic/redecorating_a_house_semantic_4.png"" class=""exp-image"">
                    <div class=""question-area""></div> 
                </div>","null","","","","","","","","",""
"","","","","","html-button-response","129","476802","0.0-129.0","015D95BA960E4D8387F933A0C7E87F69","019cf810-8532-78dd-9836-a43d97900524","019cf80d-4266-7117-8a51-54e13c84aca4","","579","
                <div class=""stimulus-container"">
                    <img src=""images/semantic_sequence/redecorating_a_house_semantic/redecorating_a_house_semantic_4.png"" class=""exp-image"">
                    <div class=""question-area"">
                        <p style=""font-size: 20px; font-weight: bold; margin: 0;"">Is there a person in this image?</p>
                    </div>
                </div>","0","main_experiment_trial","4","redecorating_a_house_semantic","semantic_sequence","","","","",""
"","","","","","html-keyboard-response","130","481816","0.0-130.0","015D95BA960E4D8387F933A0C7E87F69","019cf810-8532-78dd-9836-a43d97900524","019cf80d-4266-7117-8a51-54e13c84aca4","","null","
                <div class=""stimulus-container"">
                    <img src=""images/semantic_sequence/redecorating_a_house_semantic/redecorating_a_house_semantic_5.png"" class=""exp-image"">
                    <div class=""question-area""></div> 
                </div>","null","","","","","","","","",""
"","","","","","html-button-response","131","482436","0.0-131.0","015D95BA960E4D8387F933A0C7E87F69","019cf810-8532-78dd-9836-a43d97900524","019cf80d-4266-7117-8a51-54e13c84aca4","","618","
                <div class=""stimulus-container"">
                    <img src=""images/semantic_sequence/redecorating_a_house_semantic/redecorating_a_house_semantic_5.png"" class=""exp-image"">
                    <div class=""question-area"">
                        <p style=""font-size: 20px; font-weight: bold; margin: 0;"">Is there a person in this image?</p>
                    </div>
                </div>","0","main_experiment_trial","5","redecorating_a_house_semantic","semantic_sequence","","","","",""
"","","","","","html-keyboard-response","132","487450","0.0-132.0","015D95BA960E4D8387F933A0C7E87F69","019cf810-8532-78dd-9836-a43d97900524","019cf80d-4266-7117-8a51-54e13c84aca4","","null","
                <div class=""stimulus-container"">
                    <img src=""images/semantic_sequence/redecorating_a_house_semantic/redecorating_a_house_semantic_6.png"" class=""exp-image"">
                    <div class=""question-area""></div> 
                </div>","null","","","","","","","","",""
"","","","","","html-button-response","133","488286","0.0-133.0","015D95BA960E4D8387F933A0C7E87F69","019cf810-8532-78dd-9836-a43d97900524","019cf80d-4266-7117-8a51-54e13c84aca4","","835","
                <div class=""stimulus-container"">
                    <img src=""images/semantic_sequence/redecorating_a_house_semantic/redecorating_a_house_semantic_6.png"" class=""exp-image"">
                    <div class=""question-area"">
                        <p style=""font-size: 20px; font-weight: bold; margin: 0;"">Is there a person in this image?</p>
                    </div>
                </div>","0","main_experiment_trial","6","redecorating_a_house_semantic","semantic_sequence","","","","",""
"","","","","","html-keyboard-response","134","493289","0.0-134.0","015D95BA960E4D8387F933A0C7E87F69","019cf810-8532-78dd-9836-a43d97900524","019cf80d-4266-7117-8a51-54e13c84aca4","","null","
                <div class=""stimulus-container"">
                    <img src=""images/semantic_sequence/redecorating_a_house_semantic/redecorating_a_house_semantic_7.png"" class=""exp-image"">
                    <div class=""question-area""></div> 
                </div>","null","","","","","","","","",""
"","","","","","html-button-response","135","494324","0.0-135.0","015D95BA960E4D8387F933A0C7E87F69","019cf810-8532-78dd-9836-a43d97900524","019cf80d-4266-7117-8a51-54e13c84aca4","","1034","
                <div class=""stimulus-container"">
                    <img src=""images/semantic_sequence/redecorating_a_house_semantic/redecorating_a_house_semantic_7.png"" class=""exp-image"">
                    <div class=""question-area"">
                        <p style=""font-size: 20px; font-weight: bold; margin: 0;"">Is there a person in this image?</p>
                    </div>
                </div>","0","main_experiment_trial","7","redecorating_a_house_semantic","semantic_sequence","","","","",""
"","","","","","html-keyboard-response","136","499337","0.0-136.0","015D95BA960E4D8387F933A0C7E87F69","019cf810-8532-78dd-9836-a43d97900524","019cf80d-4266-7117-8a51-54e13c84aca4","","null","
                <div class=""stimulus-container"">
                    <img src=""images/semantic_sequence/redecorating_a_house_semantic/redecorating_a_house_semantic_8.png"" class=""exp-image"">
                    <div class=""question-area""></div> 
                </div>","null","","","","","","","","",""
"","","","","","html-button-response","137","500046","0.0-137.0","015D95BA960E4D8387F933A0C7E87F69","019cf810-8532-78dd-9836-a43d97900524","019cf80d-4266-7117-8a51-54e13c84aca4","","708","
                <div class=""stimulus-container"">
                    <img src=""images/semantic_sequence/redecorating_a_house_semantic/redecorating_a_house_semantic_8.png"" class=""exp-image"">
                    <div class=""question-area"">
                        <p style=""font-size: 20px; font-weight: bold; margin: 0;"">Is there a person in this image?</p>
                    </div>
                </div>","0","main_experiment_trial","8","redecorating_a_house_semantic","semantic_sequence","","","","",""
"","","","","","html-keyboard-response","138","505049","0.0-138.0","015D95BA960E4D8387F933A0C7E87F69","019cf810-8532-78dd-9836-a43d97900524","019cf80d-4266-7117-8a51-54e13c84aca4","","null","
                <div class=""stimulus-container"">
                    <img src=""images/semantic_sequence/redecorating_a_house_semantic/redecorating_a_house_semantic_9.png"" class=""exp-image"">
                    <div class=""question-area""></div> 
                </div>","null","","","","","","","","",""
"","","","","","html-button-response","139","505799","0.0-139.0","015D95BA960E4D8387F933A0C7E87F69","019cf810-8532-78dd-9836-a43d97900524","019cf80d-4266-7117-8a51-54e13c84aca4","","750","
                <div class=""stimulus-container"">
                    <img src=""images/semantic_sequence/redecorating_a_house_semantic/redecorating_a_house_semantic_9.png"" class=""exp-image"">
                    <div class=""question-area"">
                        <p style=""font-size: 20px; font-weight: bold; margin: 0;"">Is there a person in this image?</p>
                    </div>
                </div>","0","main_experiment_trial","9","redecorating_a_house_semantic","semantic_sequence","","","","",""
"","","","","","html-keyboard-response","140","510801","0.0-140.0","015D95BA960E4D8387F933A0C7E87F69","019cf810-8532-78dd-9836-a43d97900524","019cf80d-4266-7117-8a51-54e13c84aca4","","null","
                <div class=""stimulus-container"">
                    <img src=""images/semantic_sequence/redecorating_a_house_semantic/redecorating_a_house_semantic_ten.png"" class=""exp-image"">
                    <div class=""question-area""></div> 
                </div>","null","","","","","","","","",""
"","","","","","html-button-response","141","511927","0.0-141.0","015D95BA960E4D8387F933A0C7E87F69","019cf810-8532-78dd-9836-a43d97900524","019cf80d-4266-7117-8a51-54e13c84aca4","","1125","
                <div class=""stimulus-container"">
                    <img src=""images/semantic_sequence/redecorating_a_house_semantic/redecorating_a_house_semantic_ten.png"" class=""exp-image"">
                    <div class=""question-area"">
                        <p style=""font-size: 20px; font-weight: bold; margin: 0;"">Is there a person in this image?</p>
                    </div>
                </div>","0","main_experiment_trial","ten","redecorating_a_house_semantic","semantic_sequence","","","","",""
"","","","","","html-keyboard-response","142","512938","0.0-142.0","015D95BA960E4D8387F933A0C7E87F69","019cf810-8532-78dd-9836-a43d97900524","019cf80d-4266-7117-8a51-54e13c84aca4","","null","<div style=""background-color: white; width: 100vw; height: 100vh;""></div>","null","","","","","","","","",""
"","","","","","html-keyboard-response","143","517939","0.0-143.0","015D95BA960E4D8387F933A0C7E87F69","019cf810-8532-78dd-9836-a43d97900524","019cf80d-4266-7117-8a51-54e13c84aca4","","null","
                <div class=""stimulus-container"">
                    <img src=""images/semantic_sequence/visiting_cities_semantic/visiting_cities_semantic_1.png"" class=""exp-image"">
                    <div class=""question-area""></div> 
                </div>","null","","","","","","","","",""
"","","","","","html-button-response","144","519007","0.0-144.0","015D95BA960E4D8387F933A0C7E87F69","019cf810-8532-78dd-9836-a43d97900524","019cf80d-4266-7117-8a51-54e13c84aca4","","1067","
                <div class=""stimulus-container"">
                    <img src=""images/semantic_sequence/visiting_cities_semantic/visiting_cities_semantic_1.png"" class=""exp-image"">
                    <div class=""question-area"">
                        <p style=""font-size: 20px; font-weight: bold; margin: 0;"">Is there a person in this image?</p>
                    </div>
                </div>","0","main_experiment_trial","1","visiting_cities_semantic","semantic_sequence","","","","",""
"","","","","","html-keyboard-response","145","524021","0.0-145.0","015D95BA960E4D8387F933A0C7E87F69","019cf810-8532-78dd-9836-a43d97900524","019cf80d-4266-7117-8a51-54e13c84aca4","","null","
                <div class=""stimulus-container"">
                    <img src=""images/semantic_sequence/visiting_cities_semantic/visiting_cities_semantic_2.png"" class=""exp-image"">
                    <div class=""question-area""></div> 
                </div>","null","","","","","","","","",""
"","","","","","html-button-response","146","525158","0.0-146.0","015D95BA960E4D8387F933A0C7E87F69","019cf810-8532-78dd-9836-a43d97900524","019cf80d-4266-7117-8a51-54e13c84aca4","","1135","
                <div class=""stimulus-container"">
                    <img src=""images/semantic_sequence/visiting_cities_semantic/visiting_cities_semantic_2.png"" class=""exp-image"">
                    <div class=""question-area"">
                        <p style=""font-size: 20px; font-weight: bold; margin: 0;"">Is there a person in this image?</p>
                    </div>
                </div>","1","main_experiment_trial","2","visiting_cities_semantic","semantic_sequence","","","","",""
"","","","","","html-keyboard-response","147","530168","0.0-147.0","015D95BA960E4D8387F933A0C7E87F69","019cf810-8532-78dd-9836-a43d97900524","019cf80d-4266-7117-8a51-54e13c84aca4","","null","
                <div class=""stimulus-container"">
                    <img src=""images/semantic_sequence/visiting_cities_semantic/visiting_cities_semantic_3.png"" class=""exp-image"">
                    <div class=""question-area""></div> 
                </div>","null","","","","","","","","",""
"","","","","","html-button-response","148","531031","0.0-148.0","015D95BA960E4D8387F933A0C7E87F69","019cf810-8532-78dd-9836-a43d97900524","019cf80d-4266-7117-8a51-54e13c84aca4","","862","
                <div class=""stimulus-container"">
                    <img src=""images/semantic_sequence/visiting_cities_semantic/visiting_cities_semantic_3.png"" class=""exp-image"">
                    <div class=""question-area"">
                        <p style=""font-size: 20px; font-weight: bold; margin: 0;"">Is there a person in this image?</p>
                    </div>
                </div>","1","main_experiment_trial","3","visiting_cities_semantic","semantic_sequence","","","","",""
"","","","","","html-keyboard-response","149","536032","0.0-149.0","015D95BA960E4D8387F933A0C7E87F69","019cf810-8532-78dd-9836-a43d97900524","019cf80d-4266-7117-8a51-54e13c84aca4","","null","
                <div class=""stimulus-container"">
                    <img src=""images/semantic_sequence/visiting_cities_semantic/visiting_cities_semantic_4.png"" class=""exp-image"">
                    <div class=""question-area""></div> 
                </div>","null","","","","","","","","",""
"","","","","","html-button-response","150","537054","0.0-150.0","015D95BA960E4D8387F933A0C7E87F69","019cf810-8532-78dd-9836-a43d97900524","019cf80d-4266-7117-8a51-54e13c84aca4","","1021","
                <div class=""stimulus-container"">
                    <img src=""images/semantic_sequence/visiting_cities_semantic/visiting_cities_semantic_4.png"" class=""exp-image"">
                    <div class=""question-area"">
                        <p style=""font-size: 20px; font-weight: bold; margin: 0;"">Is there a person in this image?</p>
                    </div>
                </div>","1","main_experiment_trial","4","visiting_cities_semantic","semantic_sequence","","","","",""
"","","","","","html-keyboard-response","151","542062","0.0-151.0","015D95BA960E4D8387F933A0C7E87F69","019cf810-8532-78dd-9836-a43d97900524","019cf80d-4266-7117-8a51-54e13c84aca4","","null","
                <div class=""stimulus-container"">
                    <img src=""images/semantic_sequence/visiting_cities_semantic/visiting_cities_semantic_5.png"" class=""exp-image"">
                    <div class=""question-area""></div> 
                </div>","null","","","","","","","","",""
"","","","","","html-button-response","152","543782","0.0-152.0","015D95BA960E4D8387F933A0C7E87F69","019cf810-8532-78dd-9836-a43d97900524","019cf80d-4266-7117-8a51-54e13c84aca4","","1719","
                <div class=""stimulus-container"">
                    <img src=""images/semantic_sequence/visiting_cities_semantic/visiting_cities_semantic_5.png"" class=""exp-image"">
                    <div class=""question-area"">
                        <p style=""font-size: 20px; font-weight: bold; margin: 0;"">Is there a person in this image?</p>
                    </div>
                </div>","1","main_experiment_trial","5","visiting_cities_semantic","semantic_sequence","","","","",""
"","","","","","html-keyboard-response","153","548798","0.0-153.0","015D95BA960E4D8387F933A0C7E87F69","019cf810-8532-78dd-9836-a43d97900524","019cf80d-4266-7117-8a51-54e13c84aca4","","null","
                <div class=""stimulus-container"">
                    <img src=""images/semantic_sequence/visiting_cities_semantic/visiting_cities_semantic_6.png"" class=""exp-image"">
                    <div class=""question-area""></div> 
                </div>","null","","","","","","","","",""
"","","","","","html-button-response","154","549504","0.0-154.0","015D95BA960E4D8387F933A0C7E87F69","019cf810-8532-78dd-9836-a43d97900524","019cf80d-4266-7117-8a51-54e13c84aca4","","706","
                <div class=""stimulus-container"">
                    <img src=""images/semantic_sequence/visiting_cities_semantic/visiting_cities_semantic_6.png"" class=""exp-image"">
                    <div class=""question-area"">
                        <p style=""font-size: 20px; font-weight: bold; margin: 0;"">Is there a person in this image?</p>
                    </div>
                </div>","1","main_experiment_trial","6","visiting_cities_semantic","semantic_sequence","","","","",""
"","","","","","html-keyboard-response","155","554506","0.0-155.0","015D95BA960E4D8387F933A0C7E87F69","019cf810-8532-78dd-9836-a43d97900524","019cf80d-4266-7117-8a51-54e13c84aca4","","null","
                <div class=""stimulus-container"">
                    <img src=""images/semantic_sequence/visiting_cities_semantic/visiting_cities_semantic_7.png"" class=""exp-image"">
                    <div class=""question-area""></div> 
                </div>","null","","","","","","","","",""
"","","","","","html-button-response","156","555617","0.0-156.0","015D95BA960E4D8387F933A0C7E87F69","019cf810-8532-78dd-9836-a43d97900524","019cf80d-4266-7117-8a51-54e13c84aca4","","1110","
                <div class=""stimulus-container"">
                    <img src=""images/semantic_sequence/visiting_cities_semantic/visiting_cities_semantic_7.png"" class=""exp-image"">
                    <div class=""question-area"">
                        <p style=""font-size: 20px; font-weight: bold; margin: 0;"">Is there a person in this image?</p>
                    </div>
                </div>","0","main_experiment_trial","7","visiting_cities_semantic","semantic_sequence","","","","",""
"","","","","","html-keyboard-response","157","560622","0.0-157.0","015D95BA960E4D8387F933A0C7E87F69","019cf810-8532-78dd-9836-a43d97900524","019cf80d-4266-7117-8a51-54e13c84aca4","","null","
                <div class=""stimulus-container"">
                    <img src=""images/semantic_sequence/visiting_cities_semantic/visiting_cities_semantic_8.png"" class=""exp-image"">
                    <div class=""question-area""></div> 
                </div>","null","","","","","","","","",""
"","","","","","html-button-response","158","561393","0.0-158.0","015D95BA960E4D8387F933A0C7E87F69","019cf810-8532-78dd-9836-a43d97900524","019cf80d-4266-7117-8a51-54e13c84aca4","","770","
                <div class=""stimulus-container"">
                    <img src=""images/semantic_sequence/visiting_cities_semantic/visiting_cities_semantic_8.png"" class=""exp-image"">
                    <div class=""question-area"">
                        <p style=""font-size: 20px; font-weight: bold; margin: 0;"">Is there a person in this image?</p>
                    </div>
                </div>","0","main_experiment_trial","8","visiting_cities_semantic","semantic_sequence","","","","",""
"","","","","","html-keyboard-response","159","566406","0.0-159.0","015D95BA960E4D8387F933A0C7E87F69","019cf810-8532-78dd-9836-a43d97900524","019cf80d-4266-7117-8a51-54e13c84aca4","","null","
                <div class=""stimulus-container"">
                    <img src=""images/semantic_sequence/visiting_cities_semantic/visiting_cities_semantic_9.png"" class=""exp-image"">
                    <div class=""question-area""></div> 
                </div>","null","","","","","","","","",""
"","","","","","html-button-response","160","567304","0.0-160.0","015D95BA960E4D8387F933A0C7E87F69","019cf810-8532-78dd-9836-a43d97900524","019cf80d-4266-7117-8a51-54e13c84aca4","","897","
                <div class=""stimulus-container"">
                    <img src=""images/semantic_sequence/visiting_cities_semantic/visiting_cities_semantic_9.png"" class=""exp-image"">
                    <div class=""question-area"">
                        <p style=""font-size: 20px; font-weight: bold; margin: 0;"">Is there a person in this image?</p>
                    </div>
                </div>","0","main_experiment_trial","9","visiting_cities_semantic","semantic_sequence","","","","",""
"","","","","","html-keyboard-response","161","572309","0.0-161.0","015D95BA960E4D8387F933A0C7E87F69","019cf810-8532-78dd-9836-a43d97900524","019cf80d-4266-7117-8a51-54e13c84aca4","","null","
                <div class=""stimulus-container"">
                    <img src=""images/semantic_sequence/visiting_cities_semantic/visiting_cities_semantic_ten.png"" class=""exp-image"">
                    <div class=""question-area""></div> 
                </div>","null","","","","","","","","",""
"","","","","","html-button-response","162","573910","0.0-162.0","015D95BA960E4D8387F933A0C7E87F69","019cf810-8532-78dd-9836-a43d97900524","019cf80d-4266-7117-8a51-54e13c84aca4","","1601","
                <div class=""stimulus-container"">
                    <img src=""images/semantic_sequence/visiting_cities_semantic/visiting_cities_semantic_ten.png"" class=""exp-image"">
                    <div class=""question-area"">
                        <p style=""font-size: 20px; font-weight: bold; margin: 0;"">Is there a person in this image?</p>
                    </div>
                </div>","0","main_experiment_trial","ten","visiting_cities_semantic","semantic_sequence","","","","",""
"","","","","","html-keyboard-response","163","574924","0.0-163.0","015D95BA960E4D8387F933A0C7E87F69","019cf810-8532-78dd-9836-a43d97900524","019cf80d-4266-7117-8a51-54e13c84aca4","","null","<div style=""background-color: white; width: 100vw; height: 100vh;""></div>","null","","","","","","","","",""
"","","","","","html-keyboard-response","164","579936","0.0-164.0","015D95BA960E4D8387F933A0C7E87F69","019cf810-8532-78dd-9836-a43d97900524","019cf80d-4266-7117-8a51-54e13c84aca4","","null","
                <div class=""stimulus-container"">
                    <img src=""images/semantic_sequence/maintaining_a_car_semantic/maintaining_a_car_semantic_1.png"" class=""exp-image"">
                    <div class=""question-area""></div> 
                </div>","null","","","","","","","","",""
"","","","","","html-button-response","165","580917","0.0-165.0","015D95BA960E4D8387F933A0C7E87F69","019cf810-8532-78dd-9836-a43d97900524","019cf80d-4266-7117-8a51-54e13c84aca4","","980","
                <div class=""stimulus-container"">
                    <img src=""images/semantic_sequence/maintaining_a_car_semantic/maintaining_a_car_semantic_1.png"" class=""exp-image"">
                    <div class=""question-area"">
                        <p style=""font-size: 20px; font-weight: bold; margin: 0;"">Is there a person in this image?</p>
                    </div>
                </div>","0","main_experiment_trial","1","maintaining_a_car_semantic","semantic_sequence","","","","",""
"","","","","","html-keyboard-response","166","585919","0.0-166.0","015D95BA960E4D8387F933A0C7E87F69","019cf810-8532-78dd-9836-a43d97900524","019cf80d-4266-7117-8a51-54e13c84aca4","","null","
                <div class=""stimulus-container"">
                    <img src=""images/semantic_sequence/maintaining_a_car_semantic/maintaining_a_car_semantic_2.png"" class=""exp-image"">
                    <div class=""question-area""></div> 
                </div>","null","","","","","","","","",""
"","","","","","html-button-response","167","586715","0.0-167.0","015D95BA960E4D8387F933A0C7E87F69","019cf810-8532-78dd-9836-a43d97900524","019cf80d-4266-7117-8a51-54e13c84aca4","","795","
                <div class=""stimulus-container"">
                    <img src=""images/semantic_sequence/maintaining_a_car_semantic/maintaining_a_car_semantic_2.png"" class=""exp-image"">
                    <div class=""question-area"">
                        <p style=""font-size: 20px; font-weight: bold; margin: 0;"">Is there a person in this image?</p>
                    </div>
                </div>","0","main_experiment_trial","2","maintaining_a_car_semantic","semantic_sequence","","","","",""
"","","","","","html-keyboard-response","168","591723","0.0-168.0","015D95BA960E4D8387F933A0C7E87F69","019cf810-8532-78dd-9836-a43d97900524","019cf80d-4266-7117-8a51-54e13c84aca4","","null","
                <div class=""stimulus-container"">
                    <img src=""images/semantic_sequence/maintaining_a_car_semantic/maintaining_a_car_semantic_3.png"" class=""exp-image"">
                    <div class=""question-area""></div> 
                </div>","null","","","","","","","","",""
"","","","","","html-button-response","169","592602","0.0-169.0","015D95BA960E4D8387F933A0C7E87F69","019cf810-8532-78dd-9836-a43d97900524","019cf80d-4266-7117-8a51-54e13c84aca4","","878","
                <div class=""stimulus-container"">
                    <img src=""images/semantic_sequence/maintaining_a_car_semantic/maintaining_a_car_semantic_3.png"" class=""exp-image"">
                    <div class=""question-area"">
                        <p style=""font-size: 20px; font-weight: bold; margin: 0;"">Is there a person in this image?</p>
                    </div>
                </div>","0","main_experiment_trial","3","maintaining_a_car_semantic","semantic_sequence","","","","",""
"","","","","","html-keyboard-response","170","597608","0.0-170.0","015D95BA960E4D8387F933A0C7E87F69","019cf810-8532-78dd-9836-a43d97900524","019cf80d-4266-7117-8a51-54e13c84aca4","","null","
                <div class=""stimulus-container"">
                    <img src=""images/semantic_sequence/maintaining_a_car_semantic/maintaining_a_car_semantic_4.png"" class=""exp-image"">
                    <div class=""question-area""></div> 
                </div>","null","","","","","","","","",""
"","","","","","html-button-response","171","598257","0.0-171.0","015D95BA960E4D8387F933A0C7E87F69","019cf810-8532-78dd-9836-a43d97900524","019cf80d-4266-7117-8a51-54e13c84aca4","","649","
                <div class=""stimulus-container"">
                    <img src=""images/semantic_sequence/maintaining_a_car_semantic/maintaining_a_car_semantic_4.png"" class=""exp-image"">
                    <div class=""question-area"">
                        <p style=""font-size: 20px; font-weight: bold; margin: 0;"">Is there a person in this image?</p>
                    </div>
                </div>","0","main_experiment_trial","4","maintaining_a_car_semantic","semantic_sequence","","","","",""
"","","","","","html-keyboard-response","172","603260","0.0-172.0","015D95BA960E4D8387F933A0C7E87F69","019cf810-8532-78dd-9836-a43d97900524","019cf80d-4266-7117-8a51-54e13c84aca4","","null","
                <div class=""stimulus-container"">
                    <img src=""images/semantic_sequence/maintaining_a_car_semantic/maintaining_a_car_semantic_5.png"" class=""exp-image"">
                    <div class=""question-area""></div> 
                </div>","null","","","","","","","","",""
"","","","","","html-button-response","173","604236","0.0-173.0","015D95BA960E4D8387F933A0C7E87F69","019cf810-8532-78dd-9836-a43d97900524","019cf80d-4266-7117-8a51-54e13c84aca4","","975","
                <div class=""stimulus-container"">
                    <img src=""images/semantic_sequence/maintaining_a_car_semantic/maintaining_a_car_semantic_5.png"" class=""exp-image"">
                    <div class=""question-area"">
                        <p style=""font-size: 20px; font-weight: bold; margin: 0;"">Is there a person in this image?</p>
                    </div>
                </div>","0","main_experiment_trial","5","maintaining_a_car_semantic","semantic_sequence","","","","",""
"","","","","","html-keyboard-response","174","609237","0.0-174.0","015D95BA960E4D8387F933A0C7E87F69","019cf810-8532-78dd-9836-a43d97900524","019cf80d-4266-7117-8a51-54e13c84aca4","","null","
                <div class=""stimulus-container"">
                    <img src=""images/semantic_sequence/maintaining_a_car_semantic/maintaining_a_car_semantic_6.png"" class=""exp-image"">
                    <div class=""question-area""></div> 
                </div>","null","","","","","","","","",""
"","","","","","html-button-response","175","610116","0.0-175.0","015D95BA960E4D8387F933A0C7E87F69","019cf810-8532-78dd-9836-a43d97900524","019cf80d-4266-7117-8a51-54e13c84aca4","","878","
                <div class=""stimulus-container"">
                    <img src=""images/semantic_sequence/maintaining_a_car_semantic/maintaining_a_car_semantic_6.png"" class=""exp-image"">
                    <div class=""question-area"">
                        <p style=""font-size: 20px; font-weight: bold; margin: 0;"">Is there a person in this image?</p>
                    </div>
                </div>","0","main_experiment_trial","6","maintaining_a_car_semantic","semantic_sequence","","","","",""
"","","","","","html-keyboard-response","176","615122","0.0-176.0","015D95BA960E4D8387F933A0C7E87F69","019cf810-8532-78dd-9836-a43d97900524","019cf80d-4266-7117-8a51-54e13c84aca4","","null","
                <div class=""stimulus-container"">
                    <img src=""images/semantic_sequence/maintaining_a_car_semantic/maintaining_a_car_semantic_7.png"" class=""exp-image"">
                    <div class=""question-area""></div> 
                </div>","null","","","","","","","","",""
"","","","","","html-button-response","177","615704","0.0-177.0","015D95BA960E4D8387F933A0C7E87F69","019cf810-8532-78dd-9836-a43d97900524","019cf80d-4266-7117-8a51-54e13c84aca4","","581","
                <div class=""stimulus-container"">
                    <img src=""images/semantic_sequence/maintaining_a_car_semantic/maintaining_a_car_semantic_7.png"" class=""exp-image"">
                    <div class=""question-area"">
                        <p style=""font-size: 20px; font-weight: bold; margin: 0;"">Is there a person in this image?</p>
                    </div>
                </div>","0","main_experiment_trial","7","maintaining_a_car_semantic","semantic_sequence","","","","",""
"","","","","","html-keyboard-response","178","620709","0.0-178.0","015D95BA960E4D8387F933A0C7E87F69","019cf810-8532-78dd-9836-a43d97900524","019cf80d-4266-7117-8a51-54e13c84aca4","","null","
                <div class=""stimulus-container"">
