"success","timeout","failed_images","failed_audio","failed_video","trial_type","trial_index","time_elapsed","internal_node_id","subject_id","study_id","session_id","view_history","rt","stimulus","response","task","image_index","folder","sequence_type","presentation_order","valuable_image_index","reward_type","distance_from_x","target_X","chosen_image_index","is_x_plus_dist","correct_choice"
"true","false","[]","[]","[]","preload","0","9330","0.0-0.0","4EF1100B4C894516BF6B02691A97AF31","019cfc2f-89bb-7c9d-a689-ae06c450a751","019cfc28-2143-7934-89cc-ce6402563331","","","","","","","","","","","","","","","",""
"","","","","","instructions","1","11410","0.0-1.0","4EF1100B4C894516BF6B02691A97AF31","019cfc2f-89bb-7c9d-a689-ae06c450a751","019cfc28-2143-7934-89cc-ce6402563331","[{""page_index"":0,""viewing_time"":2077}]","2078","","","","","","","","","","","","","",""
"","","","","","instructions","2","14260","0.0-2.0","4EF1100B4C894516BF6B02691A97AF31","019cfc2f-89bb-7c9d-a689-ae06c450a751","019cfc28-2143-7934-89cc-ce6402563331","[{""page_index"":0,""viewing_time"":2849}]","2849","","","","","","","","","","","","","",""
"true","","","","","fullscreen","3","16709","0.0-3.0","4EF1100B4C894516BF6B02691A97AF31","019cfc2f-89bb-7c9d-a689-ae06c450a751","019cfc28-2143-7934-89cc-ce6402563331","","1446","","","","","","","","","","","","","",""
"","","","","","instructions","4","21327","0.0-4.0","4EF1100B4C894516BF6B02691A97AF31","019cfc2f-89bb-7c9d-a689-ae06c450a751","019cfc28-2143-7934-89cc-ce6402563331","[{""page_index"":0,""viewing_time"":4617}]","4617","","","","","","","","","","","","","",""
"","","","","","instructions","5","28311","0.0-5.0","4EF1100B4C894516BF6B02691A97AF31","019cfc2f-89bb-7c9d-a689-ae06c450a751","019cfc28-2143-7934-89cc-ce6402563331","[{""page_index"":0,""viewing_time"":6984}]","6984","","","","","","","","","","","","","",""
"","","","","","html-keyboard-response","6","32313","0.0-6.0","4EF1100B4C894516BF6B02691A97AF31","019cfc2f-89bb-7c9d-a689-ae06c450a751","019cfc28-2143-7934-89cc-ce6402563331","","null","
                <div class=""stimulus-container"">
                    <img src=""images/instructions/movie_1.png"" class=""exp-image"">
                    <div class=""question-area""></div> 
                </div>","null","","","","","","","","","","","",""
"","","","","","html-button-response","7","34734","0.0-7.0","4EF1100B4C894516BF6B02691A97AF31","019cfc2f-89bb-7c9d-a689-ae06c450a751","019cfc28-2143-7934-89cc-ce6402563331","","2420","
                <div class=""stimulus-container"">
                    <img src=""images/instructions/movie_1.png"" class=""exp-image"">
                    <div class=""question-area"">
                        <p style=""font-size: 20px; font-weight: bold; margin: 0;"">Was there a person in this image?</p>
                    </div>
                </div>","0","example_question","1","","","","","","","","","",""
"","","","","","html-keyboard-response","8","38736","0.0-8.0","4EF1100B4C894516BF6B02691A97AF31","019cfc2f-89bb-7c9d-a689-ae06c450a751","019cfc28-2143-7934-89cc-ce6402563331","","null","
                <div class=""stimulus-container"">
                    <img src=""images/instructions/movie_2.png"" class=""exp-image"">
                    <div class=""question-area""></div> 
                </div>","null","","","","","","","","","","","",""
"","","","","","html-button-response","9","39569","0.0-9.0","4EF1100B4C894516BF6B02691A97AF31","019cfc2f-89bb-7c9d-a689-ae06c450a751","019cfc28-2143-7934-89cc-ce6402563331","","832","
                <div class=""stimulus-container"">
                    <img src=""images/instructions/movie_2.png"" class=""exp-image"">
                    <div class=""question-area"">
                        <p style=""font-size: 20px; font-weight: bold; margin: 0;"">Was there a person in this image?</p>
                    </div>
                </div>","0","example_question","2","","","","","","","","","",""
"","","","","","html-keyboard-response","10","43571","0.0-10.0","4EF1100B4C894516BF6B02691A97AF31","019cfc2f-89bb-7c9d-a689-ae06c450a751","019cfc28-2143-7934-89cc-ce6402563331","","null","
                <div class=""stimulus-container"">
                    <img src=""images/instructions/movie_3.png"" class=""exp-image"">
                    <div class=""question-area""></div> 
                </div>","null","","","","","","","","","","","",""
"","","","","","html-button-response","11","44421","0.0-11.0","4EF1100B4C894516BF6B02691A97AF31","019cfc2f-89bb-7c9d-a689-ae06c450a751","019cfc28-2143-7934-89cc-ce6402563331","","849","
                <div class=""stimulus-container"">
                    <img src=""images/instructions/movie_3.png"" class=""exp-image"">
                    <div class=""question-area"">
                        <p style=""font-size: 20px; font-weight: bold; margin: 0;"">Was there a person in this image?</p>
                    </div>
                </div>","0","example_question","3","","","","","","","","","",""
"","","","","","html-keyboard-response","12","48423","0.0-12.0","4EF1100B4C894516BF6B02691A97AF31","019cfc2f-89bb-7c9d-a689-ae06c450a751","019cfc28-2143-7934-89cc-ce6402563331","","null","
                <div class=""stimulus-container"">
                    <img src=""images/instructions/movie_4.png"" class=""exp-image"">
                    <div class=""question-area""></div> 
                </div>","null","","","","","","","","","","","",""
"","","","","","html-button-response","13","49139","0.0-13.0","4EF1100B4C894516BF6B02691A97AF31","019cfc2f-89bb-7c9d-a689-ae06c450a751","019cfc28-2143-7934-89cc-ce6402563331","","716","
                <div class=""stimulus-container"">
                    <img src=""images/instructions/movie_4.png"" class=""exp-image"">
                    <div class=""question-area"">
                        <p style=""font-size: 20px; font-weight: bold; margin: 0;"">Was there a person in this image?</p>
                    </div>
                </div>","0","example_question","4","","","","","","","","","",""
"","","","","","instructions","14","50507","0.0-14.0","4EF1100B4C894516BF6B02691A97AF31","019cfc2f-89bb-7c9d-a689-ae06c450a751","019cfc28-2143-7934-89cc-ce6402563331","[{""page_index"":0,""viewing_time"":1368}]","1368","","","","","","","","","","","","","",""
"","","","","","instructions","15","54493","0.0-15.0","4EF1100B4C894516BF6B02691A97AF31","019cfc2f-89bb-7c9d-a689-ae06c450a751","019cfc28-2143-7934-89cc-ce6402563331","[{""page_index"":0,""viewing_time"":3985}]","3985","","","","","","","","","","","","","",""
"","","","","","html-keyboard-response","16","59495","0.0-16.0","4EF1100B4C894516BF6B02691A97AF31","019cfc2f-89bb-7c9d-a689-ae06c450a751","019cfc28-2143-7934-89cc-ce6402563331","","null","<div style=""background-color: white; width: 100vw; height: 100vh;""></div>","null","","","","","","","","","","","",""
"","","","","","html-keyboard-response","17","64497","0.0-17.0","4EF1100B4C894516BF6B02691A97AF31","019cfc2f-89bb-7c9d-a689-ae06c450a751","019cfc28-2143-7934-89cc-ce6402563331","","null","
                <div class=""stimulus-container"">
                    <img src=""images/schematic_sequence/interview_scheme/interview_scheme_1.png"" class=""exp-image"">
                    <div class=""question-area""></div> 
                </div>","null","","","","","","","","","","","",""
"","","","","","html-button-response","18","65597","0.0-18.0","4EF1100B4C894516BF6B02691A97AF31","019cfc2f-89bb-7c9d-a689-ae06c450a751","019cfc28-2143-7934-89cc-ce6402563331","","1099","
                <div class=""stimulus-container"">
                    <img src=""images/schematic_sequence/interview_scheme/interview_scheme_1.png"" class=""exp-image"">
                    <div class=""question-area"">
                        <p style=""font-size: 20px; font-weight: bold; margin: 0;"">Is there a person in this image?</p>
                    </div>
                </div>","1","main_experiment_trial","1","interview_scheme","schematic_sequence","chronological","","","","","","",""
"","","","","","html-keyboard-response","19","70599","0.0-19.0","4EF1100B4C894516BF6B02691A97AF31","019cfc2f-89bb-7c9d-a689-ae06c450a751","019cfc28-2143-7934-89cc-ce6402563331","","null","
                <div class=""stimulus-container"">
                    <img src=""images/schematic_sequence/interview_scheme/interview_scheme_2.png"" class=""exp-image"">
                    <div class=""question-area""></div> 
                </div>","null","","","","","","","","","","","",""
"","","","","","html-button-response","20","72967","0.0-20.0","4EF1100B4C894516BF6B02691A97AF31","019cfc2f-89bb-7c9d-a689-ae06c450a751","019cfc28-2143-7934-89cc-ce6402563331","","2367","
                <div class=""stimulus-container"">
                    <img src=""images/schematic_sequence/interview_scheme/interview_scheme_2.png"" class=""exp-image"">
                    <div class=""question-area"">
                        <p style=""font-size: 20px; font-weight: bold; margin: 0;"">Is there a person in this image?</p>
                    </div>
                </div>","0","main_experiment_trial","2","interview_scheme","schematic_sequence","chronological","","","","","","",""
"","","","","","html-keyboard-response","21","77969","0.0-21.0","4EF1100B4C894516BF6B02691A97AF31","019cfc2f-89bb-7c9d-a689-ae06c450a751","019cfc28-2143-7934-89cc-ce6402563331","","null","
                <div class=""stimulus-container"">
                    <img src=""images/schematic_sequence/interview_scheme/interview_scheme_3.png"" class=""exp-image"">
                    <div class=""question-area""></div> 
                </div>","null","","","","","","","","","","","",""
"","","","","","html-button-response","22","78970","0.0-22.0","4EF1100B4C894516BF6B02691A97AF31","019cfc2f-89bb-7c9d-a689-ae06c450a751","019cfc28-2143-7934-89cc-ce6402563331","","1000","
                <div class=""stimulus-container"">
                    <img src=""images/schematic_sequence/interview_scheme/interview_scheme_3.png"" class=""exp-image"">
                    <div class=""question-area"">
                        <p style=""font-size: 20px; font-weight: bold; margin: 0;"">Is there a person in this image?</p>
                    </div>
                </div>","1","main_experiment_trial","3","interview_scheme","schematic_sequence","chronological","","","","","","",""
"","","","","","html-keyboard-response","23","83971","0.0-23.0","4EF1100B4C894516BF6B02691A97AF31","019cfc2f-89bb-7c9d-a689-ae06c450a751","019cfc28-2143-7934-89cc-ce6402563331","","null","
                <div class=""stimulus-container"">
                    <img src=""images/schematic_sequence/interview_scheme/interview_scheme_4.png"" class=""exp-image"">
                    <div class=""question-area""></div> 
                </div>","null","","","","","","","","","","","",""
"","","","","","html-button-response","24","84359","0.0-24.0","4EF1100B4C894516BF6B02691A97AF31","019cfc2f-89bb-7c9d-a689-ae06c450a751","019cfc28-2143-7934-89cc-ce6402563331","","387","
                <div class=""stimulus-container"">
                    <img src=""images/schematic_sequence/interview_scheme/interview_scheme_4.png"" class=""exp-image"">
                    <div class=""question-area"">
                        <p style=""font-size: 20px; font-weight: bold; margin: 0;"">Is there a person in this image?</p>
                    </div>
                </div>","1","main_experiment_trial","4","interview_scheme","schematic_sequence","chronological","","","","","","",""
"","","","","","html-keyboard-response","25","89361","0.0-25.0","4EF1100B4C894516BF6B02691A97AF31","019cfc2f-89bb-7c9d-a689-ae06c450a751","019cfc28-2143-7934-89cc-ce6402563331","","null","
                <div class=""stimulus-container"">
                    <img src=""images/schematic_sequence/interview_scheme/interview_scheme_5.png"" class=""exp-image"">
                    <div class=""question-area""></div> 
                </div>","null","","","","","","","","","","","",""
"","","","","","html-button-response","26","89959","0.0-26.0","4EF1100B4C894516BF6B02691A97AF31","019cfc2f-89bb-7c9d-a689-ae06c450a751","019cfc28-2143-7934-89cc-ce6402563331","","597","
                <div class=""stimulus-container"">
                    <img src=""images/schematic_sequence/interview_scheme/interview_scheme_5.png"" class=""exp-image"">
                    <div class=""question-area"">
                        <p style=""font-size: 20px; font-weight: bold; margin: 0;"">Is there a person in this image?</p>
                    </div>
                </div>","0","main_experiment_trial","5","interview_scheme","schematic_sequence","chronological","","","","","","",""
"","","","","","html-keyboard-response","27","94960","0.0-27.0","4EF1100B4C894516BF6B02691A97AF31","019cfc2f-89bb-7c9d-a689-ae06c450a751","019cfc28-2143-7934-89cc-ce6402563331","","null","
                <div class=""stimulus-container"">
                    <img src=""images/schematic_sequence/interview_scheme/interview_scheme_6.png"" class=""exp-image"">
                    <div class=""question-area""></div> 
                </div>","null","","","","","","","","","","","",""
"","","","","","html-button-response","28","97961","0.0-28.0","4EF1100B4C894516BF6B02691A97AF31","019cfc2f-89bb-7c9d-a689-ae06c450a751","019cfc28-2143-7934-89cc-ce6402563331","","null","
                <div class=""stimulus-container"">
                    <img src=""images/schematic_sequence/interview_scheme/interview_scheme_6.png"" class=""exp-image"">
                    <div class=""question-area"">
                        <p style=""font-size: 20px; font-weight: bold; margin: 0;"">Is there a person in this image?</p>
                    </div>
                </div>","null","main_experiment_trial","6","interview_scheme","schematic_sequence","chronological","","","","","","",""
"","","","","","html-keyboard-response","29","102963","0.0-29.0","4EF1100B4C894516BF6B02691A97AF31","019cfc2f-89bb-7c9d-a689-ae06c450a751","019cfc28-2143-7934-89cc-ce6402563331","","null","
                <div class=""stimulus-container"">
                    <img src=""images/schematic_sequence/interview_scheme/interview_scheme_7.png"" class=""exp-image"">
                    <div class=""question-area""></div> 
                </div>","null","","","","","","","","","","","",""
"","","","","","html-button-response","30","104298","0.0-30.0","4EF1100B4C894516BF6B02691A97AF31","019cfc2f-89bb-7c9d-a689-ae06c450a751","019cfc28-2143-7934-89cc-ce6402563331","","1334","
                <div class=""stimulus-container"">
                    <img src=""images/schematic_sequence/interview_scheme/interview_scheme_7.png"" class=""exp-image"">
                    <div class=""question-area"">
                        <p style=""font-size: 20px; font-weight: bold; margin: 0;"">Is there a person in this image?</p>
                    </div>
                </div>","0","main_experiment_trial","7","interview_scheme","schematic_sequence","chronological","","","","","","",""
"","","","","","html-keyboard-response","31","109300","0.0-31.0","4EF1100B4C894516BF6B02691A97AF31","019cfc2f-89bb-7c9d-a689-ae06c450a751","019cfc28-2143-7934-89cc-ce6402563331","","null","
                <div class=""stimulus-container"">
                    <img src=""images/schematic_sequence/interview_scheme/interview_scheme_8.png"" class=""exp-image"">
                    <div class=""question-area""></div> 
                </div>","null","","","","","","","","","","","",""
"","","","","","html-button-response","32","109852","0.0-32.0","4EF1100B4C894516BF6B02691A97AF31","019cfc2f-89bb-7c9d-a689-ae06c450a751","019cfc28-2143-7934-89cc-ce6402563331","","552","
                <div class=""stimulus-container"">
                    <img src=""images/schematic_sequence/interview_scheme/interview_scheme_8.png"" class=""exp-image"">
                    <div class=""question-area"">
                        <p style=""font-size: 20px; font-weight: bold; margin: 0;"">Is there a person in this image?</p>
                    </div>
                </div>","0","main_experiment_trial","8","interview_scheme","schematic_sequence","chronological","","","","","","",""
"","","","","","html-keyboard-response","33","114854","0.0-33.0","4EF1100B4C894516BF6B02691A97AF31","019cfc2f-89bb-7c9d-a689-ae06c450a751","019cfc28-2143-7934-89cc-ce6402563331","","null","
                <div class=""stimulus-container"">
                    <img src=""images/schematic_sequence/interview_scheme/interview_scheme_9.png"" class=""exp-image"">
                    <div class=""question-area""></div> 
                </div>","null","","","","","","","","","","","",""
"","","","","","html-button-response","34","115288","0.0-34.0","4EF1100B4C894516BF6B02691A97AF31","019cfc2f-89bb-7c9d-a689-ae06c450a751","019cfc28-2143-7934-89cc-ce6402563331","","433","
                <div class=""stimulus-container"">
                    <img src=""images/schematic_sequence/interview_scheme/interview_scheme_9.png"" class=""exp-image"">
                    <div class=""question-area"">
                        <p style=""font-size: 20px; font-weight: bold; margin: 0;"">Is there a person in this image?</p>
                    </div>
                </div>","0","main_experiment_trial","9","interview_scheme","schematic_sequence","chronological","","","","","","",""
"","","","","","html-keyboard-response","35","120290","0.0-35.0","4EF1100B4C894516BF6B02691A97AF31","019cfc2f-89bb-7c9d-a689-ae06c450a751","019cfc28-2143-7934-89cc-ce6402563331","","null","
                <div class=""stimulus-container"">
                    <img src=""images/schematic_sequence/interview_scheme/interview_scheme_ten.png"" class=""exp-image"">
                    <div class=""question-area""></div> 
                </div>","null","","","","","","","","","","","",""
"","","","","","html-button-response","36","120639","0.0-36.0","4EF1100B4C894516BF6B02691A97AF31","019cfc2f-89bb-7c9d-a689-ae06c450a751","019cfc28-2143-7934-89cc-ce6402563331","","348","
                <div class=""stimulus-container"">
                    <img src=""images/schematic_sequence/interview_scheme/interview_scheme_ten.png"" class=""exp-image"">
                    <div class=""question-area"">
                        <p style=""font-size: 20px; font-weight: bold; margin: 0;"">Is there a person in this image?</p>
                    </div>
                </div>","0","main_experiment_trial","ten","interview_scheme","schematic_sequence","chronological","","","","","","",""
"","","","","","html-keyboard-response","37","125640","0.0-37.0","4EF1100B4C894516BF6B02691A97AF31","019cfc2f-89bb-7c9d-a689-ae06c450a751","019cfc28-2143-7934-89cc-ce6402563331","","null","<div style=""background-color: white; width: 100vw; height: 100vh;""></div>","null","","","","","","","","","","","",""
"","","","","","html-keyboard-response","38","130641","0.0-38.0","4EF1100B4C894516BF6B02691A97AF31","019cfc2f-89bb-7c9d-a689-ae06c450a751","019cfc28-2143-7934-89cc-ce6402563331","","null","
                <div class=""stimulus-container"">
                    <img src=""images/schematic_sequence/supermarket_scheme/supermarket_scheme_1.png"" class=""exp-image"">
                    <div class=""question-area""></div> 
                </div>","null","","","","","","","","","","","",""
"","","","","","html-button-response","39","131095","0.0-39.0","4EF1100B4C894516BF6B02691A97AF31","019cfc2f-89bb-7c9d-a689-ae06c450a751","019cfc28-2143-7934-89cc-ce6402563331","","453","
                <div class=""stimulus-container"">
                    <img src=""images/schematic_sequence/supermarket_scheme/supermarket_scheme_1.png"" class=""exp-image"">
                    <div class=""question-area"">
                        <p style=""font-size: 20px; font-weight: bold; margin: 0;"">Is there a person in this image?</p>
                    </div>
                </div>","1","main_experiment_trial","1","supermarket_scheme","schematic_sequence","chronological","","","","","","",""
"","","","","","html-keyboard-response","40","136097","0.0-40.0","4EF1100B4C894516BF6B02691A97AF31","019cfc2f-89bb-7c9d-a689-ae06c450a751","019cfc28-2143-7934-89cc-ce6402563331","","null","
                <div class=""stimulus-container"">
                    <img src=""images/schematic_sequence/supermarket_scheme/supermarket_scheme_2.png"" class=""exp-image"">
                    <div class=""question-area""></div> 
                </div>","null","","","","","","","","","","","",""
"","","","","","html-button-response","41","136630","0.0-41.0","4EF1100B4C894516BF6B02691A97AF31","019cfc2f-89bb-7c9d-a689-ae06c450a751","019cfc28-2143-7934-89cc-ce6402563331","","533","
                <div class=""stimulus-container"">
                    <img src=""images/schematic_sequence/supermarket_scheme/supermarket_scheme_2.png"" class=""exp-image"">
                    <div class=""question-area"">
                        <p style=""font-size: 20px; font-weight: bold; margin: 0;"">Is there a person in this image?</p>
                    </div>
                </div>","1","main_experiment_trial","2","supermarket_scheme","schematic_sequence","chronological","","","","","","",""
"","","","","","html-keyboard-response","42","141633","0.0-42.0","4EF1100B4C894516BF6B02691A97AF31","019cfc2f-89bb-7c9d-a689-ae06c450a751","019cfc28-2143-7934-89cc-ce6402563331","","null","
                <div class=""stimulus-container"">
                    <img src=""images/schematic_sequence/supermarket_scheme/supermarket_scheme_3.png"" class=""exp-image"">
                    <div class=""question-area""></div> 
                </div>","null","","","","","","","","","","","",""
"","","","","","html-button-response","43","142018","0.0-43.0","4EF1100B4C894516BF6B02691A97AF31","019cfc2f-89bb-7c9d-a689-ae06c450a751","019cfc28-2143-7934-89cc-ce6402563331","","384","
                <div class=""stimulus-container"">
                    <img src=""images/schematic_sequence/supermarket_scheme/supermarket_scheme_3.png"" class=""exp-image"">
                    <div class=""question-area"">
                        <p style=""font-size: 20px; font-weight: bold; margin: 0;"">Is there a person in this image?</p>
                    </div>
                </div>","1","main_experiment_trial","3","supermarket_scheme","schematic_sequence","chronological","","","","","","",""
"","","","","","html-keyboard-response","44","147020","0.0-44.0","4EF1100B4C894516BF6B02691A97AF31","019cfc2f-89bb-7c9d-a689-ae06c450a751","019cfc28-2143-7934-89cc-ce6402563331","","null","
                <div class=""stimulus-container"">
                    <img src=""images/schematic_sequence/supermarket_scheme/supermarket_scheme_4.png"" class=""exp-image"">
                    <div class=""question-area""></div> 
                </div>","null","","","","","","","","","","","",""
"","","","","","html-button-response","45","147569","0.0-45.0","4EF1100B4C894516BF6B02691A97AF31","019cfc2f-89bb-7c9d-a689-ae06c450a751","019cfc28-2143-7934-89cc-ce6402563331","","548","
                <div class=""stimulus-container"">
                    <img src=""images/schematic_sequence/supermarket_scheme/supermarket_scheme_4.png"" class=""exp-image"">
                    <div class=""question-area"">
                        <p style=""font-size: 20px; font-weight: bold; margin: 0;"">Is there a person in this image?</p>
                    </div>
                </div>","0","main_experiment_trial","4","supermarket_scheme","schematic_sequence","chronological","","","","","","",""
"","","","","","html-keyboard-response","46","152572","0.0-46.0","4EF1100B4C894516BF6B02691A97AF31","019cfc2f-89bb-7c9d-a689-ae06c450a751","019cfc28-2143-7934-89cc-ce6402563331","","null","
                <div class=""stimulus-container"">
                    <img src=""images/schematic_sequence/supermarket_scheme/supermarket_scheme_5.png"" class=""exp-image"">
                    <div class=""question-area""></div> 
                </div>","null","","","","","","","","","","","",""
"","","","","","html-button-response","47","153321","0.0-47.0","4EF1100B4C894516BF6B02691A97AF31","019cfc2f-89bb-7c9d-a689-ae06c450a751","019cfc28-2143-7934-89cc-ce6402563331","","748","
                <div class=""stimulus-container"">
                    <img src=""images/schematic_sequence/supermarket_scheme/supermarket_scheme_5.png"" class=""exp-image"">
                    <div class=""question-area"">
                        <p style=""font-size: 20px; font-weight: bold; margin: 0;"">Is there a person in this image?</p>
                    </div>
                </div>","1","main_experiment_trial","5","supermarket_scheme","schematic_sequence","chronological","","","","","","",""
"","","","","","html-keyboard-response","48","158322","0.0-48.0","4EF1100B4C894516BF6B02691A97AF31","019cfc2f-89bb-7c9d-a689-ae06c450a751","019cfc28-2143-7934-89cc-ce6402563331","","null","
                <div class=""stimulus-container"">
                    <img src=""images/schematic_sequence/supermarket_scheme/supermarket_scheme_6.png"" class=""exp-image"">
                    <div class=""question-area""></div> 
                </div>","null","","","","","","","","","","","",""
"","","","","","html-button-response","49","158807","0.0-49.0","4EF1100B4C894516BF6B02691A97AF31","019cfc2f-89bb-7c9d-a689-ae06c450a751","019cfc28-2143-7934-89cc-ce6402563331","","484","
                <div class=""stimulus-container"">
                    <img src=""images/schematic_sequence/supermarket_scheme/supermarket_scheme_6.png"" class=""exp-image"">
                    <div class=""question-area"">
                        <p style=""font-size: 20px; font-weight: bold; margin: 0;"">Is there a person in this image?</p>
                    </div>
                </div>","0","main_experiment_trial","6","supermarket_scheme","schematic_sequence","chronological","","","","","","",""
"","","","","","html-keyboard-response","50","163808","0.0-50.0","4EF1100B4C894516BF6B02691A97AF31","019cfc2f-89bb-7c9d-a689-ae06c450a751","019cfc28-2143-7934-89cc-ce6402563331","","null","
                <div class=""stimulus-container"">
                    <img src=""images/schematic_sequence/supermarket_scheme/supermarket_scheme_7.png"" class=""exp-image"">
                    <div class=""question-area""></div> 
                </div>","null","","","","","","","","","","","",""
"","","","","","html-button-response","51","164176","0.0-51.0","4EF1100B4C894516BF6B02691A97AF31","019cfc2f-89bb-7c9d-a689-ae06c450a751","019cfc28-2143-7934-89cc-ce6402563331","","367","
                <div class=""stimulus-container"">
                    <img src=""images/schematic_sequence/supermarket_scheme/supermarket_scheme_7.png"" class=""exp-image"">
                    <div class=""question-area"">
                        <p style=""font-size: 20px; font-weight: bold; margin: 0;"">Is there a person in this image?</p>
                    </div>
                </div>","0","main_experiment_trial","7","supermarket_scheme","schematic_sequence","chronological","","","","","","",""
"","","","","","html-keyboard-response","52","169178","0.0-52.0","4EF1100B4C894516BF6B02691A97AF31","019cfc2f-89bb-7c9d-a689-ae06c450a751","019cfc28-2143-7934-89cc-ce6402563331","","null","
                <div class=""stimulus-container"">
                    <img src=""images/schematic_sequence/supermarket_scheme/supermarket_scheme_8.png"" class=""exp-image"">
                    <div class=""question-area""></div> 
                </div>","null","","","","","","","","","","","",""
"","","","","","html-button-response","53","169712","0.0-53.0","4EF1100B4C894516BF6B02691A97AF31","019cfc2f-89bb-7c9d-a689-ae06c450a751","019cfc28-2143-7934-89cc-ce6402563331","","533","
                <div class=""stimulus-container"">
                    <img src=""images/schematic_sequence/supermarket_scheme/supermarket_scheme_8.png"" class=""exp-image"">
                    <div class=""question-area"">
                        <p style=""font-size: 20px; font-weight: bold; margin: 0;"">Is there a person in this image?</p>
                    </div>
                </div>","0","main_experiment_trial","8","supermarket_scheme","schematic_sequence","chronological","","","","","","",""
"","","","","","html-keyboard-response","54","174713","0.0-54.0","4EF1100B4C894516BF6B02691A97AF31","019cfc2f-89bb-7c9d-a689-ae06c450a751","019cfc28-2143-7934-89cc-ce6402563331","","null","
                <div class=""stimulus-container"">
                    <img src=""images/schematic_sequence/supermarket_scheme/supermarket_scheme_9.png"" class=""exp-image"">
                    <div class=""question-area""></div> 
                </div>","null","","","","","","","","","","","",""
"","","","","","html-button-response","55","175098","0.0-55.0","4EF1100B4C894516BF6B02691A97AF31","019cfc2f-89bb-7c9d-a689-ae06c450a751","019cfc28-2143-7934-89cc-ce6402563331","","384","
                <div class=""stimulus-container"">
                    <img src=""images/schematic_sequence/supermarket_scheme/supermarket_scheme_9.png"" class=""exp-image"">
                    <div class=""question-area"">
                        <p style=""font-size: 20px; font-weight: bold; margin: 0;"">Is there a person in this image?</p>
                    </div>
                </div>","0","main_experiment_trial","9","supermarket_scheme","schematic_sequence","chronological","","","","","","",""
"","","","","","html-keyboard-response","56","180099","0.0-56.0","4EF1100B4C894516BF6B02691A97AF31","019cfc2f-89bb-7c9d-a689-ae06c450a751","019cfc28-2143-7934-89cc-ce6402563331","","null","
                <div class=""stimulus-container"">
                    <img src=""images/schematic_sequence/supermarket_scheme/supermarket_scheme_ten.png"" class=""exp-image"">
                    <div class=""question-area""></div> 
                </div>","null","","","","","","","","","","","",""
"","","","","","html-button-response","57","180594","0.0-57.0","4EF1100B4C894516BF6B02691A97AF31","019cfc2f-89bb-7c9d-a689-ae06c450a751","019cfc28-2143-7934-89cc-ce6402563331","","493","
                <div class=""stimulus-container"">
                    <img src=""images/schematic_sequence/supermarket_scheme/supermarket_scheme_ten.png"" class=""exp-image"">
                    <div class=""question-area"">
                        <p style=""font-size: 20px; font-weight: bold; margin: 0;"">Is there a person in this image?</p>
                    </div>
                </div>","1","main_experiment_trial","ten","supermarket_scheme","schematic_sequence","chronological","","","","","","",""
"","","","","","html-keyboard-response","58","185597","0.0-58.0","4EF1100B4C894516BF6B02691A97AF31","019cfc2f-89bb-7c9d-a689-ae06c450a751","019cfc28-2143-7934-89cc-ce6402563331","","null","<div style=""background-color: white; width: 100vw; height: 100vh;""></div>","null","","","","","","","","","","","",""
"","","","","","html-keyboard-response","59","190599","0.0-59.0","4EF1100B4C894516BF6B02691A97AF31","019cfc2f-89bb-7c9d-a689-ae06c450a751","019cfc28-2143-7934-89cc-ce6402563331","","null","
                <div class=""stimulus-container"">
                    <img src=""images/semantic_sequence/redecorating_a_house_semantic/redecorating_a_house_semantic_1.png"" class=""exp-image"">
                    <div class=""question-area""></div> 
                </div>","null","","","","","","","","","","","",""
"","","","","","html-button-response","60","191090","0.0-60.0","4EF1100B4C894516BF6B02691A97AF31","019cfc2f-89bb-7c9d-a689-ae06c450a751","019cfc28-2143-7934-89cc-ce6402563331","","489","
                <div class=""stimulus-container"">
                    <img src=""images/semantic_sequence/redecorating_a_house_semantic/redecorating_a_house_semantic_1.png"" class=""exp-image"">
                    <div class=""question-area"">
                        <p style=""font-size: 20px; font-weight: bold; margin: 0;"">Is there a person in this image?</p>
                    </div>
                </div>","0","main_experiment_trial","1","redecorating_a_house_semantic","semantic_sequence","chronological","","","","","","",""
"","","","","","html-keyboard-response","61","196092","0.0-61.0","4EF1100B4C894516BF6B02691A97AF31","019cfc2f-89bb-7c9d-a689-ae06c450a751","019cfc28-2143-7934-89cc-ce6402563331","","null","
                <div class=""stimulus-container"">
                    <img src=""images/semantic_sequence/redecorating_a_house_semantic/redecorating_a_house_semantic_2.png"" class=""exp-image"">
                    <div class=""question-area""></div> 
                </div>","null","","","","","","","","","","","",""
"","","","","","html-button-response","62","198015","0.0-62.0","4EF1100B4C894516BF6B02691A97AF31","019cfc2f-89bb-7c9d-a689-ae06c450a751","019cfc28-2143-7934-89cc-ce6402563331","","1922","
                <div class=""stimulus-container"">
                    <img src=""images/semantic_sequence/redecorating_a_house_semantic/redecorating_a_house_semantic_2.png"" class=""exp-image"">
                    <div class=""question-area"">
                        <p style=""font-size: 20px; font-weight: bold; margin: 0;"">Is there a person in this image?</p>
                    </div>
                </div>","0","main_experiment_trial","2","redecorating_a_house_semantic","semantic_sequence","chronological","","","","","","",""
"","","","","","html-keyboard-response","63","203017","0.0-63.0","4EF1100B4C894516BF6B02691A97AF31","019cfc2f-89bb-7c9d-a689-ae06c450a751","019cfc28-2143-7934-89cc-ce6402563331","","null","
                <div class=""stimulus-container"">
                    <img src=""images/semantic_sequence/redecorating_a_house_semantic/redecorating_a_house_semantic_3.png"" class=""exp-image"">
                    <div class=""question-area""></div> 
                </div>","null","","","","","","","","","","","",""
"","","","","","html-button-response","64","204050","0.0-64.0","4EF1100B4C894516BF6B02691A97AF31","019cfc2f-89bb-7c9d-a689-ae06c450a751","019cfc28-2143-7934-89cc-ce6402563331","","1032","
                <div class=""stimulus-container"">
                    <img src=""images/semantic_sequence/redecorating_a_house_semantic/redecorating_a_house_semantic_3.png"" class=""exp-image"">
                    <div class=""question-area"">
                        <p style=""font-size: 20px; font-weight: bold; margin: 0;"">Is there a person in this image?</p>
                    </div>
                </div>","0","main_experiment_trial","3","redecorating_a_house_semantic","semantic_sequence","chronological","","","","","","",""
"","","","","","html-keyboard-response","65","209052","0.0-65.0","4EF1100B4C894516BF6B02691A97AF31","019cfc2f-89bb-7c9d-a689-ae06c450a751","019cfc28-2143-7934-89cc-ce6402563331","","null","
                <div class=""stimulus-container"">
                    <img src=""images/semantic_sequence/redecorating_a_house_semantic/redecorating_a_house_semantic_4.png"" class=""exp-image"">
                    <div class=""question-area""></div> 
                </div>","null","","","","","","","","","","","",""
"","","","","","html-button-response","66","209997","0.0-66.0","4EF1100B4C894516BF6B02691A97AF31","019cfc2f-89bb-7c9d-a689-ae06c450a751","019cfc28-2143-7934-89cc-ce6402563331","","945","
                <div class=""stimulus-container"">
                    <img src=""images/semantic_sequence/redecorating_a_house_semantic/redecorating_a_house_semantic_4.png"" class=""exp-image"">
                    <div class=""question-area"">
                        <p style=""font-size: 20px; font-weight: bold; margin: 0;"">Is there a person in this image?</p>
                    </div>
                </div>","0","main_experiment_trial","4","redecorating_a_house_semantic","semantic_sequence","chronological","","","","","","",""
"","","","","","html-keyboard-response","67","215000","0.0-67.0","4EF1100B4C894516BF6B02691A97AF31","019cfc2f-89bb-7c9d-a689-ae06c450a751","019cfc28-2143-7934-89cc-ce6402563331","","null","
                <div class=""stimulus-container"">
                    <img src=""images/semantic_sequence/redecorating_a_house_semantic/redecorating_a_house_semantic_5.png"" class=""exp-image"">
                    <div class=""question-area""></div> 
                </div>","null","","","","","","","","","","","",""
"","","","","","html-button-response","68","215817","0.0-68.0","4EF1100B4C894516BF6B02691A97AF31","019cfc2f-89bb-7c9d-a689-ae06c450a751","019cfc28-2143-7934-89cc-ce6402563331","","816","
                <div class=""stimulus-container"">
                    <img src=""images/semantic_sequence/redecorating_a_house_semantic/redecorating_a_house_semantic_5.png"" class=""exp-image"">
                    <div class=""question-area"">
                        <p style=""font-size: 20px; font-weight: bold; margin: 0;"">Is there a person in this image?</p>
                    </div>
                </div>","0","main_experiment_trial","5","redecorating_a_house_semantic","semantic_sequence","chronological","","","","","","",""
"","","","","","html-keyboard-response","69","220819","0.0-69.0","4EF1100B4C894516BF6B02691A97AF31","019cfc2f-89bb-7c9d-a689-ae06c450a751","019cfc28-2143-7934-89cc-ce6402563331","","null","
                <div class=""stimulus-container"">
                    <img src=""images/semantic_sequence/redecorating_a_house_semantic/redecorating_a_house_semantic_6.png"" class=""exp-image"">
                    <div class=""question-area""></div> 
                </div>","null","","","","","","","","","","","",""
"","","","","","html-button-response","70","221352","0.0-70.0","4EF1100B4C894516BF6B02691A97AF31","019cfc2f-89bb-7c9d-a689-ae06c450a751","019cfc28-2143-7934-89cc-ce6402563331","","532","
                <div class=""stimulus-container"">
                    <img src=""images/semantic_sequence/redecorating_a_house_semantic/redecorating_a_house_semantic_6.png"" class=""exp-image"">
                    <div class=""question-area"">
                        <p style=""font-size: 20px; font-weight: bold; margin: 0;"">Is there a person in this image?</p>
                    </div>
                </div>","0","main_experiment_trial","6","redecorating_a_house_semantic","semantic_sequence","chronological","","","","","","",""
"","","","","","html-keyboard-response","71","226354","0.0-71.0","4EF1100B4C894516BF6B02691A97AF31","019cfc2f-89bb-7c9d-a689-ae06c450a751","019cfc28-2143-7934-89cc-ce6402563331","","null","
                <div class=""stimulus-container"">
                    <img src=""images/semantic_sequence/redecorating_a_house_semantic/redecorating_a_house_semantic_7.png"" class=""exp-image"">
                    <div class=""question-area""></div> 
                </div>","null","","","","","","","","","","","",""
"","","","","","html-button-response","72","227090","0.0-72.0","4EF1100B4C894516BF6B02691A97AF31","019cfc2f-89bb-7c9d-a689-ae06c450a751","019cfc28-2143-7934-89cc-ce6402563331","","735","
                <div class=""stimulus-container"">
                    <img src=""images/semantic_sequence/redecorating_a_house_semantic/redecorating_a_house_semantic_7.png"" class=""exp-image"">
                    <div class=""question-area"">
                        <p style=""font-size: 20px; font-weight: bold; margin: 0;"">Is there a person in this image?</p>
                    </div>
                </div>","0","main_experiment_trial","7","redecorating_a_house_semantic","semantic_sequence","chronological","","","","","","",""
"","","","","","html-keyboard-response","73","232093","0.0-73.0","4EF1100B4C894516BF6B02691A97AF31","019cfc2f-89bb-7c9d-a689-ae06c450a751","019cfc28-2143-7934-89cc-ce6402563331","","null","
                <div class=""stimulus-container"">
                    <img src=""images/semantic_sequence/redecorating_a_house_semantic/redecorating_a_house_semantic_8.png"" class=""exp-image"">
                    <div class=""question-area""></div> 
                </div>","null","","","","","","","","","","","",""
"","","","","","html-button-response","74","234275","0.0-74.0","4EF1100B4C894516BF6B02691A97AF31","019cfc2f-89bb-7c9d-a689-ae06c450a751","019cfc28-2143-7934-89cc-ce6402563331","","2182","
                <div class=""stimulus-container"">
                    <img src=""images/semantic_sequence/redecorating_a_house_semantic/redecorating_a_house_semantic_8.png"" class=""exp-image"">
                    <div class=""question-area"">
                        <p style=""font-size: 20px; font-weight: bold; margin: 0;"">Is there a person in this image?</p>
                    </div>
                </div>","0","main_experiment_trial","8","redecorating_a_house_semantic","semantic_sequence","chronological","","","","","","",""
"","","","","","html-keyboard-response","75","239278","0.0-75.0","4EF1100B4C894516BF6B02691A97AF31","019cfc2f-89bb-7c9d-a689-ae06c450a751","019cfc28-2143-7934-89cc-ce6402563331","","null","
                <div class=""stimulus-container"">
                    <img src=""images/semantic_sequence/redecorating_a_house_semantic/redecorating_a_house_semantic_9.png"" class=""exp-image"">
                    <div class=""question-area""></div> 
                </div>","null","","","","","","","","","","","",""
"","","","","","html-button-response","76","240663","0.0-76.0","4EF1100B4C894516BF6B02691A97AF31","019cfc2f-89bb-7c9d-a689-ae06c450a751","019cfc28-2143-7934-89cc-ce6402563331","","1385","
                <div class=""stimulus-container"">
                    <img src=""images/semantic_sequence/redecorating_a_house_semantic/redecorating_a_house_semantic_9.png"" class=""exp-image"">
                    <div class=""question-area"">
                        <p style=""font-size: 20px; font-weight: bold; margin: 0;"">Is there a person in this image?</p>
                    </div>
                </div>","0","main_experiment_trial","9","redecorating_a_house_semantic","semantic_sequence","chronological","","","","","","",""
"","","","","","html-keyboard-response","77","245665","0.0-77.0","4EF1100B4C894516BF6B02691A97AF31","019cfc2f-89bb-7c9d-a689-ae06c450a751","019cfc28-2143-7934-89cc-ce6402563331","","null","
                <div class=""stimulus-container"">
                    <img src=""images/semantic_sequence/redecorating_a_house_semantic/redecorating_a_house_semantic_ten.png"" class=""exp-image"">
                    <div class=""question-area""></div> 
                </div>","null","","","","","","","","","","","",""
"","","","","","html-button-response","78","247415","0.0-78.0","4EF1100B4C894516BF6B02691A97AF31","019cfc2f-89bb-7c9d-a689-ae06c450a751","019cfc28-2143-7934-89cc-ce6402563331","","1749","
                <div class=""stimulus-container"">
                    <img src=""images/semantic_sequence/redecorating_a_house_semantic/redecorating_a_house_semantic_ten.png"" class=""exp-image"">
                    <div class=""question-area"">
                        <p style=""font-size: 20px; font-weight: bold; margin: 0;"">Is there a person in this image?</p>
                    </div>
                </div>","0","main_experiment_trial","ten","redecorating_a_house_semantic","semantic_sequence","chronological","","","","","","",""
"","","","","","html-keyboard-response","79","252417","0.0-79.0","4EF1100B4C894516BF6B02691A97AF31","019cfc2f-89bb-7c9d-a689-ae06c450a751","019cfc28-2143-7934-89cc-ce6402563331","","null","<div style=""background-color: white; width: 100vw; height: 100vh;""></div>","null","","","","","","","","","","","",""
"","","","","","html-keyboard-response","80","257418","0.0-80.0","4EF1100B4C894516BF6B02691A97AF31","019cfc2f-89bb-7c9d-a689-ae06c450a751","019cfc28-2143-7934-89cc-ce6402563331","","null","
                <div class=""stimulus-container"">
                    <img src=""images/semantic_sequence/housework_semantic/housework_semantic_1.png"" class=""exp-image"">
                    <div class=""question-area""></div> 
                </div>","null","","","","","","","","","","","",""
"","","","","","html-button-response","81","257836","0.0-81.0","4EF1100B4C894516BF6B02691A97AF31","019cfc2f-89bb-7c9d-a689-ae06c450a751","019cfc28-2143-7934-89cc-ce6402563331","","417","
                <div class=""stimulus-container"">
                    <img src=""images/semantic_sequence/housework_semantic/housework_semantic_1.png"" class=""exp-image"">
                    <div class=""question-area"">
                        <p style=""font-size: 20px; font-weight: bold; margin: 0;"">Is there a person in this image?</p>
                    </div>
                </div>","0","main_experiment_trial","1","housework_semantic","semantic_sequence","chronological","","","","","","",""
"","","","","","html-keyboard-response","82","262838","0.0-82.0","4EF1100B4C894516BF6B02691A97AF31","019cfc2f-89bb-7c9d-a689-ae06c450a751","019cfc28-2143-7934-89cc-ce6402563331","","null","
                <div class=""stimulus-container"">
                    <img src=""images/semantic_sequence/housework_semantic/housework_semantic_2.png"" class=""exp-image"">
                    <div class=""question-area""></div> 
                </div>","null","","","","","","","","","","","",""
"","","","","","html-button-response","83","263272","0.0-83.0","4EF1100B4C894516BF6B02691A97AF31","019cfc2f-89bb-7c9d-a689-ae06c450a751","019cfc28-2143-7934-89cc-ce6402563331","","433","
                <div class=""stimulus-container"">
                    <img src=""images/semantic_sequence/housework_semantic/housework_semantic_2.png"" class=""exp-image"">
                    <div class=""question-area"">
                        <p style=""font-size: 20px; font-weight: bold; margin: 0;"">Is there a person in this image?</p>
                    </div>
                </div>","0","main_experiment_trial","2","housework_semantic","semantic_sequence","chronological","","","","","","",""
"","","","","","html-keyboard-response","84","268273","0.0-84.0","4EF1100B4C894516BF6B02691A97AF31","019cfc2f-89bb-7c9d-a689-ae06c450a751","019cfc28-2143-7934-89cc-ce6402563331","","null","
                <div class=""stimulus-container"">
                    <img src=""images/semantic_sequence/housework_semantic/housework_semantic_3.png"" class=""exp-image"">
                    <div class=""question-area""></div> 
                </div>","null","","","","","","","","","","","",""
"","","","","","html-button-response","85","268675","0.0-85.0","4EF1100B4C894516BF6B02691A97AF31","019cfc2f-89bb-7c9d-a689-ae06c450a751","019cfc28-2143-7934-89cc-ce6402563331","","401","
                <div class=""stimulus-container"">
                    <img src=""images/semantic_sequence/housework_semantic/housework_semantic_3.png"" class=""exp-image"">
                    <div class=""question-area"">
                        <p style=""font-size: 20px; font-weight: bold; margin: 0;"">Is there a person in this image?</p>
                    </div>
                </div>","0","main_experiment_trial","3","housework_semantic","semantic_sequence","chronological","","","","","","",""
"","","","","","html-keyboard-response","86","273677","0.0-86.0","4EF1100B4C894516BF6B02691A97AF31","019cfc2f-89bb-7c9d-a689-ae06c450a751","019cfc28-2143-7934-89cc-ce6402563331","","null","
                <div class=""stimulus-container"">
                    <img src=""images/semantic_sequence/housework_semantic/housework_semantic_4.png"" class=""exp-image"">
                    <div class=""question-area""></div> 
                </div>","null","","","","","","","","","","","",""
"","","","","","html-button-response","87","274094","0.0-87.0","4EF1100B4C894516BF6B02691A97AF31","019cfc2f-89bb-7c9d-a689-ae06c450a751","019cfc28-2143-7934-89cc-ce6402563331","","417","
                <div class=""stimulus-container"">
                    <img src=""images/semantic_sequence/housework_semantic/housework_semantic_4.png"" class=""exp-image"">
                    <div class=""question-area"">
                        <p style=""font-size: 20px; font-weight: bold; margin: 0;"">Is there a person in this image?</p>
                    </div>
                </div>","0","main_experiment_trial","4","housework_semantic","semantic_sequence","chronological","","","","","","",""
"","","","","","html-keyboard-response","88","279096","0.0-88.0","4EF1100B4C894516BF6B02691A97AF31","019cfc2f-89bb-7c9d-a689-ae06c450a751","019cfc28-2143-7934-89cc-ce6402563331","","null","
                <div class=""stimulus-container"">
                    <img src=""images/semantic_sequence/housework_semantic/housework_semantic_5.png"" class=""exp-image"">
                    <div class=""question-area""></div> 
                </div>","null","","","","","","","","","","","",""
"","","","","","html-button-response","89","279896","0.0-89.0","4EF1100B4C894516BF6B02691A97AF31","019cfc2f-89bb-7c9d-a689-ae06c450a751","019cfc28-2143-7934-89cc-ce6402563331","","800","
                <div class=""stimulus-container"">
                    <img src=""images/semantic_sequence/housework_semantic/housework_semantic_5.png"" class=""exp-image"">
                    <div class=""question-area"">
                        <p style=""font-size: 20px; font-weight: bold; margin: 0;"">Is there a person in this image?</p>
                    </div>
                </div>","0","main_experiment_trial","5","housework_semantic","semantic_sequence","chronological","","","","","","",""
"","","","","","html-keyboard-response","90","284898","0.0-90.0","4EF1100B4C894516BF6B02691A97AF31","019cfc2f-89bb-7c9d-a689-ae06c450a751","019cfc28-2143-7934-89cc-ce6402563331","","null","
                <div class=""stimulus-container"">
                    <img src=""images/semantic_sequence/housework_semantic/housework_semantic_6.png"" class=""exp-image"">
                    <div class=""question-area""></div> 
                </div>","null","","","","","","","","","","","",""
"","","","","","html-button-response","91","286034","0.0-91.0","4EF1100B4C894516BF6B02691A97AF31","019cfc2f-89bb-7c9d-a689-ae06c450a751","019cfc28-2143-7934-89cc-ce6402563331","","1136","
                <div class=""stimulus-container"">
                    <img src=""images/semantic_sequence/housework_semantic/housework_semantic_6.png"" class=""exp-image"">
                    <div class=""question-area"">
                        <p style=""font-size: 20px; font-weight: bold; margin: 0;"">Is there a person in this image?</p>
                    </div>
                </div>","0","main_experiment_trial","6","housework_semantic","semantic_sequence","chronological","","","","","","",""
"","","","","","html-keyboard-response","92","291036","0.0-92.0","4EF1100B4C894516BF6B02691A97AF31","019cfc2f-89bb-7c9d-a689-ae06c450a751","019cfc28-2143-7934-89cc-ce6402563331","","null","
                <div class=""stimulus-container"">
                    <img src=""images/semantic_sequence/housework_semantic/housework_semantic_7.png"" class=""exp-image"">
                    <div class=""question-area""></div> 
                </div>","null","","","","","","","","","","","",""
"","","","","","html-button-response","93","291553","0.0-93.0","4EF1100B4C894516BF6B02691A97AF31","019cfc2f-89bb-7c9d-a689-ae06c450a751","019cfc28-2143-7934-89cc-ce6402563331","","516","
                <div class=""stimulus-container"">
                    <img src=""images/semantic_sequence/housework_semantic/housework_semantic_7.png"" class=""exp-image"">
                    <div class=""question-area"">
                        <p style=""font-size: 20px; font-weight: bold; margin: 0;"">Is there a person in this image?</p>
                    </div>
                </div>","0","main_experiment_trial","7","housework_semantic","semantic_sequence","chronological","","","","","","",""
"","","","","","html-keyboard-response","94","296554","0.0-94.0","4EF1100B4C894516BF6B02691A97AF31","019cfc2f-89bb-7c9d-a689-ae06c450a751","019cfc28-2143-7934-89cc-ce6402563331","","null","
                <div class=""stimulus-container"">
                    <img src=""images/semantic_sequence/housework_semantic/housework_semantic_8.png"" class=""exp-image"">
                    <div class=""question-area""></div> 
                </div>","null","","","","","","","","","","","",""
"","","","","","html-button-response","95","297087","0.0-95.0","4EF1100B4C894516BF6B02691A97AF31","019cfc2f-89bb-7c9d-a689-ae06c450a751","019cfc28-2143-7934-89cc-ce6402563331","","532","
                <div class=""stimulus-container"">
                    <img src=""images/semantic_sequence/housework_semantic/housework_semantic_8.png"" class=""exp-image"">
                    <div class=""question-area"">
                        <p style=""font-size: 20px; font-weight: bold; margin: 0;"">Is there a person in this image?</p>
                    </div>
                </div>","0","main_experiment_trial","8","housework_semantic","semantic_sequence","chronological","","","","","","",""
"","","","","","html-keyboard-response","96","302088","0.0-96.0","4EF1100B4C894516BF6B02691A97AF31","019cfc2f-89bb-7c9d-a689-ae06c450a751","019cfc28-2143-7934-89cc-ce6402563331","","null","
                <div class=""stimulus-container"">
                    <img src=""images/semantic_sequence/housework_semantic/housework_semantic_9.png"" class=""exp-image"">
                    <div class=""question-area""></div> 
                </div>","null","","","","","","","","","","","",""
"","","","","","html-button-response","97","303257","0.0-97.0","4EF1100B4C894516BF6B02691A97AF31","019cfc2f-89bb-7c9d-a689-ae06c450a751","019cfc28-2143-7934-89cc-ce6402563331","","1169","
                <div class=""stimulus-container"">
                    <img src=""images/semantic_sequence/housework_semantic/housework_semantic_9.png"" class=""exp-image"">
                    <div class=""question-area"">
                        <p style=""font-size: 20px; font-weight: bold; margin: 0;"">Is there a person in this image?</p>
                    </div>
                </div>","0","main_experiment_trial","9","housework_semantic","semantic_sequence","chronological","","","","","","",""
"","","","","","html-keyboard-response","98","308258","0.0-98.0","4EF1100B4C894516BF6B02691A97AF31","019cfc2f-89bb-7c9d-a689-ae06c450a751","019cfc28-2143-7934-89cc-ce6402563331","","null","
                <div class=""stimulus-container"">
                    <img src=""images/semantic_sequence/housework_semantic/housework_semantic_ten.png"" class=""exp-image"">
                    <div class=""question-area""></div> 
                </div>","null","","","","","","","","","","","",""
"","","","","","html-button-response","99","308669","0.0-99.0","4EF1100B4C894516BF6B02691A97AF31","019cfc2f-89bb-7c9d-a689-ae06c450a751","019cfc28-2143-7934-89cc-ce6402563331","","411","
                <div class=""stimulus-container"">
                    <img src=""images/semantic_sequence/housework_semantic/housework_semantic_ten.png"" class=""exp-image"">
                    <div class=""question-area"">
                        <p style=""font-size: 20px; font-weight: bold; margin: 0;"">Is there a person in this image?</p>
                    </div>
                </div>","0","main_experiment_trial","ten","housework_semantic","semantic_sequence","chronological","","","","","","",""
"","","","","","html-keyboard-response","100","313670","0.0-100.0","4EF1100B4C894516BF6B02691A97AF31","019cfc2f-89bb-7c9d-a689-ae06c450a751","019cfc28-2143-7934-89cc-ce6402563331","","null","<div style=""background-color: white; width: 100vw; height: 100vh;""></div>","null","","","","","","","","","","","",""
"","","","","","html-keyboard-response","101","318671","0.0-101.0","4EF1100B4C894516BF6B02691A97AF31","019cfc2f-89bb-7c9d-a689-ae06c450a751","019cfc28-2143-7934-89cc-ce6402563331","","null","
                <div class=""stimulus-container"">
                    <img src=""images/schematic_sequence/flight_scheme/flight_scheme_1.png"" class=""exp-image"">
                    <div class=""question-area""></div> 
                </div>","null","","","","","","","","","","","",""
"","","","","","html-button-response","102","319148","0.0-102.0","4EF1100B4C894516BF6B02691A97AF31","019cfc2f-89bb-7c9d-a689-ae06c450a751","019cfc28-2143-7934-89cc-ce6402563331","","476","
                <div class=""stimulus-container"">
                    <img src=""images/schematic_sequence/flight_scheme/flight_scheme_1.png"" class=""exp-image"">
                    <div class=""question-area"">
                        <p style=""font-size: 20px; font-weight: bold; margin: 0;"">Is there a person in this image?</p>
                    </div>
                </div>","0","main_experiment_trial","1","flight_scheme","schematic_sequence","chronological","","","","","","",""
"","","","","","html-keyboard-response","103","324150","0.0-103.0","4EF1100B4C894516BF6B02691A97AF31","019cfc2f-89bb-7c9d-a689-ae06c450a751","019cfc28-2143-7934-89cc-ce6402563331","","null","
                <div class=""stimulus-container"">
                    <img src=""images/schematic_sequence/flight_scheme/flight_scheme_2.png"" class=""exp-image"">
                    <div class=""question-area""></div> 
                </div>","null","","","","","","","","","","","",""
"","","","","","html-button-response","104","324818","0.0-104.0","4EF1100B4C894516BF6B02691A97AF31","019cfc2f-89bb-7c9d-a689-ae06c450a751","019cfc28-2143-7934-89cc-ce6402563331","","667","
                <div class=""stimulus-container"">
                    <img src=""images/schematic_sequence/flight_scheme/flight_scheme_2.png"" class=""exp-image"">
                    <div class=""question-area"">
                        <p style=""font-size: 20px; font-weight: bold; margin: 0;"">Is there a person in this image?</p>
                    </div>
                </div>","1","main_experiment_trial","2","flight_scheme","schematic_sequence","chronological","","","","","","",""
"","","","","","html-keyboard-response","105","329820","0.0-105.0","4EF1100B4C894516BF6B02691A97AF31","019cfc2f-89bb-7c9d-a689-ae06c450a751","019cfc28-2143-7934-89cc-ce6402563331","","null","
                <div class=""stimulus-container"">
                    <img src=""images/schematic_sequence/flight_scheme/flight_scheme_3.png"" class=""exp-image"">
                    <div class=""question-area""></div> 
                </div>","null","","","","","","","","","","","",""
"","","","","","html-button-response","106","330421","0.0-106.0","4EF1100B4C894516BF6B02691A97AF31","019cfc2f-89bb-7c9d-a689-ae06c450a751","019cfc28-2143-7934-89cc-ce6402563331","","600","
                <div class=""stimulus-container"">
                    <img src=""images/schematic_sequence/flight_scheme/flight_scheme_3.png"" class=""exp-image"">
                    <div class=""question-area"">
                        <p style=""font-size: 20px; font-weight: bold; margin: 0;"">Is there a person in this image?</p>
                    </div>
                </div>","0","main_experiment_trial","3","flight_scheme","schematic_sequence","chronological","","","","","","",""
"","","","","","html-keyboard-response","107","335423","0.0-107.0","4EF1100B4C894516BF6B02691A97AF31","019cfc2f-89bb-7c9d-a689-ae06c450a751","019cfc28-2143-7934-89cc-ce6402563331","","null","
                <div class=""stimulus-container"">
                    <img src=""images/schematic_sequence/flight_scheme/flight_scheme_4.png"" class=""exp-image"">
                    <div class=""question-area""></div> 
                </div>","null","","","","","","","","","","","",""
"","","","","","html-button-response","108","335789","0.0-108.0","4EF1100B4C894516BF6B02691A97AF31","019cfc2f-89bb-7c9d-a689-ae06c450a751","019cfc28-2143-7934-89cc-ce6402563331","","365","
                <div class=""stimulus-container"">
                    <img src=""images/schematic_sequence/flight_scheme/flight_scheme_4.png"" class=""exp-image"">
                    <div class=""question-area"">
                        <p style=""font-size: 20px; font-weight: bold; margin: 0;"">Is there a person in this image?</p>
                    </div>
                </div>","0","main_experiment_trial","4","flight_scheme","schematic_sequence","chronological","","","","","","",""
"","","","","","html-keyboard-response","109","340789","0.0-109.0","4EF1100B4C894516BF6B02691A97AF31","019cfc2f-89bb-7c9d-a689-ae06c450a751","019cfc28-2143-7934-89cc-ce6402563331","","null","
                <div class=""stimulus-container"">
                    <img src=""images/schematic_sequence/flight_scheme/flight_scheme_5.png"" class=""exp-image"">
                    <div class=""question-area""></div> 
                </div>","null","","","","","","","","","","","",""
"","","","","","html-button-response","110","341173","0.0-110.0","4EF1100B4C894516BF6B02691A97AF31","019cfc2f-89bb-7c9d-a689-ae06c450a751","019cfc28-2143-7934-89cc-ce6402563331","","383","
                <div class=""stimulus-container"">
                    <img src=""images/schematic_sequence/flight_scheme/flight_scheme_5.png"" class=""exp-image"">
                    <div class=""question-area"">
                        <p style=""font-size: 20px; font-weight: bold; margin: 0;"">Is there a person in this image?</p>
                    </div>
                </div>","0","main_experiment_trial","5","flight_scheme","schematic_sequence","chronological","","","","","","",""
"","","","","","html-keyboard-response","111","346175","0.0-111.0","4EF1100B4C894516BF6B02691A97AF31","019cfc2f-89bb-7c9d-a689-ae06c450a751","019cfc28-2143-7934-89cc-ce6402563331","","null","
                <div class=""stimulus-container"">
                    <img src=""images/schematic_sequence/flight_scheme/flight_scheme_6.png"" class=""exp-image"">
                    <div class=""question-area""></div> 
                </div>","null","","","","","","","","","","","",""
"","","","","","html-button-response","112","347292","0.0-112.0","4EF1100B4C894516BF6B02691A97AF31","019cfc2f-89bb-7c9d-a689-ae06c450a751","019cfc28-2143-7934-89cc-ce6402563331","","1117","
                <div class=""stimulus-container"">
                    <img src=""images/schematic_sequence/flight_scheme/flight_scheme_6.png"" class=""exp-image"">
                    <div class=""question-area"">
                        <p style=""font-size: 20px; font-weight: bold; margin: 0;"">Is there a person in this image?</p>
                    </div>
                </div>","1","main_experiment_trial","6","flight_scheme","schematic_sequence","chronological","","","","","","",""
"","","","","","html-keyboard-response","113","352294","0.0-113.0","4EF1100B4C894516BF6B02691A97AF31","019cfc2f-89bb-7c9d-a689-ae06c450a751","019cfc28-2143-7934-89cc-ce6402563331","","null","
                <div class=""stimulus-container"">
                    <img src=""images/schematic_sequence/flight_scheme/flight_scheme_7.png"" class=""exp-image"">
                    <div class=""question-area""></div> 
                </div>","null","","","","","","","","","","","",""
"","","","","","html-button-response","114","353247","0.0-114.0","4EF1100B4C894516BF6B02691A97AF31","019cfc2f-89bb-7c9d-a689-ae06c450a751","019cfc28-2143-7934-89cc-ce6402563331","","953","
                <div class=""stimulus-container"">
                    <img src=""images/schematic_sequence/flight_scheme/flight_scheme_7.png"" class=""exp-image"">
                    <div class=""question-area"">
                        <p style=""font-size: 20px; font-weight: bold; margin: 0;"">Is there a person in this image?</p>
                    </div>
                </div>","0","main_experiment_trial","7","flight_scheme","schematic_sequence","chronological","","","","","","",""
"","","","","","html-keyboard-response","115","358248","0.0-115.0","4EF1100B4C894516BF6B02691A97AF31","019cfc2f-89bb-7c9d-a689-ae06c450a751","019cfc28-2143-7934-89cc-ce6402563331","","null","
                <div class=""stimulus-container"">
                    <img src=""images/schematic_sequence/flight_scheme/flight_scheme_8.png"" class=""exp-image"">
                    <div class=""question-area""></div> 
                </div>","null","","","","","","","","","","","",""
"","","","","","html-button-response","116","359167","0.0-116.0","4EF1100B4C894516BF6B02691A97AF31","019cfc2f-89bb-7c9d-a689-ae06c450a751","019cfc28-2143-7934-89cc-ce6402563331","","918","
                <div class=""stimulus-container"">
                    <img src=""images/schematic_sequence/flight_scheme/flight_scheme_8.png"" class=""exp-image"">
                    <div class=""question-area"">
                        <p style=""font-size: 20px; font-weight: bold; margin: 0;"">Is there a person in this image?</p>
                    </div>
                </div>","1","main_experiment_trial","8","flight_scheme","schematic_sequence","chronological","","","","","","",""
"","","","","","html-keyboard-response","117","364169","0.0-117.0","4EF1100B4C894516BF6B02691A97AF31","019cfc2f-89bb-7c9d-a689-ae06c450a751","019cfc28-2143-7934-89cc-ce6402563331","","null","
                <div class=""stimulus-container"">
                    <img src=""images/schematic_sequence/flight_scheme/flight_scheme_9.png"" class=""exp-image"">
                    <div class=""question-area""></div> 
                </div>","null","","","","","","","","","","","",""
"","","","","","html-button-response","118","365253","0.0-118.0","4EF1100B4C894516BF6B02691A97AF31","019cfc2f-89bb-7c9d-a689-ae06c450a751","019cfc28-2143-7934-89cc-ce6402563331","","1084","
                <div class=""stimulus-container"">
                    <img src=""images/schematic_sequence/flight_scheme/flight_scheme_9.png"" class=""exp-image"">
                    <div class=""question-area"">
                        <p style=""font-size: 20px; font-weight: bold; margin: 0;"">Is there a person in this image?</p>
                    </div>
                </div>","0","main_experiment_trial","9","flight_scheme","schematic_sequence","chronological","","","","","","",""
"","","","","","html-keyboard-response","119","370255","0.0-119.0","4EF1100B4C894516BF6B02691A97AF31","019cfc2f-89bb-7c9d-a689-ae06c450a751","019cfc28-2143-7934-89cc-ce6402563331","","null","
                <div class=""stimulus-container"">
                    <img src=""images/schematic_sequence/flight_scheme/flight_scheme_ten.png"" class=""exp-image"">
                    <div class=""question-area""></div> 
                </div>","null","","","","","","","","","","","",""
"","","","","","html-button-response","120","371774","0.0-120.0","4EF1100B4C894516BF6B02691A97AF31","019cfc2f-89bb-7c9d-a689-ae06c450a751","019cfc28-2143-7934-89cc-ce6402563331","","1518","
                <div class=""stimulus-container"">
                    <img src=""images/schematic_sequence/flight_scheme/flight_scheme_ten.png"" class=""exp-image"">
                    <div class=""question-area"">
                        <p style=""font-size: 20px; font-weight: bold; margin: 0;"">Is there a person in this image?</p>
                    </div>
                </div>","0","main_experiment_trial","ten","flight_scheme","schematic_sequence","chronological","","","","","","",""
"","","","","","html-keyboard-response","121","376775","0.0-121.0","4EF1100B4C894516BF6B02691A97AF31","019cfc2f-89bb-7c9d-a689-ae06c450a751","019cfc28-2143-7934-89cc-ce6402563331","","null","<div style=""background-color: white; width: 100vw; height: 100vh;""></div>","null","","","","","","","","","","","",""
"","","","","","html-keyboard-response","122","381777","0.0-122.0","4EF1100B4C894516BF6B02691A97AF31","019cfc2f-89bb-7c9d-a689-ae06c450a751","019cfc28-2143-7934-89cc-ce6402563331","","null","
                <div class=""stimulus-container"">
                    <img src=""images/semantic_sequence/creative_activities_semantic/creative_activities_semantic_1.png"" class=""exp-image"">
                    <div class=""question-area""></div> 
                </div>","null","","","","","","","","","","","",""
"","","","","","html-button-response","123","382328","0.0-123.0","4EF1100B4C894516BF6B02691A97AF31","019cfc2f-89bb-7c9d-a689-ae06c450a751","019cfc28-2143-7934-89cc-ce6402563331","","550","
                <div class=""stimulus-container"">
                    <img src=""images/semantic_sequence/creative_activities_semantic/creative_activities_semantic_1.png"" class=""exp-image"">
                    <div class=""question-area"">
                        <p style=""font-size: 20px; font-weight: bold; margin: 0;"">Is there a person in this image?</p>
                    </div>
                </div>","0","main_experiment_trial","1","creative_activities_semantic","semantic_sequence","chronological","","","","","","",""
"","","","","","html-keyboard-response","124","387330","0.0-124.0","4EF1100B4C894516BF6B02691A97AF31","019cfc2f-89bb-7c9d-a689-ae06c450a751","019cfc28-2143-7934-89cc-ce6402563331","","null","
                <div class=""stimulus-container"">
                    <img src=""images/semantic_sequence/creative_activities_semantic/creative_activities_semantic_2.png"" class=""exp-image"">
                    <div class=""question-area""></div> 
                </div>","null","","","","","","","","","","","",""
"","","","","","html-button-response","125","387896","0.0-125.0","4EF1100B4C894516BF6B02691A97AF31","019cfc2f-89bb-7c9d-a689-ae06c450a751","019cfc28-2143-7934-89cc-ce6402563331","","566","
                <div class=""stimulus-container"">
                    <img src=""images/semantic_sequence/creative_activities_semantic/creative_activities_semantic_2.png"" class=""exp-image"">
                    <div class=""question-area"">
                        <p style=""font-size: 20px; font-weight: bold; margin: 0;"">Is there a person in this image?</p>
                    </div>
                </div>","0","main_experiment_trial","2","creative_activities_semantic","semantic_sequence","chronological","","","","","","",""
"","","","","","html-keyboard-response","126","392899","0.0-126.0","4EF1100B4C894516BF6B02691A97AF31","019cfc2f-89bb-7c9d-a689-ae06c450a751","019cfc28-2143-7934-89cc-ce6402563331","","null","
                <div class=""stimulus-container"">
                    <img src=""images/semantic_sequence/creative_activities_semantic/creative_activities_semantic_3.png"" class=""exp-image"">
                    <div class=""question-area""></div> 
                </div>","null","","","","","","","","","","","",""
"","","","","","html-button-response","127","393399","0.0-127.0","4EF1100B4C894516BF6B02691A97AF31","019cfc2f-89bb-7c9d-a689-ae06c450a751","019cfc28-2143-7934-89cc-ce6402563331","","499","
                <div class=""stimulus-container"">
                    <img src=""images/semantic_sequence/creative_activities_semantic/creative_activities_semantic_3.png"" class=""exp-image"">
                    <div class=""question-area"">
                        <p style=""font-size: 20px; font-weight: bold; margin: 0;"">Is there a person in this image?</p>
                    </div>
                </div>","0","main_experiment_trial","3","creative_activities_semantic","semantic_sequence","chronological","","","","","","",""
"","","","","","html-keyboard-response","128","398401","0.0-128.0","4EF1100B4C894516BF6B02691A97AF31","019cfc2f-89bb-7c9d-a689-ae06c450a751","019cfc28-2143-7934-89cc-ce6402563331","","null","
                <div class=""stimulus-container"">
                    <img src=""images/semantic_sequence/creative_activities_semantic/creative_activities_semantic_4.png"" class=""exp-image"">
                    <div class=""question-area""></div> 
                </div>","null","","","","","","","","","","","",""
"","","","","","html-button-response","129","398885","0.0-129.0","4EF1100B4C894516BF6B02691A97AF31","019cfc2f-89bb-7c9d-a689-ae06c450a751","019cfc28-2143-7934-89cc-ce6402563331","","484","
                <div class=""stimulus-container"">
                    <img src=""images/semantic_sequence/creative_activities_semantic/creative_activities_semantic_4.png"" class=""exp-image"">
                    <div class=""question-area"">
                        <p style=""font-size: 20px; font-weight: bold; margin: 0;"">Is there a person in this image?</p>
                    </div>
                </div>","0","main_experiment_trial","4","creative_activities_semantic","semantic_sequence","chronological","","","","","","",""
"","","","","","html-keyboard-response","130","403887","0.0-130.0","4EF1100B4C894516BF6B02691A97AF31","019cfc2f-89bb-7c9d-a689-ae06c450a751","019cfc28-2143-7934-89cc-ce6402563331","","null","
                <div class=""stimulus-container"">
                    <img src=""images/semantic_sequence/creative_activities_semantic/creative_activities_semantic_5.png"" class=""exp-image"">
                    <div class=""question-area""></div> 
                </div>","null","","","","","","","","","","","",""
"","","","","","html-button-response","131","404221","0.0-131.0","4EF1100B4C894516BF6B02691A97AF31","019cfc2f-89bb-7c9d-a689-ae06c450a751","019cfc28-2143-7934-89cc-ce6402563331","","333","
                <div class=""stimulus-container"">
                    <img src=""images/semantic_sequence/creative_activities_semantic/creative_activities_semantic_5.png"" class=""exp-image"">
                    <div class=""question-area"">
                        <p style=""font-size: 20px; font-weight: bold; margin: 0;"">Is there a person in this image?</p>
                    </div>
                </div>","0","main_experiment_trial","5","creative_activities_semantic","semantic_sequence","chronological","","","","","","",""
"","","","","","html-keyboard-response","132","409223","0.0-132.0","4EF1100B4C894516BF6B02691A97AF31","019cfc2f-89bb-7c9d-a689-ae06c450a751","019cfc28-2143-7934-89cc-ce6402563331","","null","
                <div class=""stimulus-container"">
                    <img src=""images/semantic_sequence/creative_activities_semantic/creative_activities_semantic_6.png"" class=""exp-image"">
                    <div class=""question-area""></div> 
                </div>","null","","","","","","","","","","","",""
"","","","","","html-button-response","133","409990","0.0-133.0","4EF1100B4C894516BF6B02691A97AF31","019cfc2f-89bb-7c9d-a689-ae06c450a751","019cfc28-2143-7934-89cc-ce6402563331","","766","
                <div class=""stimulus-container"">
                    <img src=""images/semantic_sequence/creative_activities_semantic/creative_activities_semantic_6.png"" class=""exp-image"">
                    <div class=""question-area"">
                        <p style=""font-size: 20px; font-weight: bold; margin: 0;"">Is there a person in this image?</p>
                    </div>
                </div>","0","main_experiment_trial","6","creative_activities_semantic","semantic_sequence","chronological","","","","","","",""
"","","","","","html-keyboard-response","134","414993","0.0-134.0","4EF1100B4C894516BF6B02691A97AF31","019cfc2f-89bb-7c9d-a689-ae06c450a751","019cfc28-2143-7934-89cc-ce6402563331","","null","
                <div class=""stimulus-container"">
                    <img src=""images/semantic_sequence/creative_activities_semantic/creative_activities_semantic_7.png"" class=""exp-image"">
                    <div class=""question-area""></div> 
                </div>","null","","","","","","","","","","","",""
"","","","","","html-button-response","135","415576","0.0-135.0","4EF1100B4C894516BF6B02691A97AF31","019cfc2f-89bb-7c9d-a689-ae06c450a751","019cfc28-2143-7934-89cc-ce6402563331","","582","
                <div class=""stimulus-container"">
                    <img src=""images/semantic_sequence/creative_activities_semantic/creative_activities_semantic_7.png"" class=""exp-image"">
                    <div class=""question-area"">
                        <p style=""font-size: 20px; font-weight: bold; margin: 0;"">Is there a person in this image?</p>
                    </div>
                </div>","0","main_experiment_trial","7","creative_activities_semantic","semantic_sequence","chronological","","","","","","",""
"","","","","","html-keyboard-response","136","420578","0.0-136.0","4EF1100B4C894516BF6B02691A97AF31","019cfc2f-89bb-7c9d-a689-ae06c450a751","019cfc28-2143-7934-89cc-ce6402563331","","null","
                <div class=""stimulus-container"">
                    <img src=""images/semantic_sequence/creative_activities_semantic/creative_activities_semantic_8.png"" class=""exp-image"">
                    <div class=""question-area""></div> 
                </div>","null","","","","","","","","","","","",""
"","","","","","html-button-response","137","420961","0.0-137.0","4EF1100B4C894516BF6B02691A97AF31","019cfc2f-89bb-7c9d-a689-ae06c450a751","019cfc28-2143-7934-89cc-ce6402563331","","383","
                <div class=""stimulus-container"">
                    <img src=""images/semantic_sequence/creative_activities_semantic/creative_activities_semantic_8.png"" class=""exp-image"">
                    <div class=""question-area"">
                        <p style=""font-size: 20px; font-weight: bold; margin: 0;"">Is there a person in this image?</p>
                    </div>
                </div>","0","main_experiment_trial","8","creative_activities_semantic","semantic_sequence","chronological","","","","","","",""
"","","","","","html-keyboard-response","138","425962","0.0-138.0","4EF1100B4C894516BF6B02691A97AF31","019cfc2f-89bb-7c9d-a689-ae06c450a751","019cfc28-2143-7934-89cc-ce6402563331","","null","
                <div class=""stimulus-container"">
                    <img src=""images/semantic_sequence/creative_activities_semantic/creative_activities_semantic_9.png"" class=""exp-image"">
                    <div class=""question-area""></div> 
                </div>","null","","","","","","","","","","","",""
"","","","","","html-button-response","139","426347","0.0-139.0","4EF1100B4C894516BF6B02691A97AF31","019cfc2f-89bb-7c9d-a689-ae06c450a751","019cfc28-2143-7934-89cc-ce6402563331","","384","
                <div class=""stimulus-container"">
                    <img src=""images/semantic_sequence/creative_activities_semantic/creative_activities_semantic_9.png"" class=""exp-image"">
                    <div class=""question-area"">
                        <p style=""font-size: 20px; font-weight: bold; margin: 0;"">Is there a person in this image?</p>
                    </div>
                </div>","0","main_experiment_trial","9","creative_activities_semantic","semantic_sequence","chronological","","","","","","",""
"","","","","","html-keyboard-response","140","431350","0.0-140.0","4EF1100B4C894516BF6B02691A97AF31","019cfc2f-89bb-7c9d-a689-ae06c450a751","019cfc28-2143-7934-89cc-ce6402563331","","null","
                <div class=""stimulus-container"">
                    <img src=""images/semantic_sequence/creative_activities_semantic/creative_activities_semantic_ten.png"" class=""exp-image"">
                    <div class=""question-area""></div> 
                </div>","null","","","","","","","","","","","",""
"","","","","","html-button-response","141","431785","0.0-141.0","4EF1100B4C894516BF6B02691A97AF31","019cfc2f-89bb-7c9d-a689-ae06c450a751","019cfc28-2143-7934-89cc-ce6402563331","","435","
                <div class=""stimulus-container"">
                    <img src=""images/semantic_sequence/creative_activities_semantic/creative_activities_semantic_ten.png"" class=""exp-image"">
                    <div class=""question-area"">
                        <p style=""font-size: 20px; font-weight: bold; margin: 0;"">Is there a person in this image?</p>
                    </div>
                </div>","0","main_experiment_trial","ten","creative_activities_semantic","semantic_sequence","chronological","","","","","","",""
"","","","","","html-keyboard-response","142","436786","0.0-142.0","4EF1100B4C894516BF6B02691A97AF31","019cfc2f-89bb-7c9d-a689-ae06c450a751","019cfc28-2143-7934-89cc-ce6402563331","","null","<div style=""background-color: white; width: 100vw; height: 100vh;""></div>","null","","","","","","","","","","","",""
"","","","","","html-keyboard-response","143","441787","0.0-143.0","4EF1100B4C894516BF6B02691A97AF31","019cfc2f-89bb-7c9d-a689-ae06c450a751","019cfc28-2143-7934-89cc-ce6402563331","","null","
                <div class=""stimulus-container"">
                    <img src=""images/semantic_sequence/kitchen_operations_semantic/kitchen_operations_semantic_1.png"" class=""exp-image"">
                    <div class=""question-area""></div> 
                </div>","null","","","","","","","","","","","",""
"","","","","","html-button-response","144","442294","0.0-144.0","4EF1100B4C894516BF6B02691A97AF31","019cfc2f-89bb-7c9d-a689-ae06c450a751","019cfc28-2143-7934-89cc-ce6402563331","","506","
                <div class=""stimulus-container"">
                    <img src=""images/semantic_sequence/kitchen_operations_semantic/kitchen_operations_semantic_1.png"" class=""exp-image"">
                    <div class=""question-area"">
                        <p style=""font-size: 20px; font-weight: bold; margin: 0;"">Is there a person in this image?</p>
                    </div>
                </div>","0","main_experiment_trial","1","kitchen_operations_semantic","semantic_sequence","chronological","","","","","","",""
"","","","","","html-keyboard-response","145","447295","0.0-145.0","4EF1100B4C894516BF6B02691A97AF31","019cfc2f-89bb-7c9d-a689-ae06c450a751","019cfc28-2143-7934-89cc-ce6402563331","","null","
                <div class=""stimulus-container"">
                    <img src=""images/semantic_sequence/kitchen_operations_semantic/kitchen_operations_semantic_2.png"" class=""exp-image"">
                    <div class=""question-area""></div> 
                </div>","null","","","","","","","","","","","",""
"","","","","","html-button-response","146","447655","0.0-146.0","4EF1100B4C894516BF6B02691A97AF31","019cfc2f-89bb-7c9d-a689-ae06c450a751","019cfc28-2143-7934-89cc-ce6402563331","","359","
                <div class=""stimulus-container"">
                    <img src=""images/semantic_sequence/kitchen_operations_semantic/kitchen_operations_semantic_2.png"" class=""exp-image"">
                    <div class=""question-area"">
                        <p style=""font-size: 20px; font-weight: bold; margin: 0;"">Is there a person in this image?</p>
                    </div>
                </div>","0","main_experiment_trial","2","kitchen_operations_semantic","semantic_sequence","chronological","","","","","","",""
"","","","","","html-keyboard-response","147","452656","0.0-147.0","4EF1100B4C894516BF6B02691A97AF31","019cfc2f-89bb-7c9d-a689-ae06c450a751","019cfc28-2143-7934-89cc-ce6402563331","","null","
                <div class=""stimulus-container"">
                    <img src=""images/semantic_sequence/kitchen_operations_semantic/kitchen_operations_semantic_3.png"" class=""exp-image"">
                    <div class=""question-area""></div> 
                </div>","null","","","","","","","","","","","",""
"","","","","","html-button-response","148","453260","0.0-148.0","4EF1100B4C894516BF6B02691A97AF31","019cfc2f-89bb-7c9d-a689-ae06c450a751","019cfc28-2143-7934-89cc-ce6402563331","","603","
                <div class=""stimulus-container"">
                    <img src=""images/semantic_sequence/kitchen_operations_semantic/kitchen_operations_semantic_3.png"" class=""exp-image"">
                    <div class=""question-area"">
                        <p style=""font-size: 20px; font-weight: bold; margin: 0;"">Is there a person in this image?</p>
                    </div>
                </div>","0","main_experiment_trial","3","kitchen_operations_semantic","semantic_sequence","chronological","","","","","","",""
"","","","","","html-keyboard-response","149","458262","0.0-149.0","4EF1100B4C894516BF6B02691A97AF31","019cfc2f-89bb-7c9d-a689-ae06c450a751","019cfc28-2143-7934-89cc-ce6402563331","","null","
                <div class=""stimulus-container"">
                    <img src=""images/semantic_sequence/kitchen_operations_semantic/kitchen_operations_semantic_4.png"" class=""exp-image"">
                    <div class=""question-area""></div> 
                </div>","null","","","","","","","","","","","",""
"","","","","","html-button-response","150","458716","0.0-150.0","4EF1100B4C894516BF6B02691A97AF31","019cfc2f-89bb-7c9d-a689-ae06c450a751","019cfc28-2143-7934-89cc-ce6402563331","","453","
                <div class=""stimulus-container"">
                    <img src=""images/semantic_sequence/kitchen_operations_semantic/kitchen_operations_semantic_4.png"" class=""exp-image"">
                    <div class=""question-area"">
                        <p style=""font-size: 20px; font-weight: bold; margin: 0;"">Is there a person in this image?</p>
                    </div>
                </div>","0","main_experiment_trial","4","kitchen_operations_semantic","semantic_sequence","chronological","","","","","","",""
"","","","","","html-keyboard-response","151","463717","0.0-151.0","4EF1100B4C894516BF6B02691A97AF31","019cfc2f-89bb-7c9d-a689-ae06c450a751","019cfc28-2143-7934-89cc-ce6402563331","","null","
                <div class=""stimulus-container"">
                    <img src=""images/semantic_sequence/kitchen_operations_semantic/kitchen_operations_semantic_5.png"" class=""exp-image"">
                    <div class=""question-area""></div> 
                </div>","null","","","","","","","","","","","",""
"","","","","","html-button-response","152","464250","0.0-152.0","4EF1100B4C894516BF6B02691A97AF31","019cfc2f-89bb-7c9d-a689-ae06c450a751","019cfc28-2143-7934-89cc-ce6402563331","","532","
                <div class=""stimulus-container"">
                    <img src=""images/semantic_sequence/kitchen_operations_semantic/kitchen_operations_semantic_5.png"" class=""exp-image"">
                    <div class=""question-area"">
                        <p style=""font-size: 20px; font-weight: bold; margin: 0;"">Is there a person in this image?</p>
                    </div>
                </div>","0","main_experiment_trial","5","kitchen_operations_semantic","semantic_sequence","chronological","","","","","","",""
"","","","","","html-keyboard-response","153","469253","0.0-153.0","4EF1100B4C894516BF6B02691A97AF31","019cfc2f-89bb-7c9d-a689-ae06c450a751","019cfc28-2143-7934-89cc-ce6402563331","","null","
                <div class=""stimulus-container"">
                    <img src=""images/semantic_sequence/kitchen_operations_semantic/kitchen_operations_semantic_6.png"" class=""exp-image"">
                    <div class=""question-area""></div> 
                </div>","null","","","","","","","","","","","",""
"","","","","","html-button-response","154","469967","0.0-154.0","4EF1100B4C894516BF6B02691A97AF31","019cfc2f-89bb-7c9d-a689-ae06c450a751","019cfc28-2143-7934-89cc-ce6402563331","","714","
                <div class=""stimulus-container"">
                    <img src=""images/semantic_sequence/kitchen_operations_semantic/kitchen_operations_semantic_6.png"" class=""exp-image"">
                    <div class=""question-area"">
                        <p style=""font-size: 20px; font-weight: bold; margin: 0;"">Is there a person in this image?</p>
                    </div>
                </div>","0","main_experiment_trial","6","kitchen_operations_semantic","semantic_sequence","chronological","","","","","","",""
"","","","","","html-keyboard-response","155","474969","0.0-155.0","4EF1100B4C894516BF6B02691A97AF31","019cfc2f-89bb-7c9d-a689-ae06c450a751","019cfc28-2143-7934-89cc-ce6402563331","","null","
                <div class=""stimulus-container"">
                    <img src=""images/semantic_sequence/kitchen_operations_semantic/kitchen_operations_semantic_7.png"" class=""exp-image"">
                    <div class=""question-area""></div> 
                </div>","null","","","","","","","","","","","",""
"","","","","","html-button-response","156","475403","0.0-156.0","4EF1100B4C894516BF6B02691A97AF31","019cfc2f-89bb-7c9d-a689-ae06c450a751","019cfc28-2143-7934-89cc-ce6402563331","","433","
                <div class=""stimulus-container"">
                    <img src=""images/semantic_sequence/kitchen_operations_semantic/kitchen_operations_semantic_7.png"" class=""exp-image"">
                    <div class=""question-area"">
                        <p style=""font-size: 20px; font-weight: bold; margin: 0;"">Is there a person in this image?</p>
                    </div>
                </div>","0","main_experiment_trial","7","kitchen_operations_semantic","semantic_sequence","chronological","","","","","","",""
"","","","","","html-keyboard-response","157","480406","0.0-157.0","4EF1100B4C894516BF6B02691A97AF31","019cfc2f-89bb-7c9d-a689-ae06c450a751","019cfc28-2143-7934-89cc-ce6402563331","","null","
                <div class=""stimulus-container"">
                    <img src=""images/semantic_sequence/kitchen_operations_semantic/kitchen_operations_semantic_8.png"" class=""exp-image"">
                    <div class=""question-area""></div> 
                </div>","null","","","","","","","","","","","",""
"","","","","","html-button-response","158","480842","0.0-158.0","4EF1100B4C894516BF6B02691A97AF31","019cfc2f-89bb-7c9d-a689-ae06c450a751","019cfc28-2143-7934-89cc-ce6402563331","","435","
                <div class=""stimulus-container"">
                    <img src=""images/semantic_sequence/kitchen_operations_semantic/kitchen_operations_semantic_8.png"" class=""exp-image"">
                    <div class=""question-area"">
                        <p style=""font-size: 20px; font-weight: bold; margin: 0;"">Is there a person in this image?</p>
                    </div>
                </div>","0","main_experiment_trial","8","kitchen_operations_semantic","semantic_sequence","chronological","","","","","","",""
"","","","","","html-keyboard-response","159","485845","0.0-159.0","4EF1100B4C894516BF6B02691A97AF31","019cfc2f-89bb-7c9d-a689-ae06c450a751","019cfc28-2143-7934-89cc-ce6402563331","","null","
                <div class=""stimulus-container"">
                    <img src=""images/semantic_sequence/kitchen_operations_semantic/kitchen_operations_semantic_9.png"" class=""exp-image"">
                    <div class=""question-area""></div> 
                </div>","null","","","","","","","","","","","",""
"","","","","","html-button-response","160","486325","0.0-160.0","4EF1100B4C894516BF6B02691A97AF31","019cfc2f-89bb-7c9d-a689-ae06c450a751","019cfc28-2143-7934-89cc-ce6402563331","","479","
                <div class=""stimulus-container"">
                    <img src=""images/semantic_sequence/kitchen_operations_semantic/kitchen_operations_semantic_9.png"" class=""exp-image"">
                    <div class=""question-area"">
                        <p style=""font-size: 20px; font-weight: bold; margin: 0;"">Is there a person in this image?</p>
                    </div>
                </div>","0","main_experiment_trial","9","kitchen_operations_semantic","semantic_sequence","chronological","","","","","","",""
"","","","","","html-keyboard-response","161","491327","0.0-161.0","4EF1100B4C894516BF6B02691A97AF31","019cfc2f-89bb-7c9d-a689-ae06c450a751","019cfc28-2143-7934-89cc-ce6402563331","","null","
                <div class=""stimulus-container"">
                    <img src=""images/semantic_sequence/kitchen_operations_semantic/kitchen_operations_semantic_ten.png"" class=""exp-image"">
                    <div class=""question-area""></div> 
                </div>","null","","","","","","","","","","","",""
"","","","","","html-button-response","162","492368","0.0-162.0","4EF1100B4C894516BF6B02691A97AF31","019cfc2f-89bb-7c9d-a689-ae06c450a751","019cfc28-2143-7934-89cc-ce6402563331","","1039","
                <div class=""stimulus-container"">
                    <img src=""images/semantic_sequence/kitchen_operations_semantic/kitchen_operations_semantic_ten.png"" class=""exp-image"">
                    <div class=""question-area"">
                        <p style=""font-size: 20px; font-weight: bold; margin: 0;"">Is there a person in this image?</p>
                    </div>
                </div>","0","main_experiment_trial","ten","kitchen_operations_semantic","semantic_sequence","chronological","","","","","","",""
"","","","","","html-keyboard-response","163","497369","0.0-163.0","4EF1100B4C894516BF6B02691A97AF31","019cfc2f-89bb-7c9d-a689-ae06c450a751","019cfc28-2143-7934-89cc-ce6402563331","","null","<div style=""background-color: white; width: 100vw; height: 100vh;""></div>","null","","","","","","","","","","","",""
"","","","","","html-keyboard-response","164","502371","0.0-164.0","4EF1100B4C894516BF6B02691A97AF31","019cfc2f-89bb-7c9d-a689-ae06c450a751","019cfc28-2143-7934-89cc-ce6402563331","","null","
                <div class=""stimulus-container"">
                    <img src=""images/schematic_sequence/restaurant_scheme/restaurant_scheme_1.png"" class=""exp-image"">
                    <div class=""question-area""></div> 
                </div>","null","","","","","","","","","","","",""
"","","","","","html-button-response","165","502835","0.0-165.0","4EF1100B4C894516BF6B02691A97AF31","019cfc2f-89bb-7c9d-a689-ae06c450a751","019cfc28-2143-7934-89cc-ce6402563331","","463","
                <div class=""stimulus-container"">
                    <img src=""images/schematic_sequence/restaurant_scheme/restaurant_scheme_1.png"" class=""exp-image"">
                    <div class=""question-area"">
                        <p style=""font-size: 20px; font-weight: bold; margin: 0;"">Is there a person in this image?</p>
                    </div>
                </div>","0","main_experiment_trial","1","restaurant_scheme","schematic_sequence","chronological","","","","","","",""
"","","","","","html-keyboard-response","166","507837","0.0-166.0","4EF1100B4C894516BF6B02691A97AF31","019cfc2f-89bb-7c9d-a689-ae06c450a751","019cfc28-2143-7934-89cc-ce6402563331","","null","
                <div class=""stimulus-container"">
                    <img src=""images/schematic_sequence/restaurant_scheme/restaurant_scheme_2.png"" class=""exp-image"">
                    <div class=""question-area""></div> 
                </div>","null","","","","","","","","","","","",""
"","","","","","html-button-response","167","509142","0.0-167.0","4EF1100B4C894516BF6B02691A97AF31","019cfc2f-89bb-7c9d-a689-ae06c450a751","019cfc28-2143-7934-89cc-ce6402563331","","1304","
                <div class=""stimulus-container"">
                    <img src=""images/schematic_sequence/restaurant_scheme/restaurant_scheme_2.png"" class=""exp-image"">
                    <div class=""question-area"">
                        <p style=""font-size: 20px; font-weight: bold; margin: 0;"">Is there a person in this image?</p>
                    </div>
                </div>","1","main_experiment_trial","2","restaurant_scheme","schematic_sequence","chronological","","","","","","",""
"","","","","","html-keyboard-response","168","514143","0.0-168.0","4EF1100B4C894516BF6B02691A97AF31","019cfc2f-89bb-7c9d-a689-ae06c450a751","019cfc28-2143-7934-89cc-ce6402563331","","null","
                <div class=""stimulus-container"">
                    <img src=""images/schematic_sequence/restaurant_scheme/restaurant_scheme_3.png"" class=""exp-image"">
                    <div class=""question-area""></div> 
                </div>","null","","","","","","","","","","","",""
"","","","","","html-button-response","169","514705","0.0-169.0","4EF1100B4C894516BF6B02691A97AF31","019cfc2f-89bb-7c9d-a689-ae06c450a751","019cfc28-2143-7934-89cc-ce6402563331","","561","
                <div class=""stimulus-container"">
                    <img src=""images/schematic_sequence/restaurant_scheme/restaurant_scheme_3.png"" class=""exp-image"">
                    <div class=""question-area"">
                        <p style=""font-size: 20px; font-weight: bold; margin: 0;"">Is there a person in this image?</p>
                    </div>
                </div>","1","main_experiment_trial","3","restaurant_scheme","schematic_sequence","chronological","","","","","","",""
"","","","","","html-keyboard-response","170","519707","0.0-170.0","4EF1100B4C894516BF6B02691A97AF31","019cfc2f-89bb-7c9d-a689-ae06c450a751","019cfc28-2143-7934-89cc-ce6402563331","","null","
                <div class=""stimulus-container"">
                    <img src=""images/schematic_sequence/restaurant_scheme/restaurant_scheme_4.png"" class=""exp-image"">
                    <div class=""question-area""></div> 
                </div>","null","","","","","","","","","","","",""
"","","","","","html-button-response","171","520624","0.0-171.0","4EF1100B4C894516BF6B02691A97AF31","019cfc2f-89bb-7c9d-a689-ae06c450a751","019cfc28-2143-7934-89cc-ce6402563331","","917","
                <div class=""stimulus-container"">
                    <img src=""images/schematic_sequence/restaurant_scheme/restaurant_scheme_4.png"" class=""exp-image"">
                    <div class=""question-area"">
                        <p style=""font-size: 20px; font-weight: bold; margin: 0;"">Is there a person in this image?</p>
                    </div>
                </div>","0","main_experiment_trial","4","restaurant_scheme","schematic_sequence","chronological","","","","","","",""
"","","","","","html-keyboard-response","172","525626","0.0-172.0","4EF1100B4C894516BF6B02691A97AF31","019cfc2f-89bb-7c9d-a689-ae06c450a751","019cfc28-2143-7934-89cc-ce6402563331","","null","
                <div class=""stimulus-container"">
                    <img src=""images/schematic_sequence/restaurant_scheme/restaurant_scheme_5.png"" class=""exp-image"">
                    <div class=""question-area""></div> 
                </div>","null","","","","","","","","","","","",""
"","","","","","html-button-response","173","526095","0.0-173.0","4EF1100B4C894516BF6B02691A97AF31","019cfc2f-89bb-7c9d-a689-ae06c450a751","019cfc28-2143-7934-89cc-ce6402563331","","468","
                <div class=""stimulus-container"">
                    <img src=""images/schematic_sequence/restaurant_scheme/restaurant_scheme_5.png"" class=""exp-image"">
                    <div class=""question-area"">
                        <p style=""font-size: 20px; font-weight: bold; margin: 0;"">Is there a person in this image?</p>
                    </div>
                </div>","0","main_experiment_trial","5","restaurant_scheme","schematic_sequence","chronological","","","","","","",""
"","","","","","html-keyboard-response","174","531097","0.0-174.0","4EF1100B4C894516BF6B02691A97AF31","019cfc2f-89bb-7c9d-a689-ae06c450a751","019cfc28-2143-7934-89cc-ce6402563331","","null","
                <div class=""stimulus-container"">
                    <img src=""images/schematic_sequence/restaurant_scheme/restaurant_scheme_6.png"" class=""exp-image"">
                    <div class=""question-area""></div> 
                </div>","null","","","","","","","","","","","",""
"","","","","","html-button-response","175","531935","0.0-175.0","4EF1100B4C894516BF6B02691A97AF31","019cfc2f-89bb-7c9d-a689-ae06c450a751","019cfc28-2143-7934-89cc-ce6402563331","","838","
                <div class=""stimulus-container"">
