"success","timeout","failed_images","failed_audio","failed_video","trial_type","trial_index","time_elapsed","internal_node_id","subject_id","study_id","session_id","view_history","rt","stimulus","response","task","image_index","folder","sequence_type","valuable_image_index","reward_type","correct_choice","chosen_image_index","target_X"
"true","false","[]","[]","[]","preload","0","7115","0.0-0.0","E6FF23BB2EA34200A38C9F45A87B4191","019cf4e8-5d16-7471-bd8c-a7fb9b5b4803","019cf4c8-1de8-79ec-b3bd-d98520647593","","","","","","","","","","","","",""
"","","","","","instructions","1","10921","0.0-1.0","E6FF23BB2EA34200A38C9F45A87B4191","019cf4e8-5d16-7471-bd8c-a7fb9b5b4803","019cf4c8-1de8-79ec-b3bd-d98520647593","[{""page_index"":0,""viewing_time"":3805}]","3805","","","","","","","","","","",""
"","","","","","instructions","2","22289","0.0-2.0","E6FF23BB2EA34200A38C9F45A87B4191","019cf4e8-5d16-7471-bd8c-a7fb9b5b4803","019cf4c8-1de8-79ec-b3bd-d98520647593","[{""page_index"":0,""viewing_time"":11368}]","11368","","","","","","","","","","",""
"true","","","","","fullscreen","3","25349","0.0-3.0","E6FF23BB2EA34200A38C9F45A87B4191","019cf4e8-5d16-7471-bd8c-a7fb9b5b4803","019cf4c8-1de8-79ec-b3bd-d98520647593","","2042","","","","","","","","","","",""
"","","","","","instructions","4","36297","0.0-4.0","E6FF23BB2EA34200A38C9F45A87B4191","019cf4e8-5d16-7471-bd8c-a7fb9b5b4803","019cf4c8-1de8-79ec-b3bd-d98520647593","[{""page_index"":0,""viewing_time"":10947}]","10948","","","","","","","","","","",""
"","","","","","instructions","5","49511","0.0-5.0","E6FF23BB2EA34200A38C9F45A87B4191","019cf4e8-5d16-7471-bd8c-a7fb9b5b4803","019cf4c8-1de8-79ec-b3bd-d98520647593","[{""page_index"":0,""viewing_time"":13213}]","13213","","","","","","","","","","",""
"","","","","","html-keyboard-response","6","53514","0.0-6.0","E6FF23BB2EA34200A38C9F45A87B4191","019cf4e8-5d16-7471-bd8c-a7fb9b5b4803","019cf4c8-1de8-79ec-b3bd-d98520647593","","null","
                <div class=""stimulus-container"">
                    <img src=""images/instructions/movie_1.png"" class=""exp-image"">
                    <div class=""question-area""></div> 
                </div>","null","","","","","","","","",""
"","","","","","html-button-response","7","56330","0.0-7.0","E6FF23BB2EA34200A38C9F45A87B4191","019cf4e8-5d16-7471-bd8c-a7fb9b5b4803","019cf4c8-1de8-79ec-b3bd-d98520647593","","2815","
                <div class=""stimulus-container"">
                    <img src=""images/instructions/movie_1.png"" class=""exp-image"">
                    <div class=""question-area"">
                        <p style=""font-size: 20px; font-weight: bold; margin: 0;"">Was there a person in this image?</p>
                    </div>
                </div>","0","example_question","1","","","","","","",""
"","","","","","html-keyboard-response","8","60331","0.0-8.0","E6FF23BB2EA34200A38C9F45A87B4191","019cf4e8-5d16-7471-bd8c-a7fb9b5b4803","019cf4c8-1de8-79ec-b3bd-d98520647593","","null","
                <div class=""stimulus-container"">
                    <img src=""images/instructions/movie_2.png"" class=""exp-image"">
                    <div class=""question-area""></div> 
                </div>","null","","","","","","","","",""
"","","","","","html-button-response","9","62379","0.0-9.0","E6FF23BB2EA34200A38C9F45A87B4191","019cf4e8-5d16-7471-bd8c-a7fb9b5b4803","019cf4c8-1de8-79ec-b3bd-d98520647593","","2047","
                <div class=""stimulus-container"">
                    <img src=""images/instructions/movie_2.png"" class=""exp-image"">
                    <div class=""question-area"">
                        <p style=""font-size: 20px; font-weight: bold; margin: 0;"">Was there a person in this image?</p>
                    </div>
                </div>","0","example_question","2","","","","","","",""
"","","","","","html-keyboard-response","10","66381","0.0-10.0","E6FF23BB2EA34200A38C9F45A87B4191","019cf4e8-5d16-7471-bd8c-a7fb9b5b4803","019cf4c8-1de8-79ec-b3bd-d98520647593","","null","
                <div class=""stimulus-container"">
                    <img src=""images/instructions/movie_3.png"" class=""exp-image"">
                    <div class=""question-area""></div> 
                </div>","null","","","","","","","","",""
"","","","","","html-button-response","11","67631","0.0-11.0","E6FF23BB2EA34200A38C9F45A87B4191","019cf4e8-5d16-7471-bd8c-a7fb9b5b4803","019cf4c8-1de8-79ec-b3bd-d98520647593","","1249","
                <div class=""stimulus-container"">
                    <img src=""images/instructions/movie_3.png"" class=""exp-image"">
                    <div class=""question-area"">
                        <p style=""font-size: 20px; font-weight: bold; margin: 0;"">Was there a person in this image?</p>
                    </div>
                </div>","0","example_question","3","","","","","","",""
"","","","","","html-keyboard-response","12","71646","0.0-12.0","E6FF23BB2EA34200A38C9F45A87B4191","019cf4e8-5d16-7471-bd8c-a7fb9b5b4803","019cf4c8-1de8-79ec-b3bd-d98520647593","","null","
                <div class=""stimulus-container"">
                    <img src=""images/instructions/movie_4.png"" class=""exp-image"">
                    <div class=""question-area""></div> 
                </div>","null","","","","","","","","",""
"","","","","","html-button-response","13","72285","0.0-13.0","E6FF23BB2EA34200A38C9F45A87B4191","019cf4e8-5d16-7471-bd8c-a7fb9b5b4803","019cf4c8-1de8-79ec-b3bd-d98520647593","","637","
                <div class=""stimulus-container"">
                    <img src=""images/instructions/movie_4.png"" class=""exp-image"">
                    <div class=""question-area"">
                        <p style=""font-size: 20px; font-weight: bold; margin: 0;"">Was there a person in this image?</p>
                    </div>
                </div>","0","example_question","4","","","","","","",""
"","","","","","instructions","14","74292","0.0-14.0","E6FF23BB2EA34200A38C9F45A87B4191","019cf4e8-5d16-7471-bd8c-a7fb9b5b4803","019cf4c8-1de8-79ec-b3bd-d98520647593","[{""page_index"":0,""viewing_time"":2007}]","2007","","","","","","","","","","",""
"","","","","","instructions","15","82777","0.0-15.0","E6FF23BB2EA34200A38C9F45A87B4191","019cf4e8-5d16-7471-bd8c-a7fb9b5b4803","019cf4c8-1de8-79ec-b3bd-d98520647593","[{""page_index"":0,""viewing_time"":8484}]","8485","","","","","","","","","","",""
"","","","","","html-keyboard-response","16","83795","0.0-16.0","E6FF23BB2EA34200A38C9F45A87B4191","019cf4e8-5d16-7471-bd8c-a7fb9b5b4803","019cf4c8-1de8-79ec-b3bd-d98520647593","","null","<div style=""background-color: white; width: 100vw; height: 100vh;""></div>","null","","","","","","","","",""
"","","","","","html-keyboard-response","17","88798","0.0-17.0","E6FF23BB2EA34200A38C9F45A87B4191","019cf4e8-5d16-7471-bd8c-a7fb9b5b4803","019cf4c8-1de8-79ec-b3bd-d98520647593","","null","
                <div class=""stimulus-container"">
                    <img src=""images/causal_sequence/the_performance_causal/the_performance_causal_1.png"" class=""exp-image"">
                    <div class=""question-area""></div> 
                </div>","null","","","","","","","","",""
"","","","","","html-button-response","18","90498","0.0-18.0","E6FF23BB2EA34200A38C9F45A87B4191","019cf4e8-5d16-7471-bd8c-a7fb9b5b4803","019cf4c8-1de8-79ec-b3bd-d98520647593","","1698","
                <div class=""stimulus-container"">
                    <img src=""images/causal_sequence/the_performance_causal/the_performance_causal_1.png"" class=""exp-image"">
                    <div class=""question-area"">
                        <p style=""font-size: 20px; font-weight: bold; margin: 0;"">Is there a person in this image?</p>
                    </div>
                </div>","0","main_experiment_trial","1","the_performance_causal","causal_sequence","","","","",""
"","","","","","html-keyboard-response","19","95511","0.0-19.0","E6FF23BB2EA34200A38C9F45A87B4191","019cf4e8-5d16-7471-bd8c-a7fb9b5b4803","019cf4c8-1de8-79ec-b3bd-d98520647593","","null","
                <div class=""stimulus-container"">
                    <img src=""images/causal_sequence/the_performance_causal/the_performance_causal_2.png"" class=""exp-image"">
                    <div class=""question-area""></div> 
                </div>","null","","","","","","","","",""
"","","","","","html-button-response","20","96739","0.0-20.0","E6FF23BB2EA34200A38C9F45A87B4191","019cf4e8-5d16-7471-bd8c-a7fb9b5b4803","019cf4c8-1de8-79ec-b3bd-d98520647593","","1227","
                <div class=""stimulus-container"">
                    <img src=""images/causal_sequence/the_performance_causal/the_performance_causal_2.png"" class=""exp-image"">
                    <div class=""question-area"">
                        <p style=""font-size: 20px; font-weight: bold; margin: 0;"">Is there a person in this image?</p>
                    </div>
                </div>","0","main_experiment_trial","2","the_performance_causal","causal_sequence","","","","",""
"","","","","","html-keyboard-response","21","101747","0.0-21.0","E6FF23BB2EA34200A38C9F45A87B4191","019cf4e8-5d16-7471-bd8c-a7fb9b5b4803","019cf4c8-1de8-79ec-b3bd-d98520647593","","null","
                <div class=""stimulus-container"">
                    <img src=""images/causal_sequence/the_performance_causal/the_performance_causal_3.png"" class=""exp-image"">
                    <div class=""question-area""></div> 
                </div>","null","","","","","","","","",""
"","","","","","html-button-response","22","102645","0.0-22.0","E6FF23BB2EA34200A38C9F45A87B4191","019cf4e8-5d16-7471-bd8c-a7fb9b5b4803","019cf4c8-1de8-79ec-b3bd-d98520647593","","897","
                <div class=""stimulus-container"">
                    <img src=""images/causal_sequence/the_performance_causal/the_performance_causal_3.png"" class=""exp-image"">
                    <div class=""question-area"">
                        <p style=""font-size: 20px; font-weight: bold; margin: 0;"">Is there a person in this image?</p>
                    </div>
                </div>","0","main_experiment_trial","3","the_performance_causal","causal_sequence","","","","",""
"","","","","","html-keyboard-response","23","107648","0.0-23.0","E6FF23BB2EA34200A38C9F45A87B4191","019cf4e8-5d16-7471-bd8c-a7fb9b5b4803","019cf4c8-1de8-79ec-b3bd-d98520647593","","null","
                <div class=""stimulus-container"">
                    <img src=""images/causal_sequence/the_performance_causal/the_performance_causal_4.png"" class=""exp-image"">
                    <div class=""question-area""></div> 
                </div>","null","","","","","","","","",""
"","","","","","html-button-response","24","108588","0.0-24.0","E6FF23BB2EA34200A38C9F45A87B4191","019cf4e8-5d16-7471-bd8c-a7fb9b5b4803","019cf4c8-1de8-79ec-b3bd-d98520647593","","939","
                <div class=""stimulus-container"">
                    <img src=""images/causal_sequence/the_performance_causal/the_performance_causal_4.png"" class=""exp-image"">
                    <div class=""question-area"">
                        <p style=""font-size: 20px; font-weight: bold; margin: 0;"">Is there a person in this image?</p>
                    </div>
                </div>","0","main_experiment_trial","4","the_performance_causal","causal_sequence","","","","",""
"","","","","","html-keyboard-response","25","113596","0.0-25.0","E6FF23BB2EA34200A38C9F45A87B4191","019cf4e8-5d16-7471-bd8c-a7fb9b5b4803","019cf4c8-1de8-79ec-b3bd-d98520647593","","null","
                <div class=""stimulus-container"">
                    <img src=""images/causal_sequence/the_performance_causal/the_performance_causal_5.png"" class=""exp-image"">
                    <div class=""question-area""></div> 
                </div>","null","","","","","","","","",""
"","","","","","html-button-response","26","114205","0.0-26.0","E6FF23BB2EA34200A38C9F45A87B4191","019cf4e8-5d16-7471-bd8c-a7fb9b5b4803","019cf4c8-1de8-79ec-b3bd-d98520647593","","607","
                <div class=""stimulus-container"">
                    <img src=""images/causal_sequence/the_performance_causal/the_performance_causal_5.png"" class=""exp-image"">
                    <div class=""question-area"">
                        <p style=""font-size: 20px; font-weight: bold; margin: 0;"">Is there a person in this image?</p>
                    </div>
                </div>","0","main_experiment_trial","5","the_performance_causal","causal_sequence","","","","",""
"","","","","","html-keyboard-response","27","119210","0.0-27.0","E6FF23BB2EA34200A38C9F45A87B4191","019cf4e8-5d16-7471-bd8c-a7fb9b5b4803","019cf4c8-1de8-79ec-b3bd-d98520647593","","null","
                <div class=""stimulus-container"">
                    <img src=""images/causal_sequence/the_performance_causal/the_performance_causal_6.png"" class=""exp-image"">
                    <div class=""question-area""></div> 
                </div>","null","","","","","","","","",""
"","","","","","html-button-response","28","120270","0.0-28.0","E6FF23BB2EA34200A38C9F45A87B4191","019cf4e8-5d16-7471-bd8c-a7fb9b5b4803","019cf4c8-1de8-79ec-b3bd-d98520647593","","1059","
                <div class=""stimulus-container"">
                    <img src=""images/causal_sequence/the_performance_causal/the_performance_causal_6.png"" class=""exp-image"">
                    <div class=""question-area"">
                        <p style=""font-size: 20px; font-weight: bold; margin: 0;"">Is there a person in this image?</p>
                    </div>
                </div>","0","main_experiment_trial","6","the_performance_causal","causal_sequence","","","","",""
"","","","","","html-keyboard-response","29","125279","0.0-29.0","E6FF23BB2EA34200A38C9F45A87B4191","019cf4e8-5d16-7471-bd8c-a7fb9b5b4803","019cf4c8-1de8-79ec-b3bd-d98520647593","","null","
                <div class=""stimulus-container"">
                    <img src=""images/causal_sequence/the_performance_causal/the_performance_causal_7.png"" class=""exp-image"">
                    <div class=""question-area""></div> 
                </div>","null","","","","","","","","",""
"","","","","","html-button-response","30","126317","0.0-30.0","E6FF23BB2EA34200A38C9F45A87B4191","019cf4e8-5d16-7471-bd8c-a7fb9b5b4803","019cf4c8-1de8-79ec-b3bd-d98520647593","","1037","
                <div class=""stimulus-container"">
                    <img src=""images/causal_sequence/the_performance_causal/the_performance_causal_7.png"" class=""exp-image"">
                    <div class=""question-area"">
                        <p style=""font-size: 20px; font-weight: bold; margin: 0;"">Is there a person in this image?</p>
                    </div>
                </div>","0","main_experiment_trial","7","the_performance_causal","causal_sequence","","","","",""
"","","","","","html-keyboard-response","31","131328","0.0-31.0","E6FF23BB2EA34200A38C9F45A87B4191","019cf4e8-5d16-7471-bd8c-a7fb9b5b4803","019cf4c8-1de8-79ec-b3bd-d98520647593","","null","
                <div class=""stimulus-container"">
                    <img src=""images/causal_sequence/the_performance_causal/the_performance_causal_8.png"" class=""exp-image"">
                    <div class=""question-area""></div> 
                </div>","null","","","","","","","","",""
"","","","","","html-button-response","32","132754","0.0-32.0","E6FF23BB2EA34200A38C9F45A87B4191","019cf4e8-5d16-7471-bd8c-a7fb9b5b4803","019cf4c8-1de8-79ec-b3bd-d98520647593","","1425","
                <div class=""stimulus-container"">
                    <img src=""images/causal_sequence/the_performance_causal/the_performance_causal_8.png"" class=""exp-image"">
                    <div class=""question-area"">
                        <p style=""font-size: 20px; font-weight: bold; margin: 0;"">Is there a person in this image?</p>
                    </div>
                </div>","0","main_experiment_trial","8","the_performance_causal","causal_sequence","","","","",""
"","","","","","html-keyboard-response","33","137761","0.0-33.0","E6FF23BB2EA34200A38C9F45A87B4191","019cf4e8-5d16-7471-bd8c-a7fb9b5b4803","019cf4c8-1de8-79ec-b3bd-d98520647593","","null","
                <div class=""stimulus-container"">
                    <img src=""images/causal_sequence/the_performance_causal/the_performance_causal_9.png"" class=""exp-image"">
                    <div class=""question-area""></div> 
                </div>","null","","","","","","","","",""
"","","","","","html-button-response","34","139116","0.0-34.0","E6FF23BB2EA34200A38C9F45A87B4191","019cf4e8-5d16-7471-bd8c-a7fb9b5b4803","019cf4c8-1de8-79ec-b3bd-d98520647593","","1354","
                <div class=""stimulus-container"">
                    <img src=""images/causal_sequence/the_performance_causal/the_performance_causal_9.png"" class=""exp-image"">
                    <div class=""question-area"">
                        <p style=""font-size: 20px; font-weight: bold; margin: 0;"">Is there a person in this image?</p>
                    </div>
                </div>","0","main_experiment_trial","9","the_performance_causal","causal_sequence","","","","",""
"","","","","","html-keyboard-response","35","144128","0.0-35.0","E6FF23BB2EA34200A38C9F45A87B4191","019cf4e8-5d16-7471-bd8c-a7fb9b5b4803","019cf4c8-1de8-79ec-b3bd-d98520647593","","null","
                <div class=""stimulus-container"">
                    <img src=""images/causal_sequence/the_performance_causal/the_performance_causal_ten.png"" class=""exp-image"">
                    <div class=""question-area""></div> 
                </div>","null","","","","","","","","",""
"","","","","","html-button-response","36","144818","0.0-36.0","E6FF23BB2EA34200A38C9F45A87B4191","019cf4e8-5d16-7471-bd8c-a7fb9b5b4803","019cf4c8-1de8-79ec-b3bd-d98520647593","","689","
                <div class=""stimulus-container"">
                    <img src=""images/causal_sequence/the_performance_causal/the_performance_causal_ten.png"" class=""exp-image"">
                    <div class=""question-area"">
                        <p style=""font-size: 20px; font-weight: bold; margin: 0;"">Is there a person in this image?</p>
                    </div>
                </div>","0","main_experiment_trial","ten","the_performance_causal","causal_sequence","","","","",""
"","","","","","html-keyboard-response","37","145827","0.0-37.0","E6FF23BB2EA34200A38C9F45A87B4191","019cf4e8-5d16-7471-bd8c-a7fb9b5b4803","019cf4c8-1de8-79ec-b3bd-d98520647593","","null","<div style=""background-color: white; width: 100vw; height: 100vh;""></div>","null","","","","","","","","",""
"","","","","","html-keyboard-response","38","150844","0.0-38.0","E6FF23BB2EA34200A38C9F45A87B4191","019cf4e8-5d16-7471-bd8c-a7fb9b5b4803","019cf4c8-1de8-79ec-b3bd-d98520647593","","null","
                <div class=""stimulus-container"">
                    <img src=""images/schematic_sequence/interview_scheme/interview_scheme_1.png"" class=""exp-image"">
                    <div class=""question-area""></div> 
                </div>","null","","","","","","","","",""
"","","","","","html-button-response","39","152362","0.0-39.0","E6FF23BB2EA34200A38C9F45A87B4191","019cf4e8-5d16-7471-bd8c-a7fb9b5b4803","019cf4c8-1de8-79ec-b3bd-d98520647593","","1517","
                <div class=""stimulus-container"">
                    <img src=""images/schematic_sequence/interview_scheme/interview_scheme_1.png"" class=""exp-image"">
                    <div class=""question-area"">
                        <p style=""font-size: 20px; font-weight: bold; margin: 0;"">Is there a person in this image?</p>
                    </div>
                </div>","1","main_experiment_trial","1","interview_scheme","schematic_sequence","","","","",""
"","","","","","html-keyboard-response","40","157380","0.0-40.0","E6FF23BB2EA34200A38C9F45A87B4191","019cf4e8-5d16-7471-bd8c-a7fb9b5b4803","019cf4c8-1de8-79ec-b3bd-d98520647593","","null","
                <div class=""stimulus-container"">
                    <img src=""images/schematic_sequence/interview_scheme/interview_scheme_2.png"" class=""exp-image"">
                    <div class=""question-area""></div> 
                </div>","null","","","","","","","","",""
"","","","","","html-button-response","41","158747","0.0-41.0","E6FF23BB2EA34200A38C9F45A87B4191","019cf4e8-5d16-7471-bd8c-a7fb9b5b4803","019cf4c8-1de8-79ec-b3bd-d98520647593","","1365","
                <div class=""stimulus-container"">
                    <img src=""images/schematic_sequence/interview_scheme/interview_scheme_2.png"" class=""exp-image"">
                    <div class=""question-area"">
                        <p style=""font-size: 20px; font-weight: bold; margin: 0;"">Is there a person in this image?</p>
                    </div>
                </div>","0","main_experiment_trial","2","interview_scheme","schematic_sequence","","","","",""
"","","","","","html-keyboard-response","42","163762","0.0-42.0","E6FF23BB2EA34200A38C9F45A87B4191","019cf4e8-5d16-7471-bd8c-a7fb9b5b4803","019cf4c8-1de8-79ec-b3bd-d98520647593","","null","
                <div class=""stimulus-container"">
                    <img src=""images/schematic_sequence/interview_scheme/interview_scheme_3.png"" class=""exp-image"">
                    <div class=""question-area""></div> 
                </div>","null","","","","","","","","",""
"","","","","","html-button-response","43","165077","0.0-43.0","E6FF23BB2EA34200A38C9F45A87B4191","019cf4e8-5d16-7471-bd8c-a7fb9b5b4803","019cf4c8-1de8-79ec-b3bd-d98520647593","","1314","
                <div class=""stimulus-container"">
                    <img src=""images/schematic_sequence/interview_scheme/interview_scheme_3.png"" class=""exp-image"">
                    <div class=""question-area"">
                        <p style=""font-size: 20px; font-weight: bold; margin: 0;"">Is there a person in this image?</p>
                    </div>
                </div>","1","main_experiment_trial","3","interview_scheme","schematic_sequence","","","","",""
"","","","","","html-keyboard-response","44","170079","0.0-44.0","E6FF23BB2EA34200A38C9F45A87B4191","019cf4e8-5d16-7471-bd8c-a7fb9b5b4803","019cf4c8-1de8-79ec-b3bd-d98520647593","","null","
                <div class=""stimulus-container"">
                    <img src=""images/schematic_sequence/interview_scheme/interview_scheme_4.png"" class=""exp-image"">
                    <div class=""question-area""></div> 
                </div>","null","","","","","","","","",""
"","","","","","html-button-response","45","170807","0.0-45.0","E6FF23BB2EA34200A38C9F45A87B4191","019cf4e8-5d16-7471-bd8c-a7fb9b5b4803","019cf4c8-1de8-79ec-b3bd-d98520647593","","727","
                <div class=""stimulus-container"">
                    <img src=""images/schematic_sequence/interview_scheme/interview_scheme_4.png"" class=""exp-image"">
                    <div class=""question-area"">
                        <p style=""font-size: 20px; font-weight: bold; margin: 0;"">Is there a person in this image?</p>
                    </div>
                </div>","1","main_experiment_trial","4","interview_scheme","schematic_sequence","","","","",""
"","","","","","html-keyboard-response","46","175822","0.0-46.0","E6FF23BB2EA34200A38C9F45A87B4191","019cf4e8-5d16-7471-bd8c-a7fb9b5b4803","019cf4c8-1de8-79ec-b3bd-d98520647593","","null","
                <div class=""stimulus-container"">
                    <img src=""images/schematic_sequence/interview_scheme/interview_scheme_5.png"" class=""exp-image"">
                    <div class=""question-area""></div> 
                </div>","null","","","","","","","","",""
"","","","","","html-button-response","47","176742","0.0-47.0","E6FF23BB2EA34200A38C9F45A87B4191","019cf4e8-5d16-7471-bd8c-a7fb9b5b4803","019cf4c8-1de8-79ec-b3bd-d98520647593","","919","
                <div class=""stimulus-container"">
                    <img src=""images/schematic_sequence/interview_scheme/interview_scheme_5.png"" class=""exp-image"">
                    <div class=""question-area"">
                        <p style=""font-size: 20px; font-weight: bold; margin: 0;"">Is there a person in this image?</p>
                    </div>
                </div>","0","main_experiment_trial","5","interview_scheme","schematic_sequence","","","","",""
"","","","","","html-keyboard-response","48","181746","0.0-48.0","E6FF23BB2EA34200A38C9F45A87B4191","019cf4e8-5d16-7471-bd8c-a7fb9b5b4803","019cf4c8-1de8-79ec-b3bd-d98520647593","","null","
                <div class=""stimulus-container"">
                    <img src=""images/schematic_sequence/interview_scheme/interview_scheme_6.png"" class=""exp-image"">
                    <div class=""question-area""></div> 
                </div>","null","","","","","","","","",""
"","","","","","html-button-response","49","182319","0.0-49.0","E6FF23BB2EA34200A38C9F45A87B4191","019cf4e8-5d16-7471-bd8c-a7fb9b5b4803","019cf4c8-1de8-79ec-b3bd-d98520647593","","572","
                <div class=""stimulus-container"">
                    <img src=""images/schematic_sequence/interview_scheme/interview_scheme_6.png"" class=""exp-image"">
                    <div class=""question-area"">
                        <p style=""font-size: 20px; font-weight: bold; margin: 0;"">Is there a person in this image?</p>
                    </div>
                </div>","0","main_experiment_trial","6","interview_scheme","schematic_sequence","","","","",""
"","","","","","html-keyboard-response","50","187331","0.0-50.0","E6FF23BB2EA34200A38C9F45A87B4191","019cf4e8-5d16-7471-bd8c-a7fb9b5b4803","019cf4c8-1de8-79ec-b3bd-d98520647593","","null","
                <div class=""stimulus-container"">
                    <img src=""images/schematic_sequence/interview_scheme/interview_scheme_7.png"" class=""exp-image"">
                    <div class=""question-area""></div> 
                </div>","null","","","","","","","","",""
"","","","","","html-button-response","51","187995","0.0-51.0","E6FF23BB2EA34200A38C9F45A87B4191","019cf4e8-5d16-7471-bd8c-a7fb9b5b4803","019cf4c8-1de8-79ec-b3bd-d98520647593","","662","
                <div class=""stimulus-container"">
                    <img src=""images/schematic_sequence/interview_scheme/interview_scheme_7.png"" class=""exp-image"">
                    <div class=""question-area"">
                        <p style=""font-size: 20px; font-weight: bold; margin: 0;"">Is there a person in this image?</p>
                    </div>
                </div>","0","main_experiment_trial","7","interview_scheme","schematic_sequence","","","","",""
"","","","","","html-keyboard-response","52","193006","0.0-52.0","E6FF23BB2EA34200A38C9F45A87B4191","019cf4e8-5d16-7471-bd8c-a7fb9b5b4803","019cf4c8-1de8-79ec-b3bd-d98520647593","","null","
                <div class=""stimulus-container"">
                    <img src=""images/schematic_sequence/interview_scheme/interview_scheme_8.png"" class=""exp-image"">
                    <div class=""question-area""></div> 
                </div>","null","","","","","","","","",""
"","","","","","html-button-response","53","194075","0.0-53.0","E6FF23BB2EA34200A38C9F45A87B4191","019cf4e8-5d16-7471-bd8c-a7fb9b5b4803","019cf4c8-1de8-79ec-b3bd-d98520647593","","1067","
                <div class=""stimulus-container"">
                    <img src=""images/schematic_sequence/interview_scheme/interview_scheme_8.png"" class=""exp-image"">
                    <div class=""question-area"">
                        <p style=""font-size: 20px; font-weight: bold; margin: 0;"">Is there a person in this image?</p>
                    </div>
                </div>","0","main_experiment_trial","8","interview_scheme","schematic_sequence","","","","",""
"","","","","","html-keyboard-response","54","199078","0.0-54.0","E6FF23BB2EA34200A38C9F45A87B4191","019cf4e8-5d16-7471-bd8c-a7fb9b5b4803","019cf4c8-1de8-79ec-b3bd-d98520647593","","null","
                <div class=""stimulus-container"">
                    <img src=""images/schematic_sequence/interview_scheme/interview_scheme_9.png"" class=""exp-image"">
                    <div class=""question-area""></div> 
                </div>","null","","","","","","","","",""
"","","","","","html-button-response","55","199781","0.0-55.0","E6FF23BB2EA34200A38C9F45A87B4191","019cf4e8-5d16-7471-bd8c-a7fb9b5b4803","019cf4c8-1de8-79ec-b3bd-d98520647593","","702","
                <div class=""stimulus-container"">
                    <img src=""images/schematic_sequence/interview_scheme/interview_scheme_9.png"" class=""exp-image"">
                    <div class=""question-area"">
                        <p style=""font-size: 20px; font-weight: bold; margin: 0;"">Is there a person in this image?</p>
                    </div>
                </div>","0","main_experiment_trial","9","interview_scheme","schematic_sequence","","","","",""
"","","","","","html-keyboard-response","56","204795","0.0-56.0","E6FF23BB2EA34200A38C9F45A87B4191","019cf4e8-5d16-7471-bd8c-a7fb9b5b4803","019cf4c8-1de8-79ec-b3bd-d98520647593","","null","
                <div class=""stimulus-container"">
                    <img src=""images/schematic_sequence/interview_scheme/interview_scheme_ten.png"" class=""exp-image"">
                    <div class=""question-area""></div> 
                </div>","null","","","","","","","","",""
"","","","","","html-button-response","57","205516","0.0-57.0","E6FF23BB2EA34200A38C9F45A87B4191","019cf4e8-5d16-7471-bd8c-a7fb9b5b4803","019cf4c8-1de8-79ec-b3bd-d98520647593","","721","
                <div class=""stimulus-container"">
                    <img src=""images/schematic_sequence/interview_scheme/interview_scheme_ten.png"" class=""exp-image"">
                    <div class=""question-area"">
                        <p style=""font-size: 20px; font-weight: bold; margin: 0;"">Is there a person in this image?</p>
                    </div>
                </div>","0","main_experiment_trial","ten","interview_scheme","schematic_sequence","","","","",""
"","","","","","html-keyboard-response","58","206525","0.0-58.0","E6FF23BB2EA34200A38C9F45A87B4191","019cf4e8-5d16-7471-bd8c-a7fb9b5b4803","019cf4c8-1de8-79ec-b3bd-d98520647593","","null","<div style=""background-color: white; width: 100vw; height: 100vh;""></div>","null","","","","","","","","",""
"","","","","","html-keyboard-response","59","211529","0.0-59.0","E6FF23BB2EA34200A38C9F45A87B4191","019cf4e8-5d16-7471-bd8c-a7fb9b5b4803","019cf4c8-1de8-79ec-b3bd-d98520647593","","null","
                <div class=""stimulus-container"">
                    <img src=""images/schematic_sequence/hotel_scheme/hotel_scheme_1.png"" class=""exp-image"">
                    <div class=""question-area""></div> 
                </div>","null","","","","","","","","",""
"","","","","","html-button-response","60","213477","0.0-60.0","E6FF23BB2EA34200A38C9F45A87B4191","019cf4e8-5d16-7471-bd8c-a7fb9b5b4803","019cf4c8-1de8-79ec-b3bd-d98520647593","","1947","
                <div class=""stimulus-container"">
                    <img src=""images/schematic_sequence/hotel_scheme/hotel_scheme_1.png"" class=""exp-image"">
                    <div class=""question-area"">
                        <p style=""font-size: 20px; font-weight: bold; margin: 0;"">Is there a person in this image?</p>
                    </div>
                </div>","1","main_experiment_trial","1","hotel_scheme","schematic_sequence","","","","",""
"","","","","","html-keyboard-response","61","218480","0.0-61.0","E6FF23BB2EA34200A38C9F45A87B4191","019cf4e8-5d16-7471-bd8c-a7fb9b5b4803","019cf4c8-1de8-79ec-b3bd-d98520647593","","null","
                <div class=""stimulus-container"">
                    <img src=""images/schematic_sequence/hotel_scheme/hotel_scheme_2.png"" class=""exp-image"">
                    <div class=""question-area""></div> 
                </div>","null","","","","","","","","",""
"","","","","","html-button-response","62","219427","0.0-62.0","E6FF23BB2EA34200A38C9F45A87B4191","019cf4e8-5d16-7471-bd8c-a7fb9b5b4803","019cf4c8-1de8-79ec-b3bd-d98520647593","","945","
                <div class=""stimulus-container"">
                    <img src=""images/schematic_sequence/hotel_scheme/hotel_scheme_2.png"" class=""exp-image"">
                    <div class=""question-area"">
                        <p style=""font-size: 20px; font-weight: bold; margin: 0;"">Is there a person in this image?</p>
                    </div>
                </div>","0","main_experiment_trial","2","hotel_scheme","schematic_sequence","","","","",""
"","","","","","html-keyboard-response","63","224429","0.0-63.0","E6FF23BB2EA34200A38C9F45A87B4191","019cf4e8-5d16-7471-bd8c-a7fb9b5b4803","019cf4c8-1de8-79ec-b3bd-d98520647593","","null","
                <div class=""stimulus-container"">
                    <img src=""images/schematic_sequence/hotel_scheme/hotel_scheme_3.png"" class=""exp-image"">
                    <div class=""question-area""></div> 
                </div>","null","","","","","","","","",""
"","","","","","html-button-response","64","225133","0.0-64.0","E6FF23BB2EA34200A38C9F45A87B4191","019cf4e8-5d16-7471-bd8c-a7fb9b5b4803","019cf4c8-1de8-79ec-b3bd-d98520647593","","703","
                <div class=""stimulus-container"">
                    <img src=""images/schematic_sequence/hotel_scheme/hotel_scheme_3.png"" class=""exp-image"">
                    <div class=""question-area"">
                        <p style=""font-size: 20px; font-weight: bold; margin: 0;"">Is there a person in this image?</p>
                    </div>
                </div>","0","main_experiment_trial","3","hotel_scheme","schematic_sequence","","","","",""
"","","","","","html-keyboard-response","65","230147","0.0-65.0","E6FF23BB2EA34200A38C9F45A87B4191","019cf4e8-5d16-7471-bd8c-a7fb9b5b4803","019cf4c8-1de8-79ec-b3bd-d98520647593","","null","
                <div class=""stimulus-container"">
                    <img src=""images/schematic_sequence/hotel_scheme/hotel_scheme_4.png"" class=""exp-image"">
                    <div class=""question-area""></div> 
                </div>","null","","","","","","","","",""
"","","","","","html-button-response","66","231491","0.0-66.0","E6FF23BB2EA34200A38C9F45A87B4191","019cf4e8-5d16-7471-bd8c-a7fb9b5b4803","019cf4c8-1de8-79ec-b3bd-d98520647593","","1343","
                <div class=""stimulus-container"">
                    <img src=""images/schematic_sequence/hotel_scheme/hotel_scheme_4.png"" class=""exp-image"">
                    <div class=""question-area"">
                        <p style=""font-size: 20px; font-weight: bold; margin: 0;"">Is there a person in this image?</p>
                    </div>
                </div>","1","main_experiment_trial","4","hotel_scheme","schematic_sequence","","","","",""
"","","","","","html-keyboard-response","67","236492","0.0-67.0","E6FF23BB2EA34200A38C9F45A87B4191","019cf4e8-5d16-7471-bd8c-a7fb9b5b4803","019cf4c8-1de8-79ec-b3bd-d98520647593","","null","
                <div class=""stimulus-container"">
                    <img src=""images/schematic_sequence/hotel_scheme/hotel_scheme_5.png"" class=""exp-image"">
                    <div class=""question-area""></div> 
                </div>","null","","","","","","","","",""
"","","","","","html-button-response","68","237362","0.0-68.0","E6FF23BB2EA34200A38C9F45A87B4191","019cf4e8-5d16-7471-bd8c-a7fb9b5b4803","019cf4c8-1de8-79ec-b3bd-d98520647593","","868","
                <div class=""stimulus-container"">
                    <img src=""images/schematic_sequence/hotel_scheme/hotel_scheme_5.png"" class=""exp-image"">
                    <div class=""question-area"">
                        <p style=""font-size: 20px; font-weight: bold; margin: 0;"">Is there a person in this image?</p>
                    </div>
                </div>","0","main_experiment_trial","5","hotel_scheme","schematic_sequence","","","","",""
"","","","","","html-keyboard-response","69","242377","0.0-69.0","E6FF23BB2EA34200A38C9F45A87B4191","019cf4e8-5d16-7471-bd8c-a7fb9b5b4803","019cf4c8-1de8-79ec-b3bd-d98520647593","","null","
                <div class=""stimulus-container"">
                    <img src=""images/schematic_sequence/hotel_scheme/hotel_scheme_6.png"" class=""exp-image"">
                    <div class=""question-area""></div> 
                </div>","null","","","","","","","","",""
"","","","","","html-button-response","70","243189","0.0-70.0","E6FF23BB2EA34200A38C9F45A87B4191","019cf4e8-5d16-7471-bd8c-a7fb9b5b4803","019cf4c8-1de8-79ec-b3bd-d98520647593","","810","
                <div class=""stimulus-container"">
                    <img src=""images/schematic_sequence/hotel_scheme/hotel_scheme_6.png"" class=""exp-image"">
                    <div class=""question-area"">
                        <p style=""font-size: 20px; font-weight: bold; margin: 0;"">Is there a person in this image?</p>
                    </div>
                </div>","0","main_experiment_trial","6","hotel_scheme","schematic_sequence","","","","",""
"","","","","","html-keyboard-response","71","248194","0.0-71.0","E6FF23BB2EA34200A38C9F45A87B4191","019cf4e8-5d16-7471-bd8c-a7fb9b5b4803","019cf4c8-1de8-79ec-b3bd-d98520647593","","null","
                <div class=""stimulus-container"">
                    <img src=""images/schematic_sequence/hotel_scheme/hotel_scheme_7.png"" class=""exp-image"">
                    <div class=""question-area""></div> 
                </div>","null","","","","","","","","",""
"","","","","","html-button-response","72","248865","0.0-72.0","E6FF23BB2EA34200A38C9F45A87B4191","019cf4e8-5d16-7471-bd8c-a7fb9b5b4803","019cf4c8-1de8-79ec-b3bd-d98520647593","","670","
                <div class=""stimulus-container"">
                    <img src=""images/schematic_sequence/hotel_scheme/hotel_scheme_7.png"" class=""exp-image"">
                    <div class=""question-area"">
                        <p style=""font-size: 20px; font-weight: bold; margin: 0;"">Is there a person in this image?</p>
                    </div>
                </div>","0","main_experiment_trial","7","hotel_scheme","schematic_sequence","","","","",""
"","","","","","html-keyboard-response","73","253880","0.0-73.0","E6FF23BB2EA34200A38C9F45A87B4191","019cf4e8-5d16-7471-bd8c-a7fb9b5b4803","019cf4c8-1de8-79ec-b3bd-d98520647593","","null","
                <div class=""stimulus-container"">
                    <img src=""images/schematic_sequence/hotel_scheme/hotel_scheme_8.png"" class=""exp-image"">
                    <div class=""question-area""></div> 
                </div>","null","","","","","","","","",""
"","","","","","html-button-response","74","254750","0.0-74.0","E6FF23BB2EA34200A38C9F45A87B4191","019cf4e8-5d16-7471-bd8c-a7fb9b5b4803","019cf4c8-1de8-79ec-b3bd-d98520647593","","869","
                <div class=""stimulus-container"">
                    <img src=""images/schematic_sequence/hotel_scheme/hotel_scheme_8.png"" class=""exp-image"">
                    <div class=""question-area"">
                        <p style=""font-size: 20px; font-weight: bold; margin: 0;"">Is there a person in this image?</p>
                    </div>
                </div>","0","main_experiment_trial","8","hotel_scheme","schematic_sequence","","","","",""
"","","","","","html-keyboard-response","75","259763","0.0-75.0","E6FF23BB2EA34200A38C9F45A87B4191","019cf4e8-5d16-7471-bd8c-a7fb9b5b4803","019cf4c8-1de8-79ec-b3bd-d98520647593","","null","
                <div class=""stimulus-container"">
                    <img src=""images/schematic_sequence/hotel_scheme/hotel_scheme_9.png"" class=""exp-image"">
                    <div class=""question-area""></div> 
                </div>","null","","","","","","","","",""
"","","","","","html-button-response","76","260530","0.0-76.0","E6FF23BB2EA34200A38C9F45A87B4191","019cf4e8-5d16-7471-bd8c-a7fb9b5b4803","019cf4c8-1de8-79ec-b3bd-d98520647593","","765","
                <div class=""stimulus-container"">
                    <img src=""images/schematic_sequence/hotel_scheme/hotel_scheme_9.png"" class=""exp-image"">
                    <div class=""question-area"">
                        <p style=""font-size: 20px; font-weight: bold; margin: 0;"">Is there a person in this image?</p>
                    </div>
                </div>","0","main_experiment_trial","9","hotel_scheme","schematic_sequence","","","","",""
"","","","","","html-keyboard-response","77","265546","0.0-77.0","E6FF23BB2EA34200A38C9F45A87B4191","019cf4e8-5d16-7471-bd8c-a7fb9b5b4803","019cf4c8-1de8-79ec-b3bd-d98520647593","","null","
                <div class=""stimulus-container"">
                    <img src=""images/schematic_sequence/hotel_scheme/hotel_scheme_ten.png"" class=""exp-image"">
                    <div class=""question-area""></div> 
                </div>","null","","","","","","","","",""
"","","","","","html-button-response","78","266190","0.0-78.0","E6FF23BB2EA34200A38C9F45A87B4191","019cf4e8-5d16-7471-bd8c-a7fb9b5b4803","019cf4c8-1de8-79ec-b3bd-d98520647593","","642","
                <div class=""stimulus-container"">
                    <img src=""images/schematic_sequence/hotel_scheme/hotel_scheme_ten.png"" class=""exp-image"">
                    <div class=""question-area"">
                        <p style=""font-size: 20px; font-weight: bold; margin: 0;"">Is there a person in this image?</p>
                    </div>
                </div>","0","main_experiment_trial","ten","hotel_scheme","schematic_sequence","","","","",""
"","","","","","html-keyboard-response","79","267197","0.0-79.0","E6FF23BB2EA34200A38C9F45A87B4191","019cf4e8-5d16-7471-bd8c-a7fb9b5b4803","019cf4c8-1de8-79ec-b3bd-d98520647593","","null","<div style=""background-color: white; width: 100vw; height: 100vh;""></div>","null","","","","","","","","",""
"","","","","","html-keyboard-response","80","272212","0.0-80.0","E6FF23BB2EA34200A38C9F45A87B4191","019cf4e8-5d16-7471-bd8c-a7fb9b5b4803","019cf4c8-1de8-79ec-b3bd-d98520647593","","null","
                <div class=""stimulus-container"">
                    <img src=""images/schematic_sequence/dinner_party_scheme/dinner_party_scheme_1.png"" class=""exp-image"">
                    <div class=""question-area""></div> 
                </div>","null","","","","","","","","",""
"","","","","","html-button-response","81","273007","0.0-81.0","E6FF23BB2EA34200A38C9F45A87B4191","019cf4e8-5d16-7471-bd8c-a7fb9b5b4803","019cf4c8-1de8-79ec-b3bd-d98520647593","","794","
                <div class=""stimulus-container"">
                    <img src=""images/schematic_sequence/dinner_party_scheme/dinner_party_scheme_1.png"" class=""exp-image"">
                    <div class=""question-area"">
                        <p style=""font-size: 20px; font-weight: bold; margin: 0;"">Is there a person in this image?</p>
                    </div>
                </div>","0","main_experiment_trial","1","dinner_party_scheme","schematic_sequence","","","","",""
"","","","","","html-keyboard-response","82","278013","0.0-82.0","E6FF23BB2EA34200A38C9F45A87B4191","019cf4e8-5d16-7471-bd8c-a7fb9b5b4803","019cf4c8-1de8-79ec-b3bd-d98520647593","","null","
                <div class=""stimulus-container"">
                    <img src=""images/schematic_sequence/dinner_party_scheme/dinner_party_scheme_2.png"" class=""exp-image"">
                    <div class=""question-area""></div> 
                </div>","null","","","","","","","","",""
"","","","","","html-button-response","83","278791","0.0-83.0","E6FF23BB2EA34200A38C9F45A87B4191","019cf4e8-5d16-7471-bd8c-a7fb9b5b4803","019cf4c8-1de8-79ec-b3bd-d98520647593","","777","
                <div class=""stimulus-container"">
                    <img src=""images/schematic_sequence/dinner_party_scheme/dinner_party_scheme_2.png"" class=""exp-image"">
                    <div class=""question-area"">
                        <p style=""font-size: 20px; font-weight: bold; margin: 0;"">Is there a person in this image?</p>
                    </div>
                </div>","0","main_experiment_trial","2","dinner_party_scheme","schematic_sequence","","","","",""
"","","","","","html-keyboard-response","84","283796","0.0-84.0","E6FF23BB2EA34200A38C9F45A87B4191","019cf4e8-5d16-7471-bd8c-a7fb9b5b4803","019cf4c8-1de8-79ec-b3bd-d98520647593","","null","
                <div class=""stimulus-container"">
                    <img src=""images/schematic_sequence/dinner_party_scheme/dinner_party_scheme_3.png"" class=""exp-image"">
                    <div class=""question-area""></div> 
                </div>","null","","","","","","","","",""
"","","","","","html-button-response","85","284393","0.0-85.0","E6FF23BB2EA34200A38C9F45A87B4191","019cf4e8-5d16-7471-bd8c-a7fb9b5b4803","019cf4c8-1de8-79ec-b3bd-d98520647593","","596","
                <div class=""stimulus-container"">
                    <img src=""images/schematic_sequence/dinner_party_scheme/dinner_party_scheme_3.png"" class=""exp-image"">
                    <div class=""question-area"">
                        <p style=""font-size: 20px; font-weight: bold; margin: 0;"">Is there a person in this image?</p>
                    </div>
                </div>","0","main_experiment_trial","3","dinner_party_scheme","schematic_sequence","","","","",""
"","","","","","html-keyboard-response","86","289395","0.0-86.0","E6FF23BB2EA34200A38C9F45A87B4191","019cf4e8-5d16-7471-bd8c-a7fb9b5b4803","019cf4c8-1de8-79ec-b3bd-d98520647593","","null","
                <div class=""stimulus-container"">
                    <img src=""images/schematic_sequence/dinner_party_scheme/dinner_party_scheme_4.png"" class=""exp-image"">
                    <div class=""question-area""></div> 
                </div>","null","","","","","","","","",""
"","","","","","html-button-response","87","290116","0.0-87.0","E6FF23BB2EA34200A38C9F45A87B4191","019cf4e8-5d16-7471-bd8c-a7fb9b5b4803","019cf4c8-1de8-79ec-b3bd-d98520647593","","720","
                <div class=""stimulus-container"">
                    <img src=""images/schematic_sequence/dinner_party_scheme/dinner_party_scheme_4.png"" class=""exp-image"">
                    <div class=""question-area"">
                        <p style=""font-size: 20px; font-weight: bold; margin: 0;"">Is there a person in this image?</p>
                    </div>
                </div>","0","main_experiment_trial","4","dinner_party_scheme","schematic_sequence","","","","",""
"","","","","","html-keyboard-response","88","295130","0.0-88.0","E6FF23BB2EA34200A38C9F45A87B4191","019cf4e8-5d16-7471-bd8c-a7fb9b5b4803","019cf4c8-1de8-79ec-b3bd-d98520647593","","null","
                <div class=""stimulus-container"">
                    <img src=""images/schematic_sequence/dinner_party_scheme/dinner_party_scheme_5.png"" class=""exp-image"">
                    <div class=""question-area""></div> 
                </div>","null","","","","","","","","",""
"","","","","","html-button-response","89","295883","0.0-89.0","E6FF23BB2EA34200A38C9F45A87B4191","019cf4e8-5d16-7471-bd8c-a7fb9b5b4803","019cf4c8-1de8-79ec-b3bd-d98520647593","","752","
                <div class=""stimulus-container"">
                    <img src=""images/schematic_sequence/dinner_party_scheme/dinner_party_scheme_5.png"" class=""exp-image"">
                    <div class=""question-area"">
                        <p style=""font-size: 20px; font-weight: bold; margin: 0;"">Is there a person in this image?</p>
                    </div>
                </div>","0","main_experiment_trial","5","dinner_party_scheme","schematic_sequence","","","","",""
"","","","","","html-keyboard-response","90","300896","0.0-90.0","E6FF23BB2EA34200A38C9F45A87B4191","019cf4e8-5d16-7471-bd8c-a7fb9b5b4803","019cf4c8-1de8-79ec-b3bd-d98520647593","","null","
                <div class=""stimulus-container"">
                    <img src=""images/schematic_sequence/dinner_party_scheme/dinner_party_scheme_6.png"" class=""exp-image"">
                    <div class=""question-area""></div> 
                </div>","null","","","","","","","","",""
"","","","","","html-button-response","91","301442","0.0-91.0","E6FF23BB2EA34200A38C9F45A87B4191","019cf4e8-5d16-7471-bd8c-a7fb9b5b4803","019cf4c8-1de8-79ec-b3bd-d98520647593","","545","
                <div class=""stimulus-container"">
                    <img src=""images/schematic_sequence/dinner_party_scheme/dinner_party_scheme_6.png"" class=""exp-image"">
                    <div class=""question-area"">
                        <p style=""font-size: 20px; font-weight: bold; margin: 0;"">Is there a person in this image?</p>
                    </div>
                </div>","0","main_experiment_trial","6","dinner_party_scheme","schematic_sequence","","","","",""
"","","","","","html-keyboard-response","92","306444","0.0-92.0","E6FF23BB2EA34200A38C9F45A87B4191","019cf4e8-5d16-7471-bd8c-a7fb9b5b4803","019cf4c8-1de8-79ec-b3bd-d98520647593","","null","
                <div class=""stimulus-container"">
                    <img src=""images/schematic_sequence/dinner_party_scheme/dinner_party_scheme_7.png"" class=""exp-image"">
                    <div class=""question-area""></div> 
                </div>","null","","","","","","","","",""
"","","","","","html-button-response","93","307350","0.0-93.0","E6FF23BB2EA34200A38C9F45A87B4191","019cf4e8-5d16-7471-bd8c-a7fb9b5b4803","019cf4c8-1de8-79ec-b3bd-d98520647593","","904","
                <div class=""stimulus-container"">
                    <img src=""images/schematic_sequence/dinner_party_scheme/dinner_party_scheme_7.png"" class=""exp-image"">
                    <div class=""question-area"">
                        <p style=""font-size: 20px; font-weight: bold; margin: 0;"">Is there a person in this image?</p>
                    </div>
                </div>","0","main_experiment_trial","7","dinner_party_scheme","schematic_sequence","","","","",""
"","","","","","html-keyboard-response","94","312361","0.0-94.0","E6FF23BB2EA34200A38C9F45A87B4191","019cf4e8-5d16-7471-bd8c-a7fb9b5b4803","019cf4c8-1de8-79ec-b3bd-d98520647593","","null","
                <div class=""stimulus-container"">
                    <img src=""images/schematic_sequence/dinner_party_scheme/dinner_party_scheme_8.png"" class=""exp-image"">
                    <div class=""question-area""></div> 
                </div>","null","","","","","","","","",""
"","","","","","html-button-response","95","313322","0.0-95.0","E6FF23BB2EA34200A38C9F45A87B4191","019cf4e8-5d16-7471-bd8c-a7fb9b5b4803","019cf4c8-1de8-79ec-b3bd-d98520647593","","960","
                <div class=""stimulus-container"">
                    <img src=""images/schematic_sequence/dinner_party_scheme/dinner_party_scheme_8.png"" class=""exp-image"">
                    <div class=""question-area"">
                        <p style=""font-size: 20px; font-weight: bold; margin: 0;"">Is there a person in this image?</p>
                    </div>
                </div>","0","main_experiment_trial","8","dinner_party_scheme","schematic_sequence","","","","",""
"","","","","","html-keyboard-response","96","318328","0.0-96.0","E6FF23BB2EA34200A38C9F45A87B4191","019cf4e8-5d16-7471-bd8c-a7fb9b5b4803","019cf4c8-1de8-79ec-b3bd-d98520647593","","null","
                <div class=""stimulus-container"">
                    <img src=""images/schematic_sequence/dinner_party_scheme/dinner_party_scheme_9.png"" class=""exp-image"">
                    <div class=""question-area""></div> 
                </div>","null","","","","","","","","",""
"","","","","","html-button-response","97","318995","0.0-97.0","E6FF23BB2EA34200A38C9F45A87B4191","019cf4e8-5d16-7471-bd8c-a7fb9b5b4803","019cf4c8-1de8-79ec-b3bd-d98520647593","","666","
                <div class=""stimulus-container"">
                    <img src=""images/schematic_sequence/dinner_party_scheme/dinner_party_scheme_9.png"" class=""exp-image"">
                    <div class=""question-area"">
                        <p style=""font-size: 20px; font-weight: bold; margin: 0;"">Is there a person in this image?</p>
                    </div>
                </div>","0","main_experiment_trial","9","dinner_party_scheme","schematic_sequence","","","","",""
"","","","","","html-keyboard-response","98","323996","0.0-98.0","E6FF23BB2EA34200A38C9F45A87B4191","019cf4e8-5d16-7471-bd8c-a7fb9b5b4803","019cf4c8-1de8-79ec-b3bd-d98520647593","","null","
                <div class=""stimulus-container"">
                    <img src=""images/schematic_sequence/dinner_party_scheme/dinner_party_scheme_ten.png"" class=""exp-image"">
                    <div class=""question-area""></div> 
                </div>","null","","","","","","","","",""
"","","","","","html-button-response","99","324793","0.0-99.0","E6FF23BB2EA34200A38C9F45A87B4191","019cf4e8-5d16-7471-bd8c-a7fb9b5b4803","019cf4c8-1de8-79ec-b3bd-d98520647593","","796","
                <div class=""stimulus-container"">
                    <img src=""images/schematic_sequence/dinner_party_scheme/dinner_party_scheme_ten.png"" class=""exp-image"">
                    <div class=""question-area"">
                        <p style=""font-size: 20px; font-weight: bold; margin: 0;"">Is there a person in this image?</p>
                    </div>
                </div>","0","main_experiment_trial","ten","dinner_party_scheme","schematic_sequence","","","","",""
"","","","","","html-keyboard-response","100","325808","0.0-100.0","E6FF23BB2EA34200A38C9F45A87B4191","019cf4e8-5d16-7471-bd8c-a7fb9b5b4803","019cf4c8-1de8-79ec-b3bd-d98520647593","","null","<div style=""background-color: white; width: 100vw; height: 100vh;""></div>","null","","","","","","","","",""
"","","","","","html-keyboard-response","101","330825","0.0-101.0","E6FF23BB2EA34200A38C9F45A87B4191","019cf4e8-5d16-7471-bd8c-a7fb9b5b4803","019cf4c8-1de8-79ec-b3bd-d98520647593","","null","
                <div class=""stimulus-container"">
                    <img src=""images/schematic_sequence/supermarket_scheme/supermarket_scheme_1.png"" class=""exp-image"">
                    <div class=""question-area""></div> 
                </div>","null","","","","","","","","",""
"","","","","","html-button-response","102","331686","0.0-102.0","E6FF23BB2EA34200A38C9F45A87B4191","019cf4e8-5d16-7471-bd8c-a7fb9b5b4803","019cf4c8-1de8-79ec-b3bd-d98520647593","","860","
                <div class=""stimulus-container"">
                    <img src=""images/schematic_sequence/supermarket_scheme/supermarket_scheme_1.png"" class=""exp-image"">
                    <div class=""question-area"">
                        <p style=""font-size: 20px; font-weight: bold; margin: 0;"">Is there a person in this image?</p>
                    </div>
                </div>","1","main_experiment_trial","1","supermarket_scheme","schematic_sequence","","","","",""
"","","","","","html-keyboard-response","103","336693","0.0-103.0","E6FF23BB2EA34200A38C9F45A87B4191","019cf4e8-5d16-7471-bd8c-a7fb9b5b4803","019cf4c8-1de8-79ec-b3bd-d98520647593","","null","
                <div class=""stimulus-container"">
                    <img src=""images/schematic_sequence/supermarket_scheme/supermarket_scheme_2.png"" class=""exp-image"">
                    <div class=""question-area""></div> 
                </div>","null","","","","","","","","",""
"","","","","","html-button-response","104","337459","0.0-104.0","E6FF23BB2EA34200A38C9F45A87B4191","019cf4e8-5d16-7471-bd8c-a7fb9b5b4803","019cf4c8-1de8-79ec-b3bd-d98520647593","","765","
                <div class=""stimulus-container"">
                    <img src=""images/schematic_sequence/supermarket_scheme/supermarket_scheme_2.png"" class=""exp-image"">
                    <div class=""question-area"">
                        <p style=""font-size: 20px; font-weight: bold; margin: 0;"">Is there a person in this image?</p>
                    </div>
                </div>","1","main_experiment_trial","2","supermarket_scheme","schematic_sequence","","","","",""
"","","","","","html-keyboard-response","105","342473","0.0-105.0","E6FF23BB2EA34200A38C9F45A87B4191","019cf4e8-5d16-7471-bd8c-a7fb9b5b4803","019cf4c8-1de8-79ec-b3bd-d98520647593","","null","
                <div class=""stimulus-container"">
                    <img src=""images/schematic_sequence/supermarket_scheme/supermarket_scheme_3.png"" class=""exp-image"">
                    <div class=""question-area""></div> 
                </div>","null","","","","","","","","",""
"","","","","","html-button-response","106","343297","0.0-106.0","E6FF23BB2EA34200A38C9F45A87B4191","019cf4e8-5d16-7471-bd8c-a7fb9b5b4803","019cf4c8-1de8-79ec-b3bd-d98520647593","","823","
                <div class=""stimulus-container"">
                    <img src=""images/schematic_sequence/supermarket_scheme/supermarket_scheme_3.png"" class=""exp-image"">
                    <div class=""question-area"">
                        <p style=""font-size: 20px; font-weight: bold; margin: 0;"">Is there a person in this image?</p>
                    </div>
                </div>","1","main_experiment_trial","3","supermarket_scheme","schematic_sequence","","","","",""
"","","","","","html-keyboard-response","107","348310","0.0-107.0","E6FF23BB2EA34200A38C9F45A87B4191","019cf4e8-5d16-7471-bd8c-a7fb9b5b4803","019cf4c8-1de8-79ec-b3bd-d98520647593","","null","
                <div class=""stimulus-container"">
                    <img src=""images/schematic_sequence/supermarket_scheme/supermarket_scheme_4.png"" class=""exp-image"">
                    <div class=""question-area""></div> 
                </div>","null","","","","","","","","",""
"","","","","","html-button-response","108","349909","0.0-108.0","E6FF23BB2EA34200A38C9F45A87B4191","019cf4e8-5d16-7471-bd8c-a7fb9b5b4803","019cf4c8-1de8-79ec-b3bd-d98520647593","","1598","
                <div class=""stimulus-container"">
                    <img src=""images/schematic_sequence/supermarket_scheme/supermarket_scheme_4.png"" class=""exp-image"">
                    <div class=""question-area"">
                        <p style=""font-size: 20px; font-weight: bold; margin: 0;"">Is there a person in this image?</p>
                    </div>
                </div>","0","main_experiment_trial","4","supermarket_scheme","schematic_sequence","","","","",""
"","","","","","html-keyboard-response","109","354911","0.0-109.0","E6FF23BB2EA34200A38C9F45A87B4191","019cf4e8-5d16-7471-bd8c-a7fb9b5b4803","019cf4c8-1de8-79ec-b3bd-d98520647593","","null","
                <div class=""stimulus-container"">
                    <img src=""images/schematic_sequence/supermarket_scheme/supermarket_scheme_5.png"" class=""exp-image"">
                    <div class=""question-area""></div> 
                </div>","null","","","","","","","","",""
"","","","","","html-button-response","110","355946","0.0-110.0","E6FF23BB2EA34200A38C9F45A87B4191","019cf4e8-5d16-7471-bd8c-a7fb9b5b4803","019cf4c8-1de8-79ec-b3bd-d98520647593","","1034","
                <div class=""stimulus-container"">
                    <img src=""images/schematic_sequence/supermarket_scheme/supermarket_scheme_5.png"" class=""exp-image"">
                    <div class=""question-area"">
                        <p style=""font-size: 20px; font-weight: bold; margin: 0;"">Is there a person in this image?</p>
                    </div>
                </div>","1","main_experiment_trial","5","supermarket_scheme","schematic_sequence","","","","",""
"","","","","","html-keyboard-response","111","360956","0.0-111.0","E6FF23BB2EA34200A38C9F45A87B4191","019cf4e8-5d16-7471-bd8c-a7fb9b5b4803","019cf4c8-1de8-79ec-b3bd-d98520647593","","null","
                <div class=""stimulus-container"">
                    <img src=""images/schematic_sequence/supermarket_scheme/supermarket_scheme_6.png"" class=""exp-image"">
                    <div class=""question-area""></div> 
                </div>","null","","","","","","","","",""
"","","","","","html-button-response","112","362149","0.0-112.0","E6FF23BB2EA34200A38C9F45A87B4191","019cf4e8-5d16-7471-bd8c-a7fb9b5b4803","019cf4c8-1de8-79ec-b3bd-d98520647593","","1193","
                <div class=""stimulus-container"">
                    <img src=""images/schematic_sequence/supermarket_scheme/supermarket_scheme_6.png"" class=""exp-image"">
                    <div class=""question-area"">
                        <p style=""font-size: 20px; font-weight: bold; margin: 0;"">Is there a person in this image?</p>
                    </div>
                </div>","0","main_experiment_trial","6","supermarket_scheme","schematic_sequence","","","","",""
"","","","","","html-keyboard-response","113","367159","0.0-113.0","E6FF23BB2EA34200A38C9F45A87B4191","019cf4e8-5d16-7471-bd8c-a7fb9b5b4803","019cf4c8-1de8-79ec-b3bd-d98520647593","","null","
                <div class=""stimulus-container"">
                    <img src=""images/schematic_sequence/supermarket_scheme/supermarket_scheme_7.png"" class=""exp-image"">
                    <div class=""question-area""></div> 
                </div>","null","","","","","","","","",""
"","","","","","html-button-response","114","368110","0.0-114.0","E6FF23BB2EA34200A38C9F45A87B4191","019cf4e8-5d16-7471-bd8c-a7fb9b5b4803","019cf4c8-1de8-79ec-b3bd-d98520647593","","950","
                <div class=""stimulus-container"">
                    <img src=""images/schematic_sequence/supermarket_scheme/supermarket_scheme_7.png"" class=""exp-image"">
                    <div class=""question-area"">
                        <p style=""font-size: 20px; font-weight: bold; margin: 0;"">Is there a person in this image?</p>
                    </div>
                </div>","0","main_experiment_trial","7","supermarket_scheme","schematic_sequence","","","","",""
"","","","","","html-keyboard-response","115","373124","0.0-115.0","E6FF23BB2EA34200A38C9F45A87B4191","019cf4e8-5d16-7471-bd8c-a7fb9b5b4803","019cf4c8-1de8-79ec-b3bd-d98520647593","","null","
                <div class=""stimulus-container"">
                    <img src=""images/schematic_sequence/supermarket_scheme/supermarket_scheme_8.png"" class=""exp-image"">
                    <div class=""question-area""></div> 
                </div>","null","","","","","","","","",""
"","","","","","html-button-response","116","373722","0.0-116.0","E6FF23BB2EA34200A38C9F45A87B4191","019cf4e8-5d16-7471-bd8c-a7fb9b5b4803","019cf4c8-1de8-79ec-b3bd-d98520647593","","597","
                <div class=""stimulus-container"">
                    <img src=""images/schematic_sequence/supermarket_scheme/supermarket_scheme_8.png"" class=""exp-image"">
                    <div class=""question-area"">
                        <p style=""font-size: 20px; font-weight: bold; margin: 0;"">Is there a person in this image?</p>
                    </div>
                </div>","0","main_experiment_trial","8","supermarket_scheme","schematic_sequence","","","","",""
"","","","","","html-keyboard-response","117","378729","0.0-117.0","E6FF23BB2EA34200A38C9F45A87B4191","019cf4e8-5d16-7471-bd8c-a7fb9b5b4803","019cf4c8-1de8-79ec-b3bd-d98520647593","","null","
                <div class=""stimulus-container"">
                    <img src=""images/schematic_sequence/supermarket_scheme/supermarket_scheme_9.png"" class=""exp-image"">
                    <div class=""question-area""></div> 
                </div>","null","","","","","","","","",""
"","","","","","html-button-response","118","379423","0.0-118.0","E6FF23BB2EA34200A38C9F45A87B4191","019cf4e8-5d16-7471-bd8c-a7fb9b5b4803","019cf4c8-1de8-79ec-b3bd-d98520647593","","693","
                <div class=""stimulus-container"">
                    <img src=""images/schematic_sequence/supermarket_scheme/supermarket_scheme_9.png"" class=""exp-image"">
                    <div class=""question-area"">
                        <p style=""font-size: 20px; font-weight: bold; margin: 0;"">Is there a person in this image?</p>
                    </div>
                </div>","0","main_experiment_trial","9","supermarket_scheme","schematic_sequence","","","","",""
"","","","","","html-keyboard-response","119","384429","0.0-119.0","E6FF23BB2EA34200A38C9F45A87B4191","019cf4e8-5d16-7471-bd8c-a7fb9b5b4803","019cf4c8-1de8-79ec-b3bd-d98520647593","","null","
                <div class=""stimulus-container"">
                    <img src=""images/schematic_sequence/supermarket_scheme/supermarket_scheme_ten.png"" class=""exp-image"">
                    <div class=""question-area""></div> 
                </div>","null","","","","","","","","",""
"","","","","","html-button-response","120","385329","0.0-120.0","E6FF23BB2EA34200A38C9F45A87B4191","019cf4e8-5d16-7471-bd8c-a7fb9b5b4803","019cf4c8-1de8-79ec-b3bd-d98520647593","","899","
                <div class=""stimulus-container"">
                    <img src=""images/schematic_sequence/supermarket_scheme/supermarket_scheme_ten.png"" class=""exp-image"">
                    <div class=""question-area"">
                        <p style=""font-size: 20px; font-weight: bold; margin: 0;"">Is there a person in this image?</p>
                    </div>
                </div>","1","main_experiment_trial","ten","supermarket_scheme","schematic_sequence","","","","",""
"","","","","","html-keyboard-response","121","386346","0.0-121.0","E6FF23BB2EA34200A38C9F45A87B4191","019cf4e8-5d16-7471-bd8c-a7fb9b5b4803","019cf4c8-1de8-79ec-b3bd-d98520647593","","null","<div style=""background-color: white; width: 100vw; height: 100vh;""></div>","null","","","","","","","","",""
"","","","","","html-keyboard-response","122","391360","0.0-122.0","E6FF23BB2EA34200A38C9F45A87B4191","019cf4e8-5d16-7471-bd8c-a7fb9b5b4803","019cf4c8-1de8-79ec-b3bd-d98520647593","","null","
                <div class=""stimulus-container"">
                    <img src=""images/schematic_sequence/restaurant_scheme/restaurant_scheme_1.png"" class=""exp-image"">
                    <div class=""question-area""></div> 
                </div>","null","","","","","","","","",""
"","","","","","html-button-response","123","392210","0.0-123.0","E6FF23BB2EA34200A38C9F45A87B4191","019cf4e8-5d16-7471-bd8c-a7fb9b5b4803","019cf4c8-1de8-79ec-b3bd-d98520647593","","849","
                <div class=""stimulus-container"">
                    <img src=""images/schematic_sequence/restaurant_scheme/restaurant_scheme_1.png"" class=""exp-image"">
                    <div class=""question-area"">
                        <p style=""font-size: 20px; font-weight: bold; margin: 0;"">Is there a person in this image?</p>
                    </div>
                </div>","0","main_experiment_trial","1","restaurant_scheme","schematic_sequence","","","","",""
"","","","","","html-keyboard-response","124","397228","0.0-124.0","E6FF23BB2EA34200A38C9F45A87B4191","019cf4e8-5d16-7471-bd8c-a7fb9b5b4803","019cf4c8-1de8-79ec-b3bd-d98520647593","","null","
                <div class=""stimulus-container"">
                    <img src=""images/schematic_sequence/restaurant_scheme/restaurant_scheme_2.png"" class=""exp-image"">
                    <div class=""question-area""></div> 
                </div>","null","","","","","","","","",""
"","","","","","html-button-response","125","397974","0.0-125.0","E6FF23BB2EA34200A38C9F45A87B4191","019cf4e8-5d16-7471-bd8c-a7fb9b5b4803","019cf4c8-1de8-79ec-b3bd-d98520647593","","745","
                <div class=""stimulus-container"">
                    <img src=""images/schematic_sequence/restaurant_scheme/restaurant_scheme_2.png"" class=""exp-image"">
                    <div class=""question-area"">
                        <p style=""font-size: 20px; font-weight: bold; margin: 0;"">Is there a person in this image?</p>
                    </div>
                </div>","1","main_experiment_trial","2","restaurant_scheme","schematic_sequence","","","","",""
"","","","","","html-keyboard-response","126","402978","0.0-126.0","E6FF23BB2EA34200A38C9F45A87B4191","019cf4e8-5d16-7471-bd8c-a7fb9b5b4803","019cf4c8-1de8-79ec-b3bd-d98520647593","","null","
                <div class=""stimulus-container"">
                    <img src=""images/schematic_sequence/restaurant_scheme/restaurant_scheme_3.png"" class=""exp-image"">
                    <div class=""question-area""></div> 
                </div>","null","","","","","","","","",""
"","","","","","html-button-response","127","403824","0.0-127.0","E6FF23BB2EA34200A38C9F45A87B4191","019cf4e8-5d16-7471-bd8c-a7fb9b5b4803","019cf4c8-1de8-79ec-b3bd-d98520647593","","845","
                <div class=""stimulus-container"">
                    <img src=""images/schematic_sequence/restaurant_scheme/restaurant_scheme_3.png"" class=""exp-image"">
                    <div class=""question-area"">
                        <p style=""font-size: 20px; font-weight: bold; margin: 0;"">Is there a person in this image?</p>
                    </div>
                </div>","1","main_experiment_trial","3","restaurant_scheme","schematic_sequence","","","","",""
"","","","","","html-keyboard-response","128","408829","0.0-128.0","E6FF23BB2EA34200A38C9F45A87B4191","019cf4e8-5d16-7471-bd8c-a7fb9b5b4803","019cf4c8-1de8-79ec-b3bd-d98520647593","","null","
                <div class=""stimulus-container"">
                    <img src=""images/schematic_sequence/restaurant_scheme/restaurant_scheme_4.png"" class=""exp-image"">
                    <div class=""question-area""></div> 
                </div>","null","","","","","","","","",""
"","","","","","html-button-response","129","409390","0.0-129.0","E6FF23BB2EA34200A38C9F45A87B4191","019cf4e8-5d16-7471-bd8c-a7fb9b5b4803","019cf4c8-1de8-79ec-b3bd-d98520647593","","560","
                <div class=""stimulus-container"">
                    <img src=""images/schematic_sequence/restaurant_scheme/restaurant_scheme_4.png"" class=""exp-image"">
                    <div class=""question-area"">
                        <p style=""font-size: 20px; font-weight: bold; margin: 0;"">Is there a person in this image?</p>
                    </div>
                </div>","0","main_experiment_trial","4","restaurant_scheme","schematic_sequence","","","","",""
"","","","","","html-keyboard-response","130","414392","0.0-130.0","E6FF23BB2EA34200A38C9F45A87B4191","019cf4e8-5d16-7471-bd8c-a7fb9b5b4803","019cf4c8-1de8-79ec-b3bd-d98520647593","","null","
                <div class=""stimulus-container"">
                    <img src=""images/schematic_sequence/restaurant_scheme/restaurant_scheme_5.png"" class=""exp-image"">
                    <div class=""question-area""></div> 
                </div>","null","","","","","","","","",""
"","","","","","html-button-response","131","415253","0.0-131.0","E6FF23BB2EA34200A38C9F45A87B4191","019cf4e8-5d16-7471-bd8c-a7fb9b5b4803","019cf4c8-1de8-79ec-b3bd-d98520647593","","860","
                <div class=""stimulus-container"">
                    <img src=""images/schematic_sequence/restaurant_scheme/restaurant_scheme_5.png"" class=""exp-image"">
                    <div class=""question-area"">
                        <p style=""font-size: 20px; font-weight: bold; margin: 0;"">Is there a person in this image?</p>
                    </div>
                </div>","0","main_experiment_trial","5","restaurant_scheme","schematic_sequence","","","","",""
"","","","","","html-keyboard-response","132","420260","0.0-132.0","E6FF23BB2EA34200A38C9F45A87B4191","019cf4e8-5d16-7471-bd8c-a7fb9b5b4803","019cf4c8-1de8-79ec-b3bd-d98520647593","","null","
                <div class=""stimulus-container"">
                    <img src=""images/schematic_sequence/restaurant_scheme/restaurant_scheme_6.png"" class=""exp-image"">
                    <div class=""question-area""></div> 
                </div>","null","","","","","","","","",""
"","","","","","html-button-response","133","421767","0.0-133.0","E6FF23BB2EA34200A38C9F45A87B4191","019cf4e8-5d16-7471-bd8c-a7fb9b5b4803","019cf4c8-1de8-79ec-b3bd-d98520647593","","1506","
                <div class=""stimulus-container"">
                    <img src=""images/schematic_sequence/restaurant_scheme/restaurant_scheme_6.png"" class=""exp-image"">
                    <div class=""question-area"">
                        <p style=""font-size: 20px; font-weight: bold; margin: 0;"">Is there a person in this image?</p>
                    </div>
                </div>","1","main_experiment_trial","6","restaurant_scheme","schematic_sequence","","","","",""
"","","","","","html-keyboard-response","134","426776","0.0-134.0","E6FF23BB2EA34200A38C9F45A87B4191","019cf4e8-5d16-7471-bd8c-a7fb9b5b4803","019cf4c8-1de8-79ec-b3bd-d98520647593","","null","
                <div class=""stimulus-container"">
                    <img src=""images/schematic_sequence/restaurant_scheme/restaurant_scheme_7.png"" class=""exp-image"">
                    <div class=""question-area""></div> 
                </div>","null","","","","","","","","",""
"","","","","","html-button-response","135","428380","0.0-135.0","E6FF23BB2EA34200A38C9F45A87B4191","019cf4e8-5d16-7471-bd8c-a7fb9b5b4803","019cf4c8-1de8-79ec-b3bd-d98520647593","","1603","
                <div class=""stimulus-container"">
                    <img src=""images/schematic_sequence/restaurant_scheme/restaurant_scheme_7.png"" class=""exp-image"">
                    <div class=""question-area"">
                        <p style=""font-size: 20px; font-weight: bold; margin: 0;"">Is there a person in this image?</p>
                    </div>
                </div>","1","main_experiment_trial","7","restaurant_scheme","schematic_sequence","","","","",""
"","","","","","html-keyboard-response","136","433393","0.0-136.0","E6FF23BB2EA34200A38C9F45A87B4191","019cf4e8-5d16-7471-bd8c-a7fb9b5b4803","019cf4c8-1de8-79ec-b3bd-d98520647593","","null","
                <div class=""stimulus-container"">
                    <img src=""images/schematic_sequence/restaurant_scheme/restaurant_scheme_8.png"" class=""exp-image"">
                    <div class=""question-area""></div> 
                </div>","null","","","","","","","","",""
"","","","","","html-button-response","137","434410","0.0-137.0","E6FF23BB2EA34200A38C9F45A87B4191","019cf4e8-5d16-7471-bd8c-a7fb9b5b4803","019cf4c8-1de8-79ec-b3bd-d98520647593","","1016","
                <div class=""stimulus-container"">
                    <img src=""images/schematic_sequence/restaurant_scheme/restaurant_scheme_8.png"" class=""exp-image"">
                    <div class=""question-area"">
                        <p style=""font-size: 20px; font-weight: bold; margin: 0;"">Is there a person in this image?</p>
                    </div>
                </div>","0","main_experiment_trial","8","restaurant_scheme","schematic_sequence","","","","",""
"","","","","","html-keyboard-response","138","439412","0.0-138.0","E6FF23BB2EA34200A38C9F45A87B4191","019cf4e8-5d16-7471-bd8c-a7fb9b5b4803","019cf4c8-1de8-79ec-b3bd-d98520647593","","null","
                <div class=""stimulus-container"">
                    <img src=""images/schematic_sequence/restaurant_scheme/restaurant_scheme_9.png"" class=""exp-image"">
                    <div class=""question-area""></div> 
                </div>","null","","","","","","","","",""
"","","","","","html-button-response","139","440183","0.0-139.0","E6FF23BB2EA34200A38C9F45A87B4191","019cf4e8-5d16-7471-bd8c-a7fb9b5b4803","019cf4c8-1de8-79ec-b3bd-d98520647593","","770","
                <div class=""stimulus-container"">
                    <img src=""images/schematic_sequence/restaurant_scheme/restaurant_scheme_9.png"" class=""exp-image"">
                    <div class=""question-area"">
                        <p style=""font-size: 20px; font-weight: bold; margin: 0;"">Is there a person in this image?</p>
                    </div>
                </div>","0","main_experiment_trial","9","restaurant_scheme","schematic_sequence","","","","",""
"","","","","","html-keyboard-response","140","445191","0.0-140.0","E6FF23BB2EA34200A38C9F45A87B4191","019cf4e8-5d16-7471-bd8c-a7fb9b5b4803","019cf4c8-1de8-79ec-b3bd-d98520647593","","null","
                <div class=""stimulus-container"">
                    <img src=""images/schematic_sequence/restaurant_scheme/restaurant_scheme_ten.png"" class=""exp-image"">
                    <div class=""question-area""></div> 
                </div>","null","","","","","","","","",""
"","","","","","html-button-response","141","445708","0.0-141.0","E6FF23BB2EA34200A38C9F45A87B4191","019cf4e8-5d16-7471-bd8c-a7fb9b5b4803","019cf4c8-1de8-79ec-b3bd-d98520647593","","516","
                <div class=""stimulus-container"">
                    <img src=""images/schematic_sequence/restaurant_scheme/restaurant_scheme_ten.png"" class=""exp-image"">
                    <div class=""question-area"">
                        <p style=""font-size: 20px; font-weight: bold; margin: 0;"">Is there a person in this image?</p>
                    </div>
                </div>","0","main_experiment_trial","ten","restaurant_scheme","schematic_sequence","","","","",""
"","","","","","html-keyboard-response","142","446709","0.0-142.0","E6FF23BB2EA34200A38C9F45A87B4191","019cf4e8-5d16-7471-bd8c-a7fb9b5b4803","019cf4c8-1de8-79ec-b3bd-d98520647593","","null","<div style=""background-color: white; width: 100vw; height: 100vh;""></div>","null","","","","","","","","",""
"","","","","","html-keyboard-response","143","451712","0.0-143.0","E6FF23BB2EA34200A38C9F45A87B4191","019cf4e8-5d16-7471-bd8c-a7fb9b5b4803","019cf4c8-1de8-79ec-b3bd-d98520647593","","null","
                <div class=""stimulus-container"">
                    <img src=""images/causal_sequence/dog_causal/dog_causal_1.png"" class=""exp-image"">
                    <div class=""question-area""></div> 
                </div>","null","","","","","","","","",""
"","","","","","html-button-response","144","452623","0.0-144.0","E6FF23BB2EA34200A38C9F45A87B4191","019cf4e8-5d16-7471-bd8c-a7fb9b5b4803","019cf4c8-1de8-79ec-b3bd-d98520647593","","910","
                <div class=""stimulus-container"">
                    <img src=""images/causal_sequence/dog_causal/dog_causal_1.png"" class=""exp-image"">
                    <div class=""question-area"">
                        <p style=""font-size: 20px; font-weight: bold; margin: 0;"">Is there a person in this image?</p>
                    </div>
                </div>","0","main_experiment_trial","1","dog_causal","causal_sequence","","","","",""
"","","","","","html-keyboard-response","145","457627","0.0-145.0","E6FF23BB2EA34200A38C9F45A87B4191","019cf4e8-5d16-7471-bd8c-a7fb9b5b4803","019cf4c8-1de8-79ec-b3bd-d98520647593","","null","
                <div class=""stimulus-container"">
                    <img src=""images/causal_sequence/dog_causal/dog_causal_2.png"" class=""exp-image"">
                    <div class=""question-area""></div> 
                </div>","null","","","","","","","","",""
"","","","","","html-button-response","146","458335","0.0-146.0","E6FF23BB2EA34200A38C9F45A87B4191","019cf4e8-5d16-7471-bd8c-a7fb9b5b4803","019cf4c8-1de8-79ec-b3bd-d98520647593","","707","
                <div class=""stimulus-container"">
                    <img src=""images/causal_sequence/dog_causal/dog_causal_2.png"" class=""exp-image"">
                    <div class=""question-area"">
                        <p style=""font-size: 20px; font-weight: bold; margin: 0;"">Is there a person in this image?</p>
                    </div>
                </div>","0","main_experiment_trial","2","dog_causal","causal_sequence","","","","",""
"","","","","","html-keyboard-response","147","463341","0.0-147.0","E6FF23BB2EA34200A38C9F45A87B4191","019cf4e8-5d16-7471-bd8c-a7fb9b5b4803","019cf4c8-1de8-79ec-b3bd-d98520647593","","null","
                <div class=""stimulus-container"">
                    <img src=""images/causal_sequence/dog_causal/dog_causal_3.png"" class=""exp-image"">
                    <div class=""question-area""></div> 
                </div>","null","","","","","","","","",""
"","","","","","html-button-response","148","464426","0.0-148.0","E6FF23BB2EA34200A38C9F45A87B4191","019cf4e8-5d16-7471-bd8c-a7fb9b5b4803","019cf4c8-1de8-79ec-b3bd-d98520647593","","1084","
                <div class=""stimulus-container"">
                    <img src=""images/causal_sequence/dog_causal/dog_causal_3.png"" class=""exp-image"">
                    <div class=""question-area"">
                        <p style=""font-size: 20px; font-weight: bold; margin: 0;"">Is there a person in this image?</p>
                    </div>
                </div>","0","main_experiment_trial","3","dog_causal","causal_sequence","","","","",""
"","","","","","html-keyboard-response","149","469439","0.0-149.0","E6FF23BB2EA34200A38C9F45A87B4191","019cf4e8-5d16-7471-bd8c-a7fb9b5b4803","019cf4c8-1de8-79ec-b3bd-d98520647593","","null","
                <div class=""stimulus-container"">
                    <img src=""images/causal_sequence/dog_causal/dog_causal_4.png"" class=""exp-image"">
                    <div class=""question-area""></div> 
                </div>","null","","","","","","","","",""
"","","","","","html-button-response","150","470142","0.0-150.0","E6FF23BB2EA34200A38C9F45A87B4191","019cf4e8-5d16-7471-bd8c-a7fb9b5b4803","019cf4c8-1de8-79ec-b3bd-d98520647593","","702","
                <div class=""stimulus-container"">
                    <img src=""images/causal_sequence/dog_causal/dog_causal_4.png"" class=""exp-image"">
                    <div class=""question-area"">
                        <p style=""font-size: 20px; font-weight: bold; margin: 0;"">Is there a person in this image?</p>
                    </div>
                </div>","0","main_experiment_trial","4","dog_causal","causal_sequence","","","","",""
"","","","","","html-keyboard-response","151","475156","0.0-151.0","E6FF23BB2EA34200A38C9F45A87B4191","019cf4e8-5d16-7471-bd8c-a7fb9b5b4803","019cf4c8-1de8-79ec-b3bd-d98520647593","","null","
                <div class=""stimulus-container"">
                    <img src=""images/causal_sequence/dog_causal/dog_causal_5.png"" class=""exp-image"">
                    <div class=""question-area""></div> 
                </div>","null","","","","","","","","",""
"","","","","","html-button-response","152","475954","0.0-152.0","E6FF23BB2EA34200A38C9F45A87B4191","019cf4e8-5d16-7471-bd8c-a7fb9b5b4803","019cf4c8-1de8-79ec-b3bd-d98520647593","","796","
                <div class=""stimulus-container"">
                    <img src=""images/causal_sequence/dog_causal/dog_causal_5.png"" class=""exp-image"">
                    <div class=""question-area"">
                        <p style=""font-size: 20px; font-weight: bold; margin: 0;"">Is there a person in this image?</p>
                    </div>
                </div>","0","main_experiment_trial","5","dog_causal","causal_sequence","","","","",""
"","","","","","html-keyboard-response","153","480959","0.0-153.0","E6FF23BB2EA34200A38C9F45A87B4191","019cf4e8-5d16-7471-bd8c-a7fb9b5b4803","019cf4c8-1de8-79ec-b3bd-d98520647593","","null","
                <div class=""stimulus-container"">
                    <img src=""images/causal_sequence/dog_causal/dog_causal_6.png"" class=""exp-image"">
                    <div class=""question-area""></div> 
                </div>","null","","","","","","","","",""
"","","","","","html-button-response","154","482087","0.0-154.0","E6FF23BB2EA34200A38C9F45A87B4191","019cf4e8-5d16-7471-bd8c-a7fb9b5b4803","019cf4c8-1de8-79ec-b3bd-d98520647593","","1127","
                <div class=""stimulus-container"">
                    <img src=""images/causal_sequence/dog_causal/dog_causal_6.png"" class=""exp-image"">
                    <div class=""question-area"">
                        <p style=""font-size: 20px; font-weight: bold; margin: 0;"">Is there a person in this image?</p>
                    </div>
                </div>","0","main_experiment_trial","6","dog_causal","causal_sequence","","","","",""
"","","","","","html-keyboard-response","155","487094","0.0-155.0","E6FF23BB2EA34200A38C9F45A87B4191","019cf4e8-5d16-7471-bd8c-a7fb9b5b4803","019cf4c8-1de8-79ec-b3bd-d98520647593","","null","
                <div class=""stimulus-container"">
                    <img src=""images/causal_sequence/dog_causal/dog_causal_7.png"" class=""exp-image"">
                    <div class=""question-area""></div> 
                </div>","null","","","","","","","","",""
"","","","","","html-button-response","156","488209","0.0-156.0","E6FF23BB2EA34200A38C9F45A87B4191","019cf4e8-5d16-7471-bd8c-a7fb9b5b4803","019cf4c8-1de8-79ec-b3bd-d98520647593","","1114","
                <div class=""stimulus-container"">
                    <img src=""images/causal_sequence/dog_causal/dog_causal_7.png"" class=""exp-image"">
                    <div class=""question-area"">
                        <p style=""font-size: 20px; font-weight: bold; margin: 0;"">Is there a person in this image?</p>
                    </div>
                </div>","0","main_experiment_trial","7","dog_causal","causal_sequence","","","","",""
"","","","","","html-keyboard-response","157","493226","0.0-157.0","E6FF23BB2EA34200A38C9F45A87B4191","019cf4e8-5d16-7471-bd8c-a7fb9b5b4803","019cf4c8-1de8-79ec-b3bd-d98520647593","","null","
                <div class=""stimulus-container"">
                    <img src=""images/causal_sequence/dog_causal/dog_causal_8.png"" class=""exp-image"">
                    <div class=""question-area""></div> 
                </div>","null","","","","","","","","",""
"","","","","","html-button-response","158","494666","0.0-158.0","E6FF23BB2EA34200A38C9F45A87B4191","019cf4e8-5d16-7471-bd8c-a7fb9b5b4803","019cf4c8-1de8-79ec-b3bd-d98520647593","","1438","
                <div class=""stimulus-container"">
                    <img src=""images/causal_sequence/dog_causal/dog_causal_8.png"" class=""exp-image"">
                    <div class=""question-area"">
                        <p style=""font-size: 20px; font-weight: bold; margin: 0;"">Is there a person in this image?</p>
                    </div>
                </div>","0","main_experiment_trial","8","dog_causal","causal_sequence","","","","",""
"","","","","","html-keyboard-response","159","499675","0.0-159.0","E6FF23BB2EA34200A38C9F45A87B4191","019cf4e8-5d16-7471-bd8c-a7fb9b5b4803","019cf4c8-1de8-79ec-b3bd-d98520647593","","null","
                <div class=""stimulus-container"">
                    <img src=""images/causal_sequence/dog_causal/dog_causal_9.png"" class=""exp-image"">
                    <div class=""question-area""></div> 
                </div>","null","","","","","","","","",""
"","","","","","html-button-response","160","501023","0.0-160.0","E6FF23BB2EA34200A38C9F45A87B4191","019cf4e8-5d16-7471-bd8c-a7fb9b5b4803","019cf4c8-1de8-79ec-b3bd-d98520647593","","1346","
                <div class=""stimulus-container"">
                    <img src=""images/causal_sequence/dog_causal/dog_causal_9.png"" class=""exp-image"">
                    <div class=""question-area"">
                        <p style=""font-size: 20px; font-weight: bold; margin: 0;"">Is there a person in this image?</p>
                    </div>
                </div>","0","main_experiment_trial","9","dog_causal","causal_sequence","","","","",""
"","","","","","html-keyboard-response","161","506027","0.0-161.0","E6FF23BB2EA34200A38C9F45A87B4191","019cf4e8-5d16-7471-bd8c-a7fb9b5b4803","019cf4c8-1de8-79ec-b3bd-d98520647593","","null","
                <div class=""stimulus-container"">
                    <img src=""images/causal_sequence/dog_causal/dog_causal_ten.png"" class=""exp-image"">
                    <div class=""question-area""></div> 
                </div>","null","","","","","","","","",""
"","","","","","html-button-response","162","506822","0.0-162.0","E6FF23BB2EA34200A38C9F45A87B4191","019cf4e8-5d16-7471-bd8c-a7fb9b5b4803","019cf4c8-1de8-79ec-b3bd-d98520647593","","793","
                <div class=""stimulus-container"">
                    <img src=""images/causal_sequence/dog_causal/dog_causal_ten.png"" class=""exp-image"">
                    <div class=""question-area"">
                        <p style=""font-size: 20px; font-weight: bold; margin: 0;"">Is there a person in this image?</p>
                    </div>
                </div>","0","main_experiment_trial","ten","dog_causal","causal_sequence","","","","",""
"","","","","","html-keyboard-response","163","507824","0.0-163.0","E6FF23BB2EA34200A38C9F45A87B4191","019cf4e8-5d16-7471-bd8c-a7fb9b5b4803","019cf4c8-1de8-79ec-b3bd-d98520647593","","null","<div style=""background-color: white; width: 100vw; height: 100vh;""></div>","null","","","","","","","","",""
"","","","","","html-keyboard-response","164","512827","0.0-164.0","E6FF23BB2EA34200A38C9F45A87B4191","019cf4e8-5d16-7471-bd8c-a7fb9b5b4803","019cf4c8-1de8-79ec-b3bd-d98520647593","","null","
                <div class=""stimulus-container"">
                    <img src=""images/causal_sequence/coin_causal/coin_causal_1.png"" class=""exp-image"">
                    <div class=""question-area""></div> 
                </div>","null","","","","","","","","",""
"","","","","","html-button-response","165","513613","0.0-165.0","E6FF23BB2EA34200A38C9F45A87B4191","019cf4e8-5d16-7471-bd8c-a7fb9b5b4803","019cf4c8-1de8-79ec-b3bd-d98520647593","","785","
                <div class=""stimulus-container"">
                    <img src=""images/causal_sequence/coin_causal/coin_causal_1.png"" class=""exp-image"">
                    <div class=""question-area"">
                        <p style=""font-size: 20px; font-weight: bold; margin: 0;"">Is there a person in this image?</p>
                    </div>
                </div>","0","main_experiment_trial","1","coin_causal","causal_sequence","","","","",""
"","","","","","html-keyboard-response","166","518628","0.0-166.0","E6FF23BB2EA34200A38C9F45A87B4191","019cf4e8-5d16-7471-bd8c-a7fb9b5b4803","019cf4c8-1de8-79ec-b3bd-d98520647593","","null","
                <div class=""stimulus-container"">
                    <img src=""images/causal_sequence/coin_causal/coin_causal_2.png"" class=""exp-image"">
                    <div class=""question-area""></div> 
                </div>","null","","","","","","","","",""
"","","","","","html-button-response","167","519533","0.0-167.0","E6FF23BB2EA34200A38C9F45A87B4191","019cf4e8-5d16-7471-bd8c-a7fb9b5b4803","019cf4c8-1de8-79ec-b3bd-d98520647593","","903","
                <div class=""stimulus-container"">
                    <img src=""images/causal_sequence/coin_causal/coin_causal_2.png"" class=""exp-image"">
                    <div class=""question-area"">
                        <p style=""font-size: 20px; font-weight: bold; margin: 0;"">Is there a person in this image?</p>
                    </div>
                </div>","0","main_experiment_trial","2","coin_causal","causal_sequence","","","","",""
"","","","","","html-keyboard-response","168","524545","0.0-168.0","E6FF23BB2EA34200A38C9F45A87B4191","019cf4e8-5d16-7471-bd8c-a7fb9b5b4803","019cf4c8-1de8-79ec-b3bd-d98520647593","","null","
                <div class=""stimulus-container"">
                    <img src=""images/causal_sequence/coin_causal/coin_causal_3.png"" class=""exp-image"">
                    <div class=""question-area""></div> 
                </div>","null","","","","","","","","",""
"","","","","","html-button-response","169","525538","0.0-169.0","E6FF23BB2EA34200A38C9F45A87B4191","019cf4e8-5d16-7471-bd8c-a7fb9b5b4803","019cf4c8-1de8-79ec-b3bd-d98520647593","","992","
                <div class=""stimulus-container"">
                    <img src=""images/causal_sequence/coin_causal/coin_causal_3.png"" class=""exp-image"">
                    <div class=""question-area"">
                        <p style=""font-size: 20px; font-weight: bold; margin: 0;"">Is there a person in this image?</p>
                    </div>
                </div>","0","main_experiment_trial","3","coin_causal","causal_sequence","","","","",""
"","","","","","html-keyboard-response","170","530543","0.0-170.0","E6FF23BB2EA34200A38C9F45A87B4191","019cf4e8-5d16-7471-bd8c-a7fb9b5b4803","019cf4c8-1de8-79ec-b3bd-d98520647593","","null","
                <div class=""stimulus-container"">
                    <img src=""images/causal_sequence/coin_causal/coin_causal_4.png"" class=""exp-image"">
                    <div class=""question-area""></div> 
                </div>","null","","","","","","","","",""
"","","","","","html-button-response","171","531336","0.0-171.0","E6FF23BB2EA34200A38C9F45A87B4191","019cf4e8-5d16-7471-bd8c-a7fb9b5b4803","019cf4c8-1de8-79ec-b3bd-d98520647593","","791","
                <div class=""stimulus-container"">
                    <img src=""images/causal_sequence/coin_causal/coin_causal_4.png"" class=""exp-image"">
                    <div class=""question-area"">
                        <p style=""font-size: 20px; font-weight: bold; margin: 0;"">Is there a person in this image?</p>
                    </div>
                </div>","0","main_experiment_trial","4","coin_causal","causal_sequence","","","","",""
"","","","","","html-keyboard-response","172","536344","0.0-172.0","E6FF23BB2EA34200A38C9F45A87B4191","019cf4e8-5d16-7471-bd8c-a7fb9b5b4803","019cf4c8-1de8-79ec-b3bd-d98520647593","","null","
                <div class=""stimulus-container"">
                    <img src=""images/causal_sequence/coin_causal/coin_causal_5.png"" class=""exp-image"">
                    <div class=""question-area""></div> 
                </div>","null","","","","","","","","",""
"","","","","","html-button-response","173","537042","0.0-173.0","E6FF23BB2EA34200A38C9F45A87B4191","019cf4e8-5d16-7471-bd8c-a7fb9b5b4803","019cf4c8-1de8-79ec-b3bd-d98520647593","","697","
                <div class=""stimulus-container"">
                    <img src=""images/causal_sequence/coin_causal/coin_causal_5.png"" class=""exp-image"">
                    <div class=""question-area"">
                        <p style=""font-size: 20px; font-weight: bold; margin: 0;"">Is there a person in this image?</p>
                    </div>
                </div>","0","main_experiment_trial","5","coin_causal","causal_sequence","","","","",""
"","","","","","html-keyboard-response","174","542058","0.0-174.0","E6FF23BB2EA34200A38C9F45A87B4191","019cf4e8-5d16-7471-bd8c-a7fb9b5b4803","019cf4c8-1de8-79ec-b3bd-d98520647593","","null","
                <div class=""stimulus-container"">
                    <img src=""images/causal_sequence/coin_causal/coin_causal_6.png"" class=""exp-image"">
                    <div class=""question-area""></div> 
                </div>","null","","","","","","","","",""
"","","","","","html-button-response","175","542853","0.0-175.0","E6FF23BB2EA34200A38C9F45A87B4191","019cf4e8-5d16-7471-bd8c-a7fb9b5b4803","019cf4c8-1de8-79ec-b3bd-d98520647593","","794","
                <div class=""stimulus-container"">
                    <img src=""images/causal_sequence/coin_causal/coin_causal_6.png"" class=""exp-image"">
                    <div class=""question-area"">
                        <p style=""font-size: 20px; font-weight: bold; margin: 0;"">Is there a person in this image?</p>
                    </div>
                </div>","0","main_experiment_trial","6","coin_causal","causal_sequence","","","","",""
"","","","","","html-keyboard-response","176","547858","0.0-176.0","E6FF23BB2EA34200A38C9F45A87B4191","019cf4e8-5d16-7471-bd8c-a7fb9b5b4803","019cf4c8-1de8-79ec-b3bd-d98520647593","","null","
                <div class=""stimulus-container"">
                    <img src=""images/causal_sequence/coin_causal/coin_causal_7.png"" class=""exp-image"">
                    <div class=""question-area""></div> 
                </div>","null","","","","","","","","",""
"","","","","","html-button-response","177","548607","0.0-177.0","E6FF23BB2EA34200A38C9F45A87B4191","019cf4e8-5d16-7471-bd8c-a7fb9b5b4803","019cf4c8-1de8-79ec-b3bd-d98520647593","","747","
                <div class=""stimulus-container"">
                    <img src=""images/causal_sequence/coin_causal/coin_causal_7.png"" class=""exp-image"">
                    <div class=""question-area"">
                        <p style=""font-size: 20px; font-weight: bold; margin: 0;"">Is there a person in this image?</p>
                    </div>
                </div>","1","main_experiment_trial","7","coin_causal","causal_sequence","","","","",""
"","","","","","html-keyboard-response","178","553609","0.0-178.0","E6FF23BB2EA34200A38C9F45A87B4191","019cf4e8-5d16-7471-bd8c-a7fb9b5b4803","019cf4c8-1de8-79ec-b3bd-d98520647593","","null","
                <div class=""stimulus-container"">
                    <img src=""images/causal_sequence/coin_causal/coin_causal_8.png"" class=""exp-image"">
                    <div class=""question-area""></div> 
                </div>","null","","","","","","","","",""
"","","","","","html-button-response","179","554684","0.0-179.0","E6FF23BB2EA34200A38C9F45A87B4191","019cf4e8-5d16-7471-bd8c-a7fb9b5b4803","019cf4c8-1de8-79ec-b3bd-d98520647593","","1074","
                <div class=""stimulus-container"">
                    <img src=""images/causal_sequence/coin_causal/coin_causal_8.png"" class=""exp-image"">
                    <div class=""question-area"">
                        <p style=""font-size: 20px; font-weight: bold; margin: 0;"">Is there a person in this image?</p>
                    </div>
                </div>","0","main_experiment_trial","8","coin_causal","causal_sequence","","","","",""
"","","","","","html-keyboard-response","180","559693","0.0-180.0","E6FF23BB2EA34200A38C9F45A87B4191","019cf4e8-5d16-7471-bd8c-a7fb9b5b4803","019cf4c8-1de8-79ec-b3bd-d98520647593","","null","
                <div class=""stimulus-container"">
                    <img src=""images/causal_sequence/coin_causal/coin_causal_9.png"" class=""exp-image"">
                    <div class=""question-area""></div> 
                </div>","null","","","","","","","","",""
"","","","","","html-button-response","181","560805","0.0-181.0","E6FF23BB2EA34200A38C9F45A87B4191","019cf4e8-5d16-7471-bd8c-a7fb9b5b4803","019cf4c8-1de8-79ec-b3bd-d98520647593","","1111","
                <div class=""stimulus-container"">
                    <img src=""images/causal_sequence/coin_causal/coin_causal_9.png"" class=""exp-image"">
                    <div class=""question-area"">
                        <p style=""font-size: 20px; font-weight: bold; margin: 0;"">Is there a person in this image?</p>
                    </div>
                </div>","0","main_experiment_trial","9","coin_causal","causal_sequence","","","","",""
"","","","","","html-keyboard-response","182","565811","0.0-182.0","E6FF23BB2EA34200A38C9F45A87B4191","019cf4e8-5d16-7471-bd8c-a7fb9b5b4803","019cf4c8-1de8-79ec-b3bd-d98520647593","","null","
                <div class=""stimulus-container"">
                    <img src=""images/causal_sequence/coin_causal/coin_causal_ten.png"" class=""exp-image"">
                    <div class=""question-area""></div> 
                </div>","null","","","","","","","","",""
"","","","","","html-button-response","183","566603","0.0-183.0","E6FF23BB2EA34200A38C9F45A87B4191","019cf4e8-5d16-7471-bd8c-a7fb9b5b4803","019cf4c8-1de8-79ec-b3bd-d98520647593","","792","
                <div class=""stimulus-container"">
                    <img src=""images/causal_sequence/coin_causal/coin_causal_ten.png"" class=""exp-image"">
                    <div class=""question-area"">
