"success","timeout","failed_images","failed_audio","failed_video","trial_type","trial_index","time_elapsed","internal_node_id","subject_id","study_id","session_id","view_history","rt","stimulus","response","task","image_index","folder","sequence_type","valuable_image_index","reward_type","chosen_image_index","target_X","correct_choice"
"true","false","[]","[]","[]","preload","0","68047","0.0-0.0","BA6C1D9C43874C819E719BAB94A94A51","019cf01e-9b41-7ed6-baf6-6e1287269f81","019ceff9-9f67-7034-9722-02cda2445e09","","","","","","","","","","","","",""
"","","","","","instructions","1","72584","0.0-1.0","BA6C1D9C43874C819E719BAB94A94A51","019cf01e-9b41-7ed6-baf6-6e1287269f81","019ceff9-9f67-7034-9722-02cda2445e09","[{""page_index"":0,""viewing_time"":4534}]","4534","","","","","","","","","","",""
"","","","","","instructions","2","75774","0.0-2.0","BA6C1D9C43874C819E719BAB94A94A51","019cf01e-9b41-7ed6-baf6-6e1287269f81","019ceff9-9f67-7034-9722-02cda2445e09","[{""page_index"":0,""viewing_time"":3185}]","3185","","","","","","","","","","",""
"true","","","","","fullscreen","3","79260","0.0-3.0","BA6C1D9C43874C819E719BAB94A94A51","019cf01e-9b41-7ed6-baf6-6e1287269f81","019ceff9-9f67-7034-9722-02cda2445e09","","2428","","","","","","","","","","",""
"","","","","","instructions","4","90590","0.0-4.0","BA6C1D9C43874C819E719BAB94A94A51","019cf01e-9b41-7ed6-baf6-6e1287269f81","019ceff9-9f67-7034-9722-02cda2445e09","[{""page_index"":0,""viewing_time"":11329}]","11330","","","","","","","","","","",""
"","","","","","instructions","5","98635","0.0-5.0","BA6C1D9C43874C819E719BAB94A94A51","019cf01e-9b41-7ed6-baf6-6e1287269f81","019ceff9-9f67-7034-9722-02cda2445e09","[{""page_index"":0,""viewing_time"":8043}]","8043","","","","","","","","","","",""
"","","","","","html-keyboard-response","6","102637","0.0-6.0","BA6C1D9C43874C819E719BAB94A94A51","019cf01e-9b41-7ed6-baf6-6e1287269f81","019ceff9-9f67-7034-9722-02cda2445e09","","null","
                <div class=""stimulus-container"">
                    <img src=""images/instructions/movie_1.png"" class=""exp-image"">
                    <div class=""question-area""></div> 
                </div>","null","","","","","","","","",""
"","","","","","html-button-response","7","105646","0.0-7.0","BA6C1D9C43874C819E719BAB94A94A51","019cf01e-9b41-7ed6-baf6-6e1287269f81","019ceff9-9f67-7034-9722-02cda2445e09","","null","
                <div class=""stimulus-container"">
                    <img src=""images/instructions/movie_1.png"" class=""exp-image"">
                    <div class=""question-area"">
                        <p style=""font-size: 20px; font-weight: bold; margin: 0;"">Was there a person in this image?</p>
                    </div>
                </div>","null","example_question","1","","","","","","",""
"","","","","","html-keyboard-response","8","109648","0.0-8.0","BA6C1D9C43874C819E719BAB94A94A51","019cf01e-9b41-7ed6-baf6-6e1287269f81","019ceff9-9f67-7034-9722-02cda2445e09","","null","
                <div class=""stimulus-container"">
                    <img src=""images/instructions/movie_2.png"" class=""exp-image"">
                    <div class=""question-area""></div> 
                </div>","null","","","","","","","","",""
"","","","","","html-button-response","9","111635","0.0-9.0","BA6C1D9C43874C819E719BAB94A94A51","019cf01e-9b41-7ed6-baf6-6e1287269f81","019ceff9-9f67-7034-9722-02cda2445e09","","1971","
                <div class=""stimulus-container"">
                    <img src=""images/instructions/movie_2.png"" class=""exp-image"">
                    <div class=""question-area"">
                        <p style=""font-size: 20px; font-weight: bold; margin: 0;"">Was there a person in this image?</p>
                    </div>
                </div>","1","example_question","2","","","","","","",""
"","","","","","html-keyboard-response","10","115638","0.0-10.0","BA6C1D9C43874C819E719BAB94A94A51","019cf01e-9b41-7ed6-baf6-6e1287269f81","019ceff9-9f67-7034-9722-02cda2445e09","","null","
                <div class=""stimulus-container"">
                    <img src=""images/instructions/movie_3.png"" class=""exp-image"">
                    <div class=""question-area""></div> 
                </div>","null","","","","","","","","",""
"","","","","","html-button-response","11","116733","0.0-11.0","BA6C1D9C43874C819E719BAB94A94A51","019cf01e-9b41-7ed6-baf6-6e1287269f81","019ceff9-9f67-7034-9722-02cda2445e09","","1094","
                <div class=""stimulus-container"">
                    <img src=""images/instructions/movie_3.png"" class=""exp-image"">
                    <div class=""question-area"">
                        <p style=""font-size: 20px; font-weight: bold; margin: 0;"">Was there a person in this image?</p>
                    </div>
                </div>","0","example_question","3","","","","","","",""
"","","","","","html-keyboard-response","12","120735","0.0-12.0","BA6C1D9C43874C819E719BAB94A94A51","019cf01e-9b41-7ed6-baf6-6e1287269f81","019ceff9-9f67-7034-9722-02cda2445e09","","null","
                <div class=""stimulus-container"">
                    <img src=""images/instructions/movie_4.png"" class=""exp-image"">
                    <div class=""question-area""></div> 
                </div>","null","","","","","","","","",""
"","","","","","html-button-response","13","121537","0.0-13.0","BA6C1D9C43874C819E719BAB94A94A51","019cf01e-9b41-7ed6-baf6-6e1287269f81","019ceff9-9f67-7034-9722-02cda2445e09","","800","
                <div class=""stimulus-container"">
                    <img src=""images/instructions/movie_4.png"" class=""exp-image"">
                    <div class=""question-area"">
                        <p style=""font-size: 20px; font-weight: bold; margin: 0;"">Was there a person in this image?</p>
                    </div>
                </div>","0","example_question","4","","","","","","",""
"","","","","","instructions","14","125807","0.0-14.0","BA6C1D9C43874C819E719BAB94A94A51","019cf01e-9b41-7ed6-baf6-6e1287269f81","019ceff9-9f67-7034-9722-02cda2445e09","[{""page_index"":0,""viewing_time"":4268}]","4269","","","","","","","","","","",""
"","","","","","instructions","15","130836","0.0-15.0","BA6C1D9C43874C819E719BAB94A94A51","019cf01e-9b41-7ed6-baf6-6e1287269f81","019ceff9-9f67-7034-9722-02cda2445e09","[{""page_index"":0,""viewing_time"":5027}]","5028","","","","","","","","","","",""
"","","","","","html-keyboard-response","16","131837","0.0-16.0","BA6C1D9C43874C819E719BAB94A94A51","019cf01e-9b41-7ed6-baf6-6e1287269f81","019ceff9-9f67-7034-9722-02cda2445e09","","null","<div style=""background-color: white; width: 100vw; height: 100vh;""></div>","null","","","","","","","","",""
"","","","","","html-keyboard-response","17","136839","0.0-17.0","BA6C1D9C43874C819E719BAB94A94A51","019cf01e-9b41-7ed6-baf6-6e1287269f81","019ceff9-9f67-7034-9722-02cda2445e09","","null","
                <div class=""stimulus-container"">
                    <img src=""images/causal_sequence/museum_causal/museum_causal_1.png"" class=""exp-image"">
                    <div class=""question-area""></div> 
                </div>","null","","","","","","","","",""
"","","","","","html-button-response","18","137657","0.0-18.0","BA6C1D9C43874C819E719BAB94A94A51","019cf01e-9b41-7ed6-baf6-6e1287269f81","019ceff9-9f67-7034-9722-02cda2445e09","","815","
                <div class=""stimulus-container"">
                    <img src=""images/causal_sequence/museum_causal/museum_causal_1.png"" class=""exp-image"">
                    <div class=""question-area"">
                        <p style=""font-size: 20px; font-weight: bold; margin: 0;"">Is there a person in this image?</p>
                    </div>
                </div>","0","main_experiment_trial","1","museum_causal","causal_sequence","","","","",""
"","","","","","html-keyboard-response","19","142659","0.0-19.0","BA6C1D9C43874C819E719BAB94A94A51","019cf01e-9b41-7ed6-baf6-6e1287269f81","019ceff9-9f67-7034-9722-02cda2445e09","","null","
                <div class=""stimulus-container"">
                    <img src=""images/causal_sequence/museum_causal/museum_causal_2.png"" class=""exp-image"">
                    <div class=""question-area""></div> 
                </div>","null","","","","","","","","",""
"","","","","","html-button-response","20","144166","0.0-20.0","BA6C1D9C43874C819E719BAB94A94A51","019cf01e-9b41-7ed6-baf6-6e1287269f81","019ceff9-9f67-7034-9722-02cda2445e09","","1504","
                <div class=""stimulus-container"">
                    <img src=""images/causal_sequence/museum_causal/museum_causal_2.png"" class=""exp-image"">
                    <div class=""question-area"">
                        <p style=""font-size: 20px; font-weight: bold; margin: 0;"">Is there a person in this image?</p>
                    </div>
                </div>","1","main_experiment_trial","2","museum_causal","causal_sequence","","","","",""
"","","","","","html-keyboard-response","21","149168","0.0-21.0","BA6C1D9C43874C819E719BAB94A94A51","019cf01e-9b41-7ed6-baf6-6e1287269f81","019ceff9-9f67-7034-9722-02cda2445e09","","null","
                <div class=""stimulus-container"">
                    <img src=""images/causal_sequence/museum_causal/museum_causal_3.png"" class=""exp-image"">
                    <div class=""question-area""></div> 
                </div>","null","","","","","","","","",""
"","","","","","html-button-response","22","150222","0.0-22.0","BA6C1D9C43874C819E719BAB94A94A51","019cf01e-9b41-7ed6-baf6-6e1287269f81","019ceff9-9f67-7034-9722-02cda2445e09","","1053","
                <div class=""stimulus-container"">
                    <img src=""images/causal_sequence/museum_causal/museum_causal_3.png"" class=""exp-image"">
                    <div class=""question-area"">
                        <p style=""font-size: 20px; font-weight: bold; margin: 0;"">Is there a person in this image?</p>
                    </div>
                </div>","0","main_experiment_trial","3","museum_causal","causal_sequence","","","","",""
"","","","","","html-keyboard-response","23","155229","0.0-23.0","BA6C1D9C43874C819E719BAB94A94A51","019cf01e-9b41-7ed6-baf6-6e1287269f81","019ceff9-9f67-7034-9722-02cda2445e09","","null","
                <div class=""stimulus-container"">
                    <img src=""images/causal_sequence/museum_causal/museum_causal_4.png"" class=""exp-image"">
                    <div class=""question-area""></div> 
                </div>","null","","","","","","","","",""
"","","","","","html-button-response","24","155825","0.0-24.0","BA6C1D9C43874C819E719BAB94A94A51","019cf01e-9b41-7ed6-baf6-6e1287269f81","019ceff9-9f67-7034-9722-02cda2445e09","","593","
                <div class=""stimulus-container"">
                    <img src=""images/causal_sequence/museum_causal/museum_causal_4.png"" class=""exp-image"">
                    <div class=""question-area"">
                        <p style=""font-size: 20px; font-weight: bold; margin: 0;"">Is there a person in this image?</p>
                    </div>
                </div>","1","main_experiment_trial","4","museum_causal","causal_sequence","","","","",""
"","","","","","html-keyboard-response","25","160827","0.0-25.0","BA6C1D9C43874C819E719BAB94A94A51","019cf01e-9b41-7ed6-baf6-6e1287269f81","019ceff9-9f67-7034-9722-02cda2445e09","","null","
                <div class=""stimulus-container"">
                    <img src=""images/causal_sequence/museum_causal/museum_causal_5.png"" class=""exp-image"">
                    <div class=""question-area""></div> 
                </div>","null","","","","","","","","",""
"","","","","","html-button-response","26","161919","0.0-26.0","BA6C1D9C43874C819E719BAB94A94A51","019cf01e-9b41-7ed6-baf6-6e1287269f81","019ceff9-9f67-7034-9722-02cda2445e09","","1089","
                <div class=""stimulus-container"">
                    <img src=""images/causal_sequence/museum_causal/museum_causal_5.png"" class=""exp-image"">
                    <div class=""question-area"">
                        <p style=""font-size: 20px; font-weight: bold; margin: 0;"">Is there a person in this image?</p>
                    </div>
                </div>","0","main_experiment_trial","5","museum_causal","causal_sequence","","","","",""
"","","","","","html-keyboard-response","27","166921","0.0-27.0","BA6C1D9C43874C819E719BAB94A94A51","019cf01e-9b41-7ed6-baf6-6e1287269f81","019ceff9-9f67-7034-9722-02cda2445e09","","null","
                <div class=""stimulus-container"">
                    <img src=""images/causal_sequence/museum_causal/museum_causal_6.png"" class=""exp-image"">
                    <div class=""question-area""></div> 
                </div>","null","","","","","","","","",""
"","","","","","html-button-response","28","167660","0.0-28.0","BA6C1D9C43874C819E719BAB94A94A51","019cf01e-9b41-7ed6-baf6-6e1287269f81","019ceff9-9f67-7034-9722-02cda2445e09","","737","
                <div class=""stimulus-container"">
                    <img src=""images/causal_sequence/museum_causal/museum_causal_6.png"" class=""exp-image"">
                    <div class=""question-area"">
                        <p style=""font-size: 20px; font-weight: bold; margin: 0;"">Is there a person in this image?</p>
                    </div>
                </div>","0","main_experiment_trial","6","museum_causal","causal_sequence","","","","",""
"","","","","","html-keyboard-response","29","172663","0.0-29.0","BA6C1D9C43874C819E719BAB94A94A51","019cf01e-9b41-7ed6-baf6-6e1287269f81","019ceff9-9f67-7034-9722-02cda2445e09","","null","
                <div class=""stimulus-container"">
                    <img src=""images/causal_sequence/museum_causal/museum_causal_7.png"" class=""exp-image"">
                    <div class=""question-area""></div> 
                </div>","null","","","","","","","","",""
"","","","","","html-button-response","30","173457","0.0-30.0","BA6C1D9C43874C819E719BAB94A94A51","019cf01e-9b41-7ed6-baf6-6e1287269f81","019ceff9-9f67-7034-9722-02cda2445e09","","793","
                <div class=""stimulus-container"">
                    <img src=""images/causal_sequence/museum_causal/museum_causal_7.png"" class=""exp-image"">
                    <div class=""question-area"">
                        <p style=""font-size: 20px; font-weight: bold; margin: 0;"">Is there a person in this image?</p>
                    </div>
                </div>","1","main_experiment_trial","7","museum_causal","causal_sequence","","","","",""
"","","","","","html-keyboard-response","31","178459","0.0-31.0","BA6C1D9C43874C819E719BAB94A94A51","019cf01e-9b41-7ed6-baf6-6e1287269f81","019ceff9-9f67-7034-9722-02cda2445e09","","null","
                <div class=""stimulus-container"">
                    <img src=""images/causal_sequence/museum_causal/museum_causal_8.png"" class=""exp-image"">
                    <div class=""question-area""></div> 
                </div>","null","","","","","","","","",""
"","","","","","html-button-response","32","179783","0.0-32.0","BA6C1D9C43874C819E719BAB94A94A51","019cf01e-9b41-7ed6-baf6-6e1287269f81","019ceff9-9f67-7034-9722-02cda2445e09","","1321","
                <div class=""stimulus-container"">
                    <img src=""images/causal_sequence/museum_causal/museum_causal_8.png"" class=""exp-image"">
                    <div class=""question-area"">
                        <p style=""font-size: 20px; font-weight: bold; margin: 0;"">Is there a person in this image?</p>
                    </div>
                </div>","0","main_experiment_trial","8","museum_causal","causal_sequence","","","","",""
"","","","","","html-keyboard-response","33","184785","0.0-33.0","BA6C1D9C43874C819E719BAB94A94A51","019cf01e-9b41-7ed6-baf6-6e1287269f81","019ceff9-9f67-7034-9722-02cda2445e09","","null","
                <div class=""stimulus-container"">
                    <img src=""images/causal_sequence/museum_causal/museum_causal_9.png"" class=""exp-image"">
                    <div class=""question-area""></div> 
                </div>","null","","","","","","","","",""
"","","","","","html-button-response","34","185628","0.0-34.0","BA6C1D9C43874C819E719BAB94A94A51","019cf01e-9b41-7ed6-baf6-6e1287269f81","019ceff9-9f67-7034-9722-02cda2445e09","","842","
                <div class=""stimulus-container"">
                    <img src=""images/causal_sequence/museum_causal/museum_causal_9.png"" class=""exp-image"">
                    <div class=""question-area"">
                        <p style=""font-size: 20px; font-weight: bold; margin: 0;"">Is there a person in this image?</p>
                    </div>
                </div>","1","main_experiment_trial","9","museum_causal","causal_sequence","","","","",""
"","","","","","html-keyboard-response","35","190630","0.0-35.0","BA6C1D9C43874C819E719BAB94A94A51","019cf01e-9b41-7ed6-baf6-6e1287269f81","019ceff9-9f67-7034-9722-02cda2445e09","","null","
                <div class=""stimulus-container"">
                    <img src=""images/causal_sequence/museum_causal/museum_causal_ten.png"" class=""exp-image"">
                    <div class=""question-area""></div> 
                </div>","null","","","","","","","","",""
"","","","","","html-button-response","36","191121","0.0-36.0","BA6C1D9C43874C819E719BAB94A94A51","019cf01e-9b41-7ed6-baf6-6e1287269f81","019ceff9-9f67-7034-9722-02cda2445e09","","489","
                <div class=""stimulus-container"">
                    <img src=""images/causal_sequence/museum_causal/museum_causal_ten.png"" class=""exp-image"">
                    <div class=""question-area"">
                        <p style=""font-size: 20px; font-weight: bold; margin: 0;"">Is there a person in this image?</p>
                    </div>
                </div>","0","main_experiment_trial","ten","museum_causal","causal_sequence","","","","",""
"","","","","","html-keyboard-response","37","192124","0.0-37.0","BA6C1D9C43874C819E719BAB94A94A51","019cf01e-9b41-7ed6-baf6-6e1287269f81","019ceff9-9f67-7034-9722-02cda2445e09","","null","<div style=""background-color: white; width: 100vw; height: 100vh;""></div>","null","","","","","","","","",""
"","","","","","html-keyboard-response","38","197126","0.0-38.0","BA6C1D9C43874C819E719BAB94A94A51","019cf01e-9b41-7ed6-baf6-6e1287269f81","019ceff9-9f67-7034-9722-02cda2445e09","","null","
                <div class=""stimulus-container"">
                    <img src=""images/schematic_sequence/supermarket_scheme/supermarket_scheme_1.png"" class=""exp-image"">
                    <div class=""question-area""></div> 
                </div>","null","","","","","","","","",""
"","","","","","html-button-response","39","198099","0.0-39.0","BA6C1D9C43874C819E719BAB94A94A51","019cf01e-9b41-7ed6-baf6-6e1287269f81","019ceff9-9f67-7034-9722-02cda2445e09","","972","
                <div class=""stimulus-container"">
                    <img src=""images/schematic_sequence/supermarket_scheme/supermarket_scheme_1.png"" class=""exp-image"">
                    <div class=""question-area"">
                        <p style=""font-size: 20px; font-weight: bold; margin: 0;"">Is there a person in this image?</p>
                    </div>
                </div>","1","main_experiment_trial","1","supermarket_scheme","schematic_sequence","","","","",""
"","","","","","html-keyboard-response","40","203101","0.0-40.0","BA6C1D9C43874C819E719BAB94A94A51","019cf01e-9b41-7ed6-baf6-6e1287269f81","019ceff9-9f67-7034-9722-02cda2445e09","","null","
                <div class=""stimulus-container"">
                    <img src=""images/schematic_sequence/supermarket_scheme/supermarket_scheme_2.png"" class=""exp-image"">
                    <div class=""question-area""></div> 
                </div>","null","","","","","","","","",""
"","","","","","html-button-response","41","203948","0.0-41.0","BA6C1D9C43874C819E719BAB94A94A51","019cf01e-9b41-7ed6-baf6-6e1287269f81","019ceff9-9f67-7034-9722-02cda2445e09","","845","
                <div class=""stimulus-container"">
                    <img src=""images/schematic_sequence/supermarket_scheme/supermarket_scheme_2.png"" class=""exp-image"">
                    <div class=""question-area"">
                        <p style=""font-size: 20px; font-weight: bold; margin: 0;"">Is there a person in this image?</p>
                    </div>
                </div>","1","main_experiment_trial","2","supermarket_scheme","schematic_sequence","","","","",""
"","","","","","html-keyboard-response","42","208950","0.0-42.0","BA6C1D9C43874C819E719BAB94A94A51","019cf01e-9b41-7ed6-baf6-6e1287269f81","019ceff9-9f67-7034-9722-02cda2445e09","","null","
                <div class=""stimulus-container"">
                    <img src=""images/schematic_sequence/supermarket_scheme/supermarket_scheme_3.png"" class=""exp-image"">
                    <div class=""question-area""></div> 
                </div>","null","","","","","","","","",""
"","","","","","html-button-response","43","209553","0.0-43.0","BA6C1D9C43874C819E719BAB94A94A51","019cf01e-9b41-7ed6-baf6-6e1287269f81","019ceff9-9f67-7034-9722-02cda2445e09","","601","
                <div class=""stimulus-container"">
                    <img src=""images/schematic_sequence/supermarket_scheme/supermarket_scheme_3.png"" class=""exp-image"">
                    <div class=""question-area"">
                        <p style=""font-size: 20px; font-weight: bold; margin: 0;"">Is there a person in this image?</p>
                    </div>
                </div>","1","main_experiment_trial","3","supermarket_scheme","schematic_sequence","","","","",""
"","","","","","html-keyboard-response","44","214555","0.0-44.0","BA6C1D9C43874C819E719BAB94A94A51","019cf01e-9b41-7ed6-baf6-6e1287269f81","019ceff9-9f67-7034-9722-02cda2445e09","","null","
                <div class=""stimulus-container"">
                    <img src=""images/schematic_sequence/supermarket_scheme/supermarket_scheme_4.png"" class=""exp-image"">
                    <div class=""question-area""></div> 
                </div>","null","","","","","","","","",""
"","","","","","html-button-response","45","215287","0.0-45.0","BA6C1D9C43874C819E719BAB94A94A51","019cf01e-9b41-7ed6-baf6-6e1287269f81","019ceff9-9f67-7034-9722-02cda2445e09","","729","
                <div class=""stimulus-container"">
                    <img src=""images/schematic_sequence/supermarket_scheme/supermarket_scheme_4.png"" class=""exp-image"">
                    <div class=""question-area"">
                        <p style=""font-size: 20px; font-weight: bold; margin: 0;"">Is there a person in this image?</p>
                    </div>
                </div>","0","main_experiment_trial","4","supermarket_scheme","schematic_sequence","","","","",""
"","","","","","html-keyboard-response","46","220290","0.0-46.0","BA6C1D9C43874C819E719BAB94A94A51","019cf01e-9b41-7ed6-baf6-6e1287269f81","019ceff9-9f67-7034-9722-02cda2445e09","","null","
                <div class=""stimulus-container"">
                    <img src=""images/schematic_sequence/supermarket_scheme/supermarket_scheme_5.png"" class=""exp-image"">
                    <div class=""question-area""></div> 
                </div>","null","","","","","","","","",""
"","","","","","html-button-response","47","220828","0.0-47.0","BA6C1D9C43874C819E719BAB94A94A51","019cf01e-9b41-7ed6-baf6-6e1287269f81","019ceff9-9f67-7034-9722-02cda2445e09","","536","
                <div class=""stimulus-container"">
                    <img src=""images/schematic_sequence/supermarket_scheme/supermarket_scheme_5.png"" class=""exp-image"">
                    <div class=""question-area"">
                        <p style=""font-size: 20px; font-weight: bold; margin: 0;"">Is there a person in this image?</p>
                    </div>
                </div>","1","main_experiment_trial","5","supermarket_scheme","schematic_sequence","","","","",""
"","","","","","html-keyboard-response","48","225830","0.0-48.0","BA6C1D9C43874C819E719BAB94A94A51","019cf01e-9b41-7ed6-baf6-6e1287269f81","019ceff9-9f67-7034-9722-02cda2445e09","","null","
                <div class=""stimulus-container"">
                    <img src=""images/schematic_sequence/supermarket_scheme/supermarket_scheme_6.png"" class=""exp-image"">
                    <div class=""question-area""></div> 
                </div>","null","","","","","","","","",""
"","","","","","html-button-response","49","227729","0.0-49.0","BA6C1D9C43874C819E719BAB94A94A51","019cf01e-9b41-7ed6-baf6-6e1287269f81","019ceff9-9f67-7034-9722-02cda2445e09","","1897","
                <div class=""stimulus-container"">
                    <img src=""images/schematic_sequence/supermarket_scheme/supermarket_scheme_6.png"" class=""exp-image"">
                    <div class=""question-area"">
                        <p style=""font-size: 20px; font-weight: bold; margin: 0;"">Is there a person in this image?</p>
                    </div>
                </div>","1","main_experiment_trial","6","supermarket_scheme","schematic_sequence","","","","",""
"","","","","","html-keyboard-response","50","232731","0.0-50.0","BA6C1D9C43874C819E719BAB94A94A51","019cf01e-9b41-7ed6-baf6-6e1287269f81","019ceff9-9f67-7034-9722-02cda2445e09","","null","
                <div class=""stimulus-container"">
                    <img src=""images/schematic_sequence/supermarket_scheme/supermarket_scheme_7.png"" class=""exp-image"">
                    <div class=""question-area""></div> 
                </div>","null","","","","","","","","",""
"","","","","","html-button-response","51","233598","0.0-51.0","BA6C1D9C43874C819E719BAB94A94A51","019cf01e-9b41-7ed6-baf6-6e1287269f81","019ceff9-9f67-7034-9722-02cda2445e09","","865","
                <div class=""stimulus-container"">
                    <img src=""images/schematic_sequence/supermarket_scheme/supermarket_scheme_7.png"" class=""exp-image"">
                    <div class=""question-area"">
                        <p style=""font-size: 20px; font-weight: bold; margin: 0;"">Is there a person in this image?</p>
                    </div>
                </div>","0","main_experiment_trial","7","supermarket_scheme","schematic_sequence","","","","",""
"","","","","","html-keyboard-response","52","238600","0.0-52.0","BA6C1D9C43874C819E719BAB94A94A51","019cf01e-9b41-7ed6-baf6-6e1287269f81","019ceff9-9f67-7034-9722-02cda2445e09","","null","
                <div class=""stimulus-container"">
                    <img src=""images/schematic_sequence/supermarket_scheme/supermarket_scheme_8.png"" class=""exp-image"">
                    <div class=""question-area""></div> 
                </div>","null","","","","","","","","",""
"","","","","","html-button-response","53","239060","0.0-53.0","BA6C1D9C43874C819E719BAB94A94A51","019cf01e-9b41-7ed6-baf6-6e1287269f81","019ceff9-9f67-7034-9722-02cda2445e09","","456","
                <div class=""stimulus-container"">
                    <img src=""images/schematic_sequence/supermarket_scheme/supermarket_scheme_8.png"" class=""exp-image"">
                    <div class=""question-area"">
                        <p style=""font-size: 20px; font-weight: bold; margin: 0;"">Is there a person in this image?</p>
                    </div>
                </div>","0","main_experiment_trial","8","supermarket_scheme","schematic_sequence","","","","",""
"","","","","","html-keyboard-response","54","244062","0.0-54.0","BA6C1D9C43874C819E719BAB94A94A51","019cf01e-9b41-7ed6-baf6-6e1287269f81","019ceff9-9f67-7034-9722-02cda2445e09","","null","
                <div class=""stimulus-container"">
                    <img src=""images/schematic_sequence/supermarket_scheme/supermarket_scheme_9.png"" class=""exp-image"">
                    <div class=""question-area""></div> 
                </div>","null","","","","","","","","",""
"","","","","","html-button-response","55","244482","0.0-55.0","BA6C1D9C43874C819E719BAB94A94A51","019cf01e-9b41-7ed6-baf6-6e1287269f81","019ceff9-9f67-7034-9722-02cda2445e09","","418","
                <div class=""stimulus-container"">
                    <img src=""images/schematic_sequence/supermarket_scheme/supermarket_scheme_9.png"" class=""exp-image"">
                    <div class=""question-area"">
                        <p style=""font-size: 20px; font-weight: bold; margin: 0;"">Is there a person in this image?</p>
                    </div>
                </div>","0","main_experiment_trial","9","supermarket_scheme","schematic_sequence","","","","",""
"","","","","","html-keyboard-response","56","249484","0.0-56.0","BA6C1D9C43874C819E719BAB94A94A51","019cf01e-9b41-7ed6-baf6-6e1287269f81","019ceff9-9f67-7034-9722-02cda2445e09","","null","
                <div class=""stimulus-container"">
                    <img src=""images/schematic_sequence/supermarket_scheme/supermarket_scheme_ten.png"" class=""exp-image"">
                    <div class=""question-area""></div> 
                </div>","null","","","","","","","","",""
"","","","","","html-button-response","57","249975","0.0-57.0","BA6C1D9C43874C819E719BAB94A94A51","019cf01e-9b41-7ed6-baf6-6e1287269f81","019ceff9-9f67-7034-9722-02cda2445e09","","488","
                <div class=""stimulus-container"">
                    <img src=""images/schematic_sequence/supermarket_scheme/supermarket_scheme_ten.png"" class=""exp-image"">
                    <div class=""question-area"">
                        <p style=""font-size: 20px; font-weight: bold; margin: 0;"">Is there a person in this image?</p>
                    </div>
                </div>","1","main_experiment_trial","ten","supermarket_scheme","schematic_sequence","","","","",""
"","","","","","html-keyboard-response","58","250976","0.0-58.0","BA6C1D9C43874C819E719BAB94A94A51","019cf01e-9b41-7ed6-baf6-6e1287269f81","019ceff9-9f67-7034-9722-02cda2445e09","","null","<div style=""background-color: white; width: 100vw; height: 100vh;""></div>","null","","","","","","","","",""
"","","","","","html-keyboard-response","59","255978","0.0-59.0","BA6C1D9C43874C819E719BAB94A94A51","019cf01e-9b41-7ed6-baf6-6e1287269f81","019ceff9-9f67-7034-9722-02cda2445e09","","null","
                <div class=""stimulus-container"">
                    <img src=""images/schematic_sequence/dinner_party_scheme/dinner_party_scheme_1.png"" class=""exp-image"">
                    <div class=""question-area""></div> 
                </div>","null","","","","","","","","",""
"","","","","","html-button-response","60","256452","0.0-60.0","BA6C1D9C43874C819E719BAB94A94A51","019cf01e-9b41-7ed6-baf6-6e1287269f81","019ceff9-9f67-7034-9722-02cda2445e09","","471","
                <div class=""stimulus-container"">
                    <img src=""images/schematic_sequence/dinner_party_scheme/dinner_party_scheme_1.png"" class=""exp-image"">
                    <div class=""question-area"">
                        <p style=""font-size: 20px; font-weight: bold; margin: 0;"">Is there a person in this image?</p>
                    </div>
                </div>","0","main_experiment_trial","1","dinner_party_scheme","schematic_sequence","","","","",""
"","","","","","html-keyboard-response","61","261454","0.0-61.0","BA6C1D9C43874C819E719BAB94A94A51","019cf01e-9b41-7ed6-baf6-6e1287269f81","019ceff9-9f67-7034-9722-02cda2445e09","","null","
                <div class=""stimulus-container"">
                    <img src=""images/schematic_sequence/dinner_party_scheme/dinner_party_scheme_2.png"" class=""exp-image"">
                    <div class=""question-area""></div> 
                </div>","null","","","","","","","","",""
"","","","","","html-button-response","62","262250","0.0-62.0","BA6C1D9C43874C819E719BAB94A94A51","019cf01e-9b41-7ed6-baf6-6e1287269f81","019ceff9-9f67-7034-9722-02cda2445e09","","794","
                <div class=""stimulus-container"">
                    <img src=""images/schematic_sequence/dinner_party_scheme/dinner_party_scheme_2.png"" class=""exp-image"">
                    <div class=""question-area"">
                        <p style=""font-size: 20px; font-weight: bold; margin: 0;"">Is there a person in this image?</p>
                    </div>
                </div>","1","main_experiment_trial","2","dinner_party_scheme","schematic_sequence","","","","",""
"","","","","","html-keyboard-response","63","267252","0.0-63.0","BA6C1D9C43874C819E719BAB94A94A51","019cf01e-9b41-7ed6-baf6-6e1287269f81","019ceff9-9f67-7034-9722-02cda2445e09","","null","
                <div class=""stimulus-container"">
                    <img src=""images/schematic_sequence/dinner_party_scheme/dinner_party_scheme_3.png"" class=""exp-image"">
                    <div class=""question-area""></div> 
                </div>","null","","","","","","","","",""
"","","","","","html-button-response","64","267735","0.0-64.0","BA6C1D9C43874C819E719BAB94A94A51","019cf01e-9b41-7ed6-baf6-6e1287269f81","019ceff9-9f67-7034-9722-02cda2445e09","","481","
                <div class=""stimulus-container"">
                    <img src=""images/schematic_sequence/dinner_party_scheme/dinner_party_scheme_3.png"" class=""exp-image"">
                    <div class=""question-area"">
                        <p style=""font-size: 20px; font-weight: bold; margin: 0;"">Is there a person in this image?</p>
                    </div>
                </div>","0","main_experiment_trial","3","dinner_party_scheme","schematic_sequence","","","","",""
"","","","","","html-keyboard-response","65","272738","0.0-65.0","BA6C1D9C43874C819E719BAB94A94A51","019cf01e-9b41-7ed6-baf6-6e1287269f81","019ceff9-9f67-7034-9722-02cda2445e09","","null","
                <div class=""stimulus-container"">
                    <img src=""images/schematic_sequence/dinner_party_scheme/dinner_party_scheme_4.png"" class=""exp-image"">
                    <div class=""question-area""></div> 
                </div>","null","","","","","","","","",""
"","","","","","html-button-response","66","273373","0.0-66.0","BA6C1D9C43874C819E719BAB94A94A51","019cf01e-9b41-7ed6-baf6-6e1287269f81","019ceff9-9f67-7034-9722-02cda2445e09","","632","
                <div class=""stimulus-container"">
                    <img src=""images/schematic_sequence/dinner_party_scheme/dinner_party_scheme_4.png"" class=""exp-image"">
                    <div class=""question-area"">
                        <p style=""font-size: 20px; font-weight: bold; margin: 0;"">Is there a person in this image?</p>
                    </div>
                </div>","0","main_experiment_trial","4","dinner_party_scheme","schematic_sequence","","","","",""
"","","","","","html-keyboard-response","67","278376","0.0-67.0","BA6C1D9C43874C819E719BAB94A94A51","019cf01e-9b41-7ed6-baf6-6e1287269f81","019ceff9-9f67-7034-9722-02cda2445e09","","null","
                <div class=""stimulus-container"">
                    <img src=""images/schematic_sequence/dinner_party_scheme/dinner_party_scheme_5.png"" class=""exp-image"">
                    <div class=""question-area""></div> 
                </div>","null","","","","","","","","",""
"","","","","","html-button-response","68","279106","0.0-68.0","BA6C1D9C43874C819E719BAB94A94A51","019cf01e-9b41-7ed6-baf6-6e1287269f81","019ceff9-9f67-7034-9722-02cda2445e09","","728","
                <div class=""stimulus-container"">
                    <img src=""images/schematic_sequence/dinner_party_scheme/dinner_party_scheme_5.png"" class=""exp-image"">
                    <div class=""question-area"">
                        <p style=""font-size: 20px; font-weight: bold; margin: 0;"">Is there a person in this image?</p>
                    </div>
                </div>","0","main_experiment_trial","5","dinner_party_scheme","schematic_sequence","","","","",""
"","","","","","html-keyboard-response","69","284108","0.0-69.0","BA6C1D9C43874C819E719BAB94A94A51","019cf01e-9b41-7ed6-baf6-6e1287269f81","019ceff9-9f67-7034-9722-02cda2445e09","","null","
                <div class=""stimulus-container"">
                    <img src=""images/schematic_sequence/dinner_party_scheme/dinner_party_scheme_6.png"" class=""exp-image"">
                    <div class=""question-area""></div> 
                </div>","null","","","","","","","","",""
"","","","","","html-button-response","70","284791","0.0-70.0","BA6C1D9C43874C819E719BAB94A94A51","019cf01e-9b41-7ed6-baf6-6e1287269f81","019ceff9-9f67-7034-9722-02cda2445e09","","681","
                <div class=""stimulus-container"">
                    <img src=""images/schematic_sequence/dinner_party_scheme/dinner_party_scheme_6.png"" class=""exp-image"">
                    <div class=""question-area"">
                        <p style=""font-size: 20px; font-weight: bold; margin: 0;"">Is there a person in this image?</p>
                    </div>
                </div>","0","main_experiment_trial","6","dinner_party_scheme","schematic_sequence","","","","",""
"","","","","","html-keyboard-response","71","289793","0.0-71.0","BA6C1D9C43874C819E719BAB94A94A51","019cf01e-9b41-7ed6-baf6-6e1287269f81","019ceff9-9f67-7034-9722-02cda2445e09","","null","
                <div class=""stimulus-container"">
                    <img src=""images/schematic_sequence/dinner_party_scheme/dinner_party_scheme_7.png"" class=""exp-image"">
                    <div class=""question-area""></div> 
                </div>","null","","","","","","","","",""
"","","","","","html-button-response","72","292795","0.0-72.0","BA6C1D9C43874C819E719BAB94A94A51","019cf01e-9b41-7ed6-baf6-6e1287269f81","019ceff9-9f67-7034-9722-02cda2445e09","","null","
                <div class=""stimulus-container"">
                    <img src=""images/schematic_sequence/dinner_party_scheme/dinner_party_scheme_7.png"" class=""exp-image"">
                    <div class=""question-area"">
                        <p style=""font-size: 20px; font-weight: bold; margin: 0;"">Is there a person in this image?</p>
                    </div>
                </div>","null","main_experiment_trial","7","dinner_party_scheme","schematic_sequence","","","","",""
"","","","","","html-keyboard-response","73","297797","0.0-73.0","BA6C1D9C43874C819E719BAB94A94A51","019cf01e-9b41-7ed6-baf6-6e1287269f81","019ceff9-9f67-7034-9722-02cda2445e09","","null","
                <div class=""stimulus-container"">
                    <img src=""images/schematic_sequence/dinner_party_scheme/dinner_party_scheme_8.png"" class=""exp-image"">
                    <div class=""question-area""></div> 
                </div>","null","","","","","","","","",""
"","","","","","html-button-response","74","300569","0.0-74.0","BA6C1D9C43874C819E719BAB94A94A51","019cf01e-9b41-7ed6-baf6-6e1287269f81","019ceff9-9f67-7034-9722-02cda2445e09","","2770","
                <div class=""stimulus-container"">
                    <img src=""images/schematic_sequence/dinner_party_scheme/dinner_party_scheme_8.png"" class=""exp-image"">
                    <div class=""question-area"">
                        <p style=""font-size: 20px; font-weight: bold; margin: 0;"">Is there a person in this image?</p>
                    </div>
                </div>","0","main_experiment_trial","8","dinner_party_scheme","schematic_sequence","","","","",""
"","","","","","html-keyboard-response","75","305571","0.0-75.0","BA6C1D9C43874C819E719BAB94A94A51","019cf01e-9b41-7ed6-baf6-6e1287269f81","019ceff9-9f67-7034-9722-02cda2445e09","","null","
                <div class=""stimulus-container"">
                    <img src=""images/schematic_sequence/dinner_party_scheme/dinner_party_scheme_9.png"" class=""exp-image"">
                    <div class=""question-area""></div> 
                </div>","null","","","","","","","","",""
"","","","","","html-button-response","76","306550","0.0-76.0","BA6C1D9C43874C819E719BAB94A94A51","019cf01e-9b41-7ed6-baf6-6e1287269f81","019ceff9-9f67-7034-9722-02cda2445e09","","977","
                <div class=""stimulus-container"">
                    <img src=""images/schematic_sequence/dinner_party_scheme/dinner_party_scheme_9.png"" class=""exp-image"">
                    <div class=""question-area"">
                        <p style=""font-size: 20px; font-weight: bold; margin: 0;"">Is there a person in this image?</p>
                    </div>
                </div>","0","main_experiment_trial","9","dinner_party_scheme","schematic_sequence","","","","",""
"","","","","","html-keyboard-response","77","311552","0.0-77.0","BA6C1D9C43874C819E719BAB94A94A51","019cf01e-9b41-7ed6-baf6-6e1287269f81","019ceff9-9f67-7034-9722-02cda2445e09","","null","
                <div class=""stimulus-container"">
                    <img src=""images/schematic_sequence/dinner_party_scheme/dinner_party_scheme_ten.png"" class=""exp-image"">
                    <div class=""question-area""></div> 
                </div>","null","","","","","","","","",""
"","","","","","html-button-response","78","312211","0.0-78.0","BA6C1D9C43874C819E719BAB94A94A51","019cf01e-9b41-7ed6-baf6-6e1287269f81","019ceff9-9f67-7034-9722-02cda2445e09","","657","
                <div class=""stimulus-container"">
                    <img src=""images/schematic_sequence/dinner_party_scheme/dinner_party_scheme_ten.png"" class=""exp-image"">
                    <div class=""question-area"">
                        <p style=""font-size: 20px; font-weight: bold; margin: 0;"">Is there a person in this image?</p>
                    </div>
                </div>","0","main_experiment_trial","ten","dinner_party_scheme","schematic_sequence","","","","",""
"","","","","","html-keyboard-response","79","313212","0.0-79.0","BA6C1D9C43874C819E719BAB94A94A51","019cf01e-9b41-7ed6-baf6-6e1287269f81","019ceff9-9f67-7034-9722-02cda2445e09","","null","<div style=""background-color: white; width: 100vw; height: 100vh;""></div>","null","","","","","","","","",""
"","","","","","html-keyboard-response","80","318213","0.0-80.0","BA6C1D9C43874C819E719BAB94A94A51","019cf01e-9b41-7ed6-baf6-6e1287269f81","019ceff9-9f67-7034-9722-02cda2445e09","","null","
                <div class=""stimulus-container"">
                    <img src=""images/causal_sequence/package_causal/package_causal_1.png"" class=""exp-image"">
                    <div class=""question-area""></div> 
                </div>","null","","","","","","","","",""
"","","","","","html-button-response","81","318888","0.0-81.0","BA6C1D9C43874C819E719BAB94A94A51","019cf01e-9b41-7ed6-baf6-6e1287269f81","019ceff9-9f67-7034-9722-02cda2445e09","","673","
                <div class=""stimulus-container"">
                    <img src=""images/causal_sequence/package_causal/package_causal_1.png"" class=""exp-image"">
                    <div class=""question-area"">
                        <p style=""font-size: 20px; font-weight: bold; margin: 0;"">Is there a person in this image?</p>
                    </div>
                </div>","0","main_experiment_trial","1","package_causal","causal_sequence","","","","",""
"","","","","","html-keyboard-response","82","323890","0.0-82.0","BA6C1D9C43874C819E719BAB94A94A51","019cf01e-9b41-7ed6-baf6-6e1287269f81","019ceff9-9f67-7034-9722-02cda2445e09","","null","
                <div class=""stimulus-container"">
                    <img src=""images/causal_sequence/package_causal/package_causal_2.png"" class=""exp-image"">
                    <div class=""question-area""></div> 
                </div>","null","","","","","","","","",""
"","","","","","html-button-response","83","325029","0.0-83.0","BA6C1D9C43874C819E719BAB94A94A51","019cf01e-9b41-7ed6-baf6-6e1287269f81","019ceff9-9f67-7034-9722-02cda2445e09","","1137","
                <div class=""stimulus-container"">
                    <img src=""images/causal_sequence/package_causal/package_causal_2.png"" class=""exp-image"">
                    <div class=""question-area"">
                        <p style=""font-size: 20px; font-weight: bold; margin: 0;"">Is there a person in this image?</p>
                    </div>
                </div>","0","main_experiment_trial","2","package_causal","causal_sequence","","","","",""
"","","","","","html-keyboard-response","84","330030","0.0-84.0","BA6C1D9C43874C819E719BAB94A94A51","019cf01e-9b41-7ed6-baf6-6e1287269f81","019ceff9-9f67-7034-9722-02cda2445e09","","null","
                <div class=""stimulus-container"">
                    <img src=""images/causal_sequence/package_causal/package_causal_3.png"" class=""exp-image"">
                    <div class=""question-area""></div> 
                </div>","null","","","","","","","","",""
"","","","","","html-button-response","85","331363","0.0-85.0","BA6C1D9C43874C819E719BAB94A94A51","019cf01e-9b41-7ed6-baf6-6e1287269f81","019ceff9-9f67-7034-9722-02cda2445e09","","1331","
                <div class=""stimulus-container"">
                    <img src=""images/causal_sequence/package_causal/package_causal_3.png"" class=""exp-image"">
                    <div class=""question-area"">
                        <p style=""font-size: 20px; font-weight: bold; margin: 0;"">Is there a person in this image?</p>
                    </div>
                </div>","0","main_experiment_trial","3","package_causal","causal_sequence","","","","",""
"","","","","","html-keyboard-response","86","336365","0.0-86.0","BA6C1D9C43874C819E719BAB94A94A51","019cf01e-9b41-7ed6-baf6-6e1287269f81","019ceff9-9f67-7034-9722-02cda2445e09","","null","
                <div class=""stimulus-container"">
                    <img src=""images/causal_sequence/package_causal/package_causal_4.png"" class=""exp-image"">
                    <div class=""question-area""></div> 
                </div>","null","","","","","","","","",""
"","","","","","html-button-response","87","337288","0.0-87.0","BA6C1D9C43874C819E719BAB94A94A51","019cf01e-9b41-7ed6-baf6-6e1287269f81","019ceff9-9f67-7034-9722-02cda2445e09","","921","
                <div class=""stimulus-container"">
                    <img src=""images/causal_sequence/package_causal/package_causal_4.png"" class=""exp-image"">
                    <div class=""question-area"">
                        <p style=""font-size: 20px; font-weight: bold; margin: 0;"">Is there a person in this image?</p>
                    </div>
                </div>","1","main_experiment_trial","4","package_causal","causal_sequence","","","","",""
"","","","","","html-keyboard-response","88","342290","0.0-88.0","BA6C1D9C43874C819E719BAB94A94A51","019cf01e-9b41-7ed6-baf6-6e1287269f81","019ceff9-9f67-7034-9722-02cda2445e09","","null","
                <div class=""stimulus-container"">
                    <img src=""images/causal_sequence/package_causal/package_causal_5.png"" class=""exp-image"">
                    <div class=""question-area""></div> 
                </div>","null","","","","","","","","",""
"","","","","","html-button-response","89","345112","0.0-89.0","BA6C1D9C43874C819E719BAB94A94A51","019cf01e-9b41-7ed6-baf6-6e1287269f81","019ceff9-9f67-7034-9722-02cda2445e09","","2820","
                <div class=""stimulus-container"">
                    <img src=""images/causal_sequence/package_causal/package_causal_5.png"" class=""exp-image"">
                    <div class=""question-area"">
                        <p style=""font-size: 20px; font-weight: bold; margin: 0;"">Is there a person in this image?</p>
                    </div>
                </div>","0","main_experiment_trial","5","package_causal","causal_sequence","","","","",""
"","","","","","html-keyboard-response","90","350114","0.0-90.0","BA6C1D9C43874C819E719BAB94A94A51","019cf01e-9b41-7ed6-baf6-6e1287269f81","019ceff9-9f67-7034-9722-02cda2445e09","","null","
                <div class=""stimulus-container"">
                    <img src=""images/causal_sequence/package_causal/package_causal_6.png"" class=""exp-image"">
                    <div class=""question-area""></div> 
                </div>","null","","","","","","","","",""
"","","","","","html-button-response","91","351983","0.0-91.0","BA6C1D9C43874C819E719BAB94A94A51","019cf01e-9b41-7ed6-baf6-6e1287269f81","019ceff9-9f67-7034-9722-02cda2445e09","","1867","
                <div class=""stimulus-container"">
                    <img src=""images/causal_sequence/package_causal/package_causal_6.png"" class=""exp-image"">
                    <div class=""question-area"">
                        <p style=""font-size: 20px; font-weight: bold; margin: 0;"">Is there a person in this image?</p>
                    </div>
                </div>","0","main_experiment_trial","6","package_causal","causal_sequence","","","","",""
"","","","","","html-keyboard-response","92","356985","0.0-92.0","BA6C1D9C43874C819E719BAB94A94A51","019cf01e-9b41-7ed6-baf6-6e1287269f81","019ceff9-9f67-7034-9722-02cda2445e09","","null","
                <div class=""stimulus-container"">
                    <img src=""images/causal_sequence/package_causal/package_causal_7.png"" class=""exp-image"">
                    <div class=""question-area""></div> 
                </div>","null","","","","","","","","",""
"","","","","","html-button-response","93","359987","0.0-93.0","BA6C1D9C43874C819E719BAB94A94A51","019cf01e-9b41-7ed6-baf6-6e1287269f81","019ceff9-9f67-7034-9722-02cda2445e09","","null","
                <div class=""stimulus-container"">
                    <img src=""images/causal_sequence/package_causal/package_causal_7.png"" class=""exp-image"">
                    <div class=""question-area"">
                        <p style=""font-size: 20px; font-weight: bold; margin: 0;"">Is there a person in this image?</p>
                    </div>
                </div>","null","main_experiment_trial","7","package_causal","causal_sequence","","","","",""
"","","","","","html-keyboard-response","94","364989","0.0-94.0","BA6C1D9C43874C819E719BAB94A94A51","019cf01e-9b41-7ed6-baf6-6e1287269f81","019ceff9-9f67-7034-9722-02cda2445e09","","null","
                <div class=""stimulus-container"">
                    <img src=""images/causal_sequence/package_causal/package_causal_8.png"" class=""exp-image"">
                    <div class=""question-area""></div> 
                </div>","null","","","","","","","","",""
"","","","","","html-button-response","95","367992","0.0-95.0","BA6C1D9C43874C819E719BAB94A94A51","019cf01e-9b41-7ed6-baf6-6e1287269f81","019ceff9-9f67-7034-9722-02cda2445e09","","null","
                <div class=""stimulus-container"">
                    <img src=""images/causal_sequence/package_causal/package_causal_8.png"" class=""exp-image"">
                    <div class=""question-area"">
                        <p style=""font-size: 20px; font-weight: bold; margin: 0;"">Is there a person in this image?</p>
                    </div>
                </div>","null","main_experiment_trial","8","package_causal","causal_sequence","","","","",""
"","","","","","html-keyboard-response","96","372994","0.0-96.0","BA6C1D9C43874C819E719BAB94A94A51","019cf01e-9b41-7ed6-baf6-6e1287269f81","019ceff9-9f67-7034-9722-02cda2445e09","","null","
                <div class=""stimulus-container"">
                    <img src=""images/causal_sequence/package_causal/package_causal_9.png"" class=""exp-image"">
                    <div class=""question-area""></div> 
                </div>","null","","","","","","","","",""
"","","","","","html-button-response","97","375995","0.0-97.0","BA6C1D9C43874C819E719BAB94A94A51","019cf01e-9b41-7ed6-baf6-6e1287269f81","019ceff9-9f67-7034-9722-02cda2445e09","","null","
                <div class=""stimulus-container"">
                    <img src=""images/causal_sequence/package_causal/package_causal_9.png"" class=""exp-image"">
                    <div class=""question-area"">
                        <p style=""font-size: 20px; font-weight: bold; margin: 0;"">Is there a person in this image?</p>
                    </div>
                </div>","null","main_experiment_trial","9","package_causal","causal_sequence","","","","",""
"","","","","","html-keyboard-response","98","380996","0.0-98.0","BA6C1D9C43874C819E719BAB94A94A51","019cf01e-9b41-7ed6-baf6-6e1287269f81","019ceff9-9f67-7034-9722-02cda2445e09","","null","
                <div class=""stimulus-container"">
                    <img src=""images/causal_sequence/package_causal/package_causal_ten.png"" class=""exp-image"">
                    <div class=""question-area""></div> 
                </div>","null","","","","","","","","",""
"","","","","","html-button-response","99","381452","0.0-99.0","BA6C1D9C43874C819E719BAB94A94A51","019cf01e-9b41-7ed6-baf6-6e1287269f81","019ceff9-9f67-7034-9722-02cda2445e09","","455","
                <div class=""stimulus-container"">
                    <img src=""images/causal_sequence/package_causal/package_causal_ten.png"" class=""exp-image"">
                    <div class=""question-area"">
                        <p style=""font-size: 20px; font-weight: bold; margin: 0;"">Is there a person in this image?</p>
                    </div>
                </div>","0","main_experiment_trial","ten","package_causal","causal_sequence","","","","",""
"","","","","","html-keyboard-response","100","382454","0.0-100.0","BA6C1D9C43874C819E719BAB94A94A51","019cf01e-9b41-7ed6-baf6-6e1287269f81","019ceff9-9f67-7034-9722-02cda2445e09","","null","<div style=""background-color: white; width: 100vw; height: 100vh;""></div>","null","","","","","","","","",""
"","","","","","html-keyboard-response","101","387455","0.0-101.0","BA6C1D9C43874C819E719BAB94A94A51","019cf01e-9b41-7ed6-baf6-6e1287269f81","019ceff9-9f67-7034-9722-02cda2445e09","","null","
                <div class=""stimulus-container"">
                    <img src=""images/schematic_sequence/hotel_scheme/hotel_scheme_1.png"" class=""exp-image"">
                    <div class=""question-area""></div> 
                </div>","null","","","","","","","","",""
"","","","","","html-button-response","102","389160","0.0-102.0","BA6C1D9C43874C819E719BAB94A94A51","019cf01e-9b41-7ed6-baf6-6e1287269f81","019ceff9-9f67-7034-9722-02cda2445e09","","1702","
                <div class=""stimulus-container"">
                    <img src=""images/schematic_sequence/hotel_scheme/hotel_scheme_1.png"" class=""exp-image"">
                    <div class=""question-area"">
                        <p style=""font-size: 20px; font-weight: bold; margin: 0;"">Is there a person in this image?</p>
                    </div>
                </div>","1","main_experiment_trial","1","hotel_scheme","schematic_sequence","","","","",""
"","","","","","html-keyboard-response","103","394161","0.0-103.0","BA6C1D9C43874C819E719BAB94A94A51","019cf01e-9b41-7ed6-baf6-6e1287269f81","019ceff9-9f67-7034-9722-02cda2445e09","","null","
                <div class=""stimulus-container"">
                    <img src=""images/schematic_sequence/hotel_scheme/hotel_scheme_2.png"" class=""exp-image"">
                    <div class=""question-area""></div> 
                </div>","null","","","","","","","","",""
"","","","","","html-button-response","104","394662","0.0-104.0","BA6C1D9C43874C819E719BAB94A94A51","019cf01e-9b41-7ed6-baf6-6e1287269f81","019ceff9-9f67-7034-9722-02cda2445e09","","499","
                <div class=""stimulus-container"">
                    <img src=""images/schematic_sequence/hotel_scheme/hotel_scheme_2.png"" class=""exp-image"">
                    <div class=""question-area"">
                        <p style=""font-size: 20px; font-weight: bold; margin: 0;"">Is there a person in this image?</p>
                    </div>
                </div>","0","main_experiment_trial","2","hotel_scheme","schematic_sequence","","","","",""
"","","","","","html-keyboard-response","105","399664","0.0-105.0","BA6C1D9C43874C819E719BAB94A94A51","019cf01e-9b41-7ed6-baf6-6e1287269f81","019ceff9-9f67-7034-9722-02cda2445e09","","null","
                <div class=""stimulus-container"">
                    <img src=""images/schematic_sequence/hotel_scheme/hotel_scheme_3.png"" class=""exp-image"">
                    <div class=""question-area""></div> 
                </div>","null","","","","","","","","",""
"","","","","","html-button-response","106","400668","0.0-106.0","BA6C1D9C43874C819E719BAB94A94A51","019cf01e-9b41-7ed6-baf6-6e1287269f81","019ceff9-9f67-7034-9722-02cda2445e09","","1002","
                <div class=""stimulus-container"">
                    <img src=""images/schematic_sequence/hotel_scheme/hotel_scheme_3.png"" class=""exp-image"">
                    <div class=""question-area"">
                        <p style=""font-size: 20px; font-weight: bold; margin: 0;"">Is there a person in this image?</p>
                    </div>
                </div>","0","main_experiment_trial","3","hotel_scheme","schematic_sequence","","","","",""
"","","","","","html-keyboard-response","107","405671","0.0-107.0","BA6C1D9C43874C819E719BAB94A94A51","019cf01e-9b41-7ed6-baf6-6e1287269f81","019ceff9-9f67-7034-9722-02cda2445e09","","null","
                <div class=""stimulus-container"">
                    <img src=""images/schematic_sequence/hotel_scheme/hotel_scheme_4.png"" class=""exp-image"">
                    <div class=""question-area""></div> 
                </div>","null","","","","","","","","",""
"","","","","","html-button-response","108","406177","0.0-108.0","BA6C1D9C43874C819E719BAB94A94A51","019cf01e-9b41-7ed6-baf6-6e1287269f81","019ceff9-9f67-7034-9722-02cda2445e09","","504","
                <div class=""stimulus-container"">
                    <img src=""images/schematic_sequence/hotel_scheme/hotel_scheme_4.png"" class=""exp-image"">
                    <div class=""question-area"">
                        <p style=""font-size: 20px; font-weight: bold; margin: 0;"">Is there a person in this image?</p>
                    </div>
                </div>","1","main_experiment_trial","4","hotel_scheme","schematic_sequence","","","","",""
"","","","","","html-keyboard-response","109","411178","0.0-109.0","BA6C1D9C43874C819E719BAB94A94A51","019cf01e-9b41-7ed6-baf6-6e1287269f81","019ceff9-9f67-7034-9722-02cda2445e09","","null","
                <div class=""stimulus-container"">
                    <img src=""images/schematic_sequence/hotel_scheme/hotel_scheme_5.png"" class=""exp-image"">
                    <div class=""question-area""></div> 
                </div>","null","","","","","","","","",""
"","","","","","html-button-response","110","411782","0.0-110.0","BA6C1D9C43874C819E719BAB94A94A51","019cf01e-9b41-7ed6-baf6-6e1287269f81","019ceff9-9f67-7034-9722-02cda2445e09","","602","
                <div class=""stimulus-container"">
                    <img src=""images/schematic_sequence/hotel_scheme/hotel_scheme_5.png"" class=""exp-image"">
                    <div class=""question-area"">
                        <p style=""font-size: 20px; font-weight: bold; margin: 0;"">Is there a person in this image?</p>
                    </div>
                </div>","0","main_experiment_trial","5","hotel_scheme","schematic_sequence","","","","",""
"","","","","","html-keyboard-response","111","416783","0.0-111.0","BA6C1D9C43874C819E719BAB94A94A51","019cf01e-9b41-7ed6-baf6-6e1287269f81","019ceff9-9f67-7034-9722-02cda2445e09","","null","
                <div class=""stimulus-container"">
                    <img src=""images/schematic_sequence/hotel_scheme/hotel_scheme_6.png"" class=""exp-image"">
                    <div class=""question-area""></div> 
                </div>","null","","","","","","","","",""
"","","","","","html-button-response","112","417252","0.0-112.0","BA6C1D9C43874C819E719BAB94A94A51","019cf01e-9b41-7ed6-baf6-6e1287269f81","019ceff9-9f67-7034-9722-02cda2445e09","","467","
                <div class=""stimulus-container"">
                    <img src=""images/schematic_sequence/hotel_scheme/hotel_scheme_6.png"" class=""exp-image"">
                    <div class=""question-area"">
                        <p style=""font-size: 20px; font-weight: bold; margin: 0;"">Is there a person in this image?</p>
                    </div>
                </div>","0","main_experiment_trial","6","hotel_scheme","schematic_sequence","","","","",""
"","","","","","html-keyboard-response","113","422254","0.0-113.0","BA6C1D9C43874C819E719BAB94A94A51","019cf01e-9b41-7ed6-baf6-6e1287269f81","019ceff9-9f67-7034-9722-02cda2445e09","","null","
                <div class=""stimulus-container"">
                    <img src=""images/schematic_sequence/hotel_scheme/hotel_scheme_7.png"" class=""exp-image"">
                    <div class=""question-area""></div> 
                </div>","null","","","","","","","","",""
"","","","","","html-button-response","114","423018","0.0-114.0","BA6C1D9C43874C819E719BAB94A94A51","019cf01e-9b41-7ed6-baf6-6e1287269f81","019ceff9-9f67-7034-9722-02cda2445e09","","762","
                <div class=""stimulus-container"">
                    <img src=""images/schematic_sequence/hotel_scheme/hotel_scheme_7.png"" class=""exp-image"">
                    <div class=""question-area"">
                        <p style=""font-size: 20px; font-weight: bold; margin: 0;"">Is there a person in this image?</p>
                    </div>
                </div>","0","main_experiment_trial","7","hotel_scheme","schematic_sequence","","","","",""
"","","","","","html-keyboard-response","115","428020","0.0-115.0","BA6C1D9C43874C819E719BAB94A94A51","019cf01e-9b41-7ed6-baf6-6e1287269f81","019ceff9-9f67-7034-9722-02cda2445e09","","null","
                <div class=""stimulus-container"">
                    <img src=""images/schematic_sequence/hotel_scheme/hotel_scheme_8.png"" class=""exp-image"">
                    <div class=""question-area""></div> 
                </div>","null","","","","","","","","",""
"","","","","","html-button-response","116","428495","0.0-116.0","BA6C1D9C43874C819E719BAB94A94A51","019cf01e-9b41-7ed6-baf6-6e1287269f81","019ceff9-9f67-7034-9722-02cda2445e09","","473","
                <div class=""stimulus-container"">
                    <img src=""images/schematic_sequence/hotel_scheme/hotel_scheme_8.png"" class=""exp-image"">
                    <div class=""question-area"">
                        <p style=""font-size: 20px; font-weight: bold; margin: 0;"">Is there a person in this image?</p>
                    </div>
                </div>","0","main_experiment_trial","8","hotel_scheme","schematic_sequence","","","","",""
"","","","","","html-keyboard-response","117","433497","0.0-117.0","BA6C1D9C43874C819E719BAB94A94A51","019cf01e-9b41-7ed6-baf6-6e1287269f81","019ceff9-9f67-7034-9722-02cda2445e09","","null","
                <div class=""stimulus-container"">
                    <img src=""images/schematic_sequence/hotel_scheme/hotel_scheme_9.png"" class=""exp-image"">
                    <div class=""question-area""></div> 
                </div>","null","","","","","","","","",""
"","","","","","html-button-response","118","433917","0.0-118.0","BA6C1D9C43874C819E719BAB94A94A51","019cf01e-9b41-7ed6-baf6-6e1287269f81","019ceff9-9f67-7034-9722-02cda2445e09","","418","
                <div class=""stimulus-container"">
                    <img src=""images/schematic_sequence/hotel_scheme/hotel_scheme_9.png"" class=""exp-image"">
                    <div class=""question-area"">
                        <p style=""font-size: 20px; font-weight: bold; margin: 0;"">Is there a person in this image?</p>
                    </div>
                </div>","0","main_experiment_trial","9","hotel_scheme","schematic_sequence","","","","",""
"","","","","","html-keyboard-response","119","438918","0.0-119.0","BA6C1D9C43874C819E719BAB94A94A51","019cf01e-9b41-7ed6-baf6-6e1287269f81","019ceff9-9f67-7034-9722-02cda2445e09","","null","
                <div class=""stimulus-container"">
                    <img src=""images/schematic_sequence/hotel_scheme/hotel_scheme_ten.png"" class=""exp-image"">
                    <div class=""question-area""></div> 
                </div>","null","","","","","","","","",""
"","","","","","html-button-response","120","439450","0.0-120.0","BA6C1D9C43874C819E719BAB94A94A51","019cf01e-9b41-7ed6-baf6-6e1287269f81","019ceff9-9f67-7034-9722-02cda2445e09","","529","
                <div class=""stimulus-container"">
                    <img src=""images/schematic_sequence/hotel_scheme/hotel_scheme_ten.png"" class=""exp-image"">
                    <div class=""question-area"">
                        <p style=""font-size: 20px; font-weight: bold; margin: 0;"">Is there a person in this image?</p>
                    </div>
                </div>","0","main_experiment_trial","ten","hotel_scheme","schematic_sequence","","","","",""
"","","","","","html-keyboard-response","121","440451","0.0-121.0","BA6C1D9C43874C819E719BAB94A94A51","019cf01e-9b41-7ed6-baf6-6e1287269f81","019ceff9-9f67-7034-9722-02cda2445e09","","null","<div style=""background-color: white; width: 100vw; height: 100vh;""></div>","null","","","","","","","","",""
"","","","","","html-keyboard-response","122","445453","0.0-122.0","BA6C1D9C43874C819E719BAB94A94A51","019cf01e-9b41-7ed6-baf6-6e1287269f81","019ceff9-9f67-7034-9722-02cda2445e09","","null","
                <div class=""stimulus-container"">
                    <img src=""images/schematic_sequence/restaurant_scheme/restaurant_scheme_1.png"" class=""exp-image"">
                    <div class=""question-area""></div> 
                </div>","null","","","","","","","","",""
"","","","","","html-button-response","123","445911","0.0-123.0","BA6C1D9C43874C819E719BAB94A94A51","019cf01e-9b41-7ed6-baf6-6e1287269f81","019ceff9-9f67-7034-9722-02cda2445e09","","456","
                <div class=""stimulus-container"">
                    <img src=""images/schematic_sequence/restaurant_scheme/restaurant_scheme_1.png"" class=""exp-image"">
                    <div class=""question-area"">
                        <p style=""font-size: 20px; font-weight: bold; margin: 0;"">Is there a person in this image?</p>
                    </div>
                </div>","0","main_experiment_trial","1","restaurant_scheme","schematic_sequence","","","","",""
"","","","","","html-keyboard-response","124","450913","0.0-124.0","BA6C1D9C43874C819E719BAB94A94A51","019cf01e-9b41-7ed6-baf6-6e1287269f81","019ceff9-9f67-7034-9722-02cda2445e09","","null","
                <div class=""stimulus-container"">
                    <img src=""images/schematic_sequence/restaurant_scheme/restaurant_scheme_2.png"" class=""exp-image"">
                    <div class=""question-area""></div> 
                </div>","null","","","","","","","","",""
"","","","","","html-button-response","125","451733","0.0-125.0","BA6C1D9C43874C819E719BAB94A94A51","019cf01e-9b41-7ed6-baf6-6e1287269f81","019ceff9-9f67-7034-9722-02cda2445e09","","818","
                <div class=""stimulus-container"">
                    <img src=""images/schematic_sequence/restaurant_scheme/restaurant_scheme_2.png"" class=""exp-image"">
                    <div class=""question-area"">
                        <p style=""font-size: 20px; font-weight: bold; margin: 0;"">Is there a person in this image?</p>
                    </div>
                </div>","1","main_experiment_trial","2","restaurant_scheme","schematic_sequence","","","","",""
"","","","","","html-keyboard-response","126","456734","0.0-126.0","BA6C1D9C43874C819E719BAB94A94A51","019cf01e-9b41-7ed6-baf6-6e1287269f81","019ceff9-9f67-7034-9722-02cda2445e09","","null","
                <div class=""stimulus-container"">
                    <img src=""images/schematic_sequence/restaurant_scheme/restaurant_scheme_3.png"" class=""exp-image"">
                    <div class=""question-area""></div> 
                </div>","null","","","","","","","","",""
"","","","","","html-button-response","127","457642","0.0-127.0","BA6C1D9C43874C819E719BAB94A94A51","019cf01e-9b41-7ed6-baf6-6e1287269f81","019ceff9-9f67-7034-9722-02cda2445e09","","905","
                <div class=""stimulus-container"">
                    <img src=""images/schematic_sequence/restaurant_scheme/restaurant_scheme_3.png"" class=""exp-image"">
                    <div class=""question-area"">
                        <p style=""font-size: 20px; font-weight: bold; margin: 0;"">Is there a person in this image?</p>
                    </div>
                </div>","1","main_experiment_trial","3","restaurant_scheme","schematic_sequence","","","","",""
"","","","","","html-keyboard-response","128","462644","0.0-128.0","BA6C1D9C43874C819E719BAB94A94A51","019cf01e-9b41-7ed6-baf6-6e1287269f81","019ceff9-9f67-7034-9722-02cda2445e09","","null","
                <div class=""stimulus-container"">
                    <img src=""images/schematic_sequence/restaurant_scheme/restaurant_scheme_4.png"" class=""exp-image"">
                    <div class=""question-area""></div> 
                </div>","null","","","","","","","","",""
"","","","","","html-button-response","129","463711","0.0-129.0","BA6C1D9C43874C819E719BAB94A94A51","019cf01e-9b41-7ed6-baf6-6e1287269f81","019ceff9-9f67-7034-9722-02cda2445e09","","1065","
                <div class=""stimulus-container"">
                    <img src=""images/schematic_sequence/restaurant_scheme/restaurant_scheme_4.png"" class=""exp-image"">
                    <div class=""question-area"">
                        <p style=""font-size: 20px; font-weight: bold; margin: 0;"">Is there a person in this image?</p>
                    </div>
                </div>","0","main_experiment_trial","4","restaurant_scheme","schematic_sequence","","","","",""
"","","","","","html-keyboard-response","130","468713","0.0-130.0","BA6C1D9C43874C819E719BAB94A94A51","019cf01e-9b41-7ed6-baf6-6e1287269f81","019ceff9-9f67-7034-9722-02cda2445e09","","null","
                <div class=""stimulus-container"">
                    <img src=""images/schematic_sequence/restaurant_scheme/restaurant_scheme_5.png"" class=""exp-image"">
                    <div class=""question-area""></div> 
                </div>","null","","","","","","","","",""
"","","","","","html-button-response","131","469389","0.0-131.0","BA6C1D9C43874C819E719BAB94A94A51","019cf01e-9b41-7ed6-baf6-6e1287269f81","019ceff9-9f67-7034-9722-02cda2445e09","","674","
                <div class=""stimulus-container"">
                    <img src=""images/schematic_sequence/restaurant_scheme/restaurant_scheme_5.png"" class=""exp-image"">
                    <div class=""question-area"">
                        <p style=""font-size: 20px; font-weight: bold; margin: 0;"">Is there a person in this image?</p>
                    </div>
                </div>","0","main_experiment_trial","5","restaurant_scheme","schematic_sequence","","","","",""
"","","","","","html-keyboard-response","132","474391","0.0-132.0","BA6C1D9C43874C819E719BAB94A94A51","019cf01e-9b41-7ed6-baf6-6e1287269f81","019ceff9-9f67-7034-9722-02cda2445e09","","null","
                <div class=""stimulus-container"">
                    <img src=""images/schematic_sequence/restaurant_scheme/restaurant_scheme_6.png"" class=""exp-image"">
                    <div class=""question-area""></div> 
                </div>","null","","","","","","","","",""
"","","","","","html-button-response","133","475490","0.0-133.0","BA6C1D9C43874C819E719BAB94A94A51","019cf01e-9b41-7ed6-baf6-6e1287269f81","019ceff9-9f67-7034-9722-02cda2445e09","","1097","
                <div class=""stimulus-container"">
                    <img src=""images/schematic_sequence/restaurant_scheme/restaurant_scheme_6.png"" class=""exp-image"">
                    <div class=""question-area"">
                        <p style=""font-size: 20px; font-weight: bold; margin: 0;"">Is there a person in this image?</p>
                    </div>
                </div>","0","main_experiment_trial","6","restaurant_scheme","schematic_sequence","","","","",""
"","","","","","html-keyboard-response","134","480492","0.0-134.0","BA6C1D9C43874C819E719BAB94A94A51","019cf01e-9b41-7ed6-baf6-6e1287269f81","019ceff9-9f67-7034-9722-02cda2445e09","","null","
                <div class=""stimulus-container"">
                    <img src=""images/schematic_sequence/restaurant_scheme/restaurant_scheme_7.png"" class=""exp-image"">
                    <div class=""question-area""></div> 
                </div>","null","","","","","","","","",""
"","","","","","html-button-response","135","481463","0.0-135.0","BA6C1D9C43874C819E719BAB94A94A51","019cf01e-9b41-7ed6-baf6-6e1287269f81","019ceff9-9f67-7034-9722-02cda2445e09","","969","
                <div class=""stimulus-container"">
                    <img src=""images/schematic_sequence/restaurant_scheme/restaurant_scheme_7.png"" class=""exp-image"">
                    <div class=""question-area"">
                        <p style=""font-size: 20px; font-weight: bold; margin: 0;"">Is there a person in this image?</p>
                    </div>
                </div>","1","main_experiment_trial","7","restaurant_scheme","schematic_sequence","","","","",""
"","","","","","html-keyboard-response","136","486465","0.0-136.0","BA6C1D9C43874C819E719BAB94A94A51","019cf01e-9b41-7ed6-baf6-6e1287269f81","019ceff9-9f67-7034-9722-02cda2445e09","","null","
                <div class=""stimulus-container"">
                    <img src=""images/schematic_sequence/restaurant_scheme/restaurant_scheme_8.png"" class=""exp-image"">
                    <div class=""question-area""></div> 
                </div>","null","","","","","","","","",""
"","","","","","html-button-response","137","487253","0.0-137.0","BA6C1D9C43874C819E719BAB94A94A51","019cf01e-9b41-7ed6-baf6-6e1287269f81","019ceff9-9f67-7034-9722-02cda2445e09","","786","
                <div class=""stimulus-container"">
                    <img src=""images/schematic_sequence/restaurant_scheme/restaurant_scheme_8.png"" class=""exp-image"">
                    <div class=""question-area"">
                        <p style=""font-size: 20px; font-weight: bold; margin: 0;"">Is there a person in this image?</p>
                    </div>
                </div>","1","main_experiment_trial","8","restaurant_scheme","schematic_sequence","","","","",""
"","","","","","html-keyboard-response","138","492255","0.0-138.0","BA6C1D9C43874C819E719BAB94A94A51","019cf01e-9b41-7ed6-baf6-6e1287269f81","019ceff9-9f67-7034-9722-02cda2445e09","","null","
                <div class=""stimulus-container"">
                    <img src=""images/schematic_sequence/restaurant_scheme/restaurant_scheme_9.png"" class=""exp-image"">
                    <div class=""question-area""></div> 
                </div>","null","","","","","","","","",""
"","","","","","html-button-response","139","493306","0.0-139.0","BA6C1D9C43874C819E719BAB94A94A51","019cf01e-9b41-7ed6-baf6-6e1287269f81","019ceff9-9f67-7034-9722-02cda2445e09","","1049","
                <div class=""stimulus-container"">
                    <img src=""images/schematic_sequence/restaurant_scheme/restaurant_scheme_9.png"" class=""exp-image"">
                    <div class=""question-area"">
                        <p style=""font-size: 20px; font-weight: bold; margin: 0;"">Is there a person in this image?</p>
                    </div>
                </div>","0","main_experiment_trial","9","restaurant_scheme","schematic_sequence","","","","",""
"","","","","","html-keyboard-response","140","498308","0.0-140.0","BA6C1D9C43874C819E719BAB94A94A51","019cf01e-9b41-7ed6-baf6-6e1287269f81","019ceff9-9f67-7034-9722-02cda2445e09","","null","
                <div class=""stimulus-container"">
                    <img src=""images/schematic_sequence/restaurant_scheme/restaurant_scheme_ten.png"" class=""exp-image"">
                    <div class=""question-area""></div> 
                </div>","null","","","","","","","","",""
"","","","","","html-button-response","141","499486","0.0-141.0","BA6C1D9C43874C819E719BAB94A94A51","019cf01e-9b41-7ed6-baf6-6e1287269f81","019ceff9-9f67-7034-9722-02cda2445e09","","1175","
                <div class=""stimulus-container"">
                    <img src=""images/schematic_sequence/restaurant_scheme/restaurant_scheme_ten.png"" class=""exp-image"">
                    <div class=""question-area"">
                        <p style=""font-size: 20px; font-weight: bold; margin: 0;"">Is there a person in this image?</p>
                    </div>
                </div>","0","main_experiment_trial","ten","restaurant_scheme","schematic_sequence","","","","",""
"","","","","","html-keyboard-response","142","500487","0.0-142.0","BA6C1D9C43874C819E719BAB94A94A51","019cf01e-9b41-7ed6-baf6-6e1287269f81","019ceff9-9f67-7034-9722-02cda2445e09","","null","<div style=""background-color: white; width: 100vw; height: 100vh;""></div>","null","","","","","","","","",""
"","","","","","html-keyboard-response","143","505489","0.0-143.0","BA6C1D9C43874C819E719BAB94A94A51","019cf01e-9b41-7ed6-baf6-6e1287269f81","019ceff9-9f67-7034-9722-02cda2445e09","","null","
                <div class=""stimulus-container"">
                    <img src=""images/causal_sequence/coin_causal/coin_causal_1.png"" class=""exp-image"">
                    <div class=""question-area""></div> 
                </div>","null","","","","","","","","",""
"","","","","","html-button-response","144","506004","0.0-144.0","BA6C1D9C43874C819E719BAB94A94A51","019cf01e-9b41-7ed6-baf6-6e1287269f81","019ceff9-9f67-7034-9722-02cda2445e09","","513","
                <div class=""stimulus-container"">
                    <img src=""images/causal_sequence/coin_causal/coin_causal_1.png"" class=""exp-image"">
                    <div class=""question-area"">
                        <p style=""font-size: 20px; font-weight: bold; margin: 0;"">Is there a person in this image?</p>
                    </div>
                </div>","0","main_experiment_trial","1","coin_causal","causal_sequence","","","","",""
"","","","","","html-keyboard-response","145","511006","0.0-145.0","BA6C1D9C43874C819E719BAB94A94A51","019cf01e-9b41-7ed6-baf6-6e1287269f81","019ceff9-9f67-7034-9722-02cda2445e09","","null","
                <div class=""stimulus-container"">
                    <img src=""images/causal_sequence/coin_causal/coin_causal_2.png"" class=""exp-image"">
                    <div class=""question-area""></div> 
                </div>","null","","","","","","","","",""
"","","","","","html-button-response","146","511482","0.0-146.0","BA6C1D9C43874C819E719BAB94A94A51","019cf01e-9b41-7ed6-baf6-6e1287269f81","019ceff9-9f67-7034-9722-02cda2445e09","","474","
                <div class=""stimulus-container"">
                    <img src=""images/causal_sequence/coin_causal/coin_causal_2.png"" class=""exp-image"">
                    <div class=""question-area"">
                        <p style=""font-size: 20px; font-weight: bold; margin: 0;"">Is there a person in this image?</p>
                    </div>
                </div>","0","main_experiment_trial","2","coin_causal","causal_sequence","","","","",""
"","","","","","html-keyboard-response","147","516484","0.0-147.0","BA6C1D9C43874C819E719BAB94A94A51","019cf01e-9b41-7ed6-baf6-6e1287269f81","019ceff9-9f67-7034-9722-02cda2445e09","","null","
                <div class=""stimulus-container"">
                    <img src=""images/causal_sequence/coin_causal/coin_causal_3.png"" class=""exp-image"">
                    <div class=""question-area""></div> 
                </div>","null","","","","","","","","",""
"","","","","","html-button-response","148","517927","0.0-148.0","BA6C1D9C43874C819E719BAB94A94A51","019cf01e-9b41-7ed6-baf6-6e1287269f81","019ceff9-9f67-7034-9722-02cda2445e09","","1442","
                <div class=""stimulus-container"">
                    <img src=""images/causal_sequence/coin_causal/coin_causal_3.png"" class=""exp-image"">
                    <div class=""question-area"">
                        <p style=""font-size: 20px; font-weight: bold; margin: 0;"">Is there a person in this image?</p>
                    </div>
                </div>","0","main_experiment_trial","3","coin_causal","causal_sequence","","","","",""
"","","","","","html-keyboard-response","149","522929","0.0-149.0","BA6C1D9C43874C819E719BAB94A94A51","019cf01e-9b41-7ed6-baf6-6e1287269f81","019ceff9-9f67-7034-9722-02cda2445e09","","null","
                <div class=""stimulus-container"">
                    <img src=""images/causal_sequence/coin_causal/coin_causal_4.png"" class=""exp-image"">
                    <div class=""question-area""></div> 
                </div>","null","","","","","","","","",""
"","","","","","html-button-response","150","523445","0.0-150.0","BA6C1D9C43874C819E719BAB94A94A51","019cf01e-9b41-7ed6-baf6-6e1287269f81","019ceff9-9f67-7034-9722-02cda2445e09","","514","
                <div class=""stimulus-container"">
                    <img src=""images/causal_sequence/coin_causal/coin_causal_4.png"" class=""exp-image"">
                    <div class=""question-area"">
                        <p style=""font-size: 20px; font-weight: bold; margin: 0;"">Is there a person in this image?</p>
                    </div>
                </div>","0","main_experiment_trial","4","coin_causal","causal_sequence","","","","",""
"","","","","","html-keyboard-response","151","528447","0.0-151.0","BA6C1D9C43874C819E719BAB94A94A51","019cf01e-9b41-7ed6-baf6-6e1287269f81","019ceff9-9f67-7034-9722-02cda2445e09","","null","
                <div class=""stimulus-container"">
                    <img src=""images/causal_sequence/coin_causal/coin_causal_5.png"" class=""exp-image"">
                    <div class=""question-area""></div> 
                </div>","null","","","","","","","","",""
"","","","","","html-button-response","152","529034","0.0-152.0","BA6C1D9C43874C819E719BAB94A94A51","019cf01e-9b41-7ed6-baf6-6e1287269f81","019ceff9-9f67-7034-9722-02cda2445e09","","585","
                <div class=""stimulus-container"">
                    <img src=""images/causal_sequence/coin_causal/coin_causal_5.png"" class=""exp-image"">
                    <div class=""question-area"">
                        <p style=""font-size: 20px; font-weight: bold; margin: 0;"">Is there a person in this image?</p>
                    </div>
                </div>","0","main_experiment_trial","5","coin_causal","causal_sequence","","","","",""
"","","","","","html-keyboard-response","153","534036","0.0-153.0","BA6C1D9C43874C819E719BAB94A94A51","019cf01e-9b41-7ed6-baf6-6e1287269f81","019ceff9-9f67-7034-9722-02cda2445e09","","null","
                <div class=""stimulus-container"">
                    <img src=""images/causal_sequence/coin_causal/coin_causal_6.png"" class=""exp-image"">
                    <div class=""question-area""></div> 
                </div>","null","","","","","","","","",""
"","","","","","html-button-response","154","535046","0.0-154.0","BA6C1D9C43874C819E719BAB94A94A51","019cf01e-9b41-7ed6-baf6-6e1287269f81","019ceff9-9f67-7034-9722-02cda2445e09","","1009","
                <div class=""stimulus-container"">
                    <img src=""images/causal_sequence/coin_causal/coin_causal_6.png"" class=""exp-image"">
                    <div class=""question-area"">
                        <p style=""font-size: 20px; font-weight: bold; margin: 0;"">Is there a person in this image?</p>
                    </div>
                </div>","0","main_experiment_trial","6","coin_causal","causal_sequence","","","","",""
"","","","","","html-keyboard-response","155","540048","0.0-155.0","BA6C1D9C43874C819E719BAB94A94A51","019cf01e-9b41-7ed6-baf6-6e1287269f81","019ceff9-9f67-7034-9722-02cda2445e09","","null","
                <div class=""stimulus-container"">
                    <img src=""images/causal_sequence/coin_causal/coin_causal_7.png"" class=""exp-image"">
                    <div class=""question-area""></div> 
                </div>","null","","","","","","","","",""
"","","","","","html-button-response","156","540637","0.0-156.0","BA6C1D9C43874C819E719BAB94A94A51","019cf01e-9b41-7ed6-baf6-6e1287269f81","019ceff9-9f67-7034-9722-02cda2445e09","","586","
                <div class=""stimulus-container"">
                    <img src=""images/causal_sequence/coin_causal/coin_causal_7.png"" class=""exp-image"">
                    <div class=""question-area"">
                        <p style=""font-size: 20px; font-weight: bold; margin: 0;"">Is there a person in this image?</p>
                    </div>
                </div>","1","main_experiment_trial","7","coin_causal","causal_sequence","","","","",""
"","","","","","html-keyboard-response","157","545639","0.0-157.0","BA6C1D9C43874C819E719BAB94A94A51","019cf01e-9b41-7ed6-baf6-6e1287269f81","019ceff9-9f67-7034-9722-02cda2445e09","","null","
                <div class=""stimulus-container"">
                    <img src=""images/causal_sequence/coin_causal/coin_causal_8.png"" class=""exp-image"">
                    <div class=""question-area""></div> 
                </div>","null","","","","","","","","",""
"","","","","","html-button-response","158","547130","0.0-158.0","BA6C1D9C43874C819E719BAB94A94A51","019cf01e-9b41-7ed6-baf6-6e1287269f81","019ceff9-9f67-7034-9722-02cda2445e09","","1489","
                <div class=""stimulus-container"">
                    <img src=""images/causal_sequence/coin_causal/coin_causal_8.png"" class=""exp-image"">
                    <div class=""question-area"">
                        <p style=""font-size: 20px; font-weight: bold; margin: 0;"">Is there a person in this image?</p>
                    </div>
                </div>","0","main_experiment_trial","8","coin_causal","causal_sequence","","","","",""
"","","","","","html-keyboard-response","159","552132","0.0-159.0","BA6C1D9C43874C819E719BAB94A94A51","019cf01e-9b41-7ed6-baf6-6e1287269f81","019ceff9-9f67-7034-9722-02cda2445e09","","null","
                <div class=""stimulus-container"">
                    <img src=""images/causal_sequence/coin_causal/coin_causal_9.png"" class=""exp-image"">
                    <div class=""question-area""></div> 
                </div>","null","","","","","","","","",""
"","","","","","html-button-response","160","552935","0.0-160.0","BA6C1D9C43874C819E719BAB94A94A51","019cf01e-9b41-7ed6-baf6-6e1287269f81","019ceff9-9f67-7034-9722-02cda2445e09","","801","
                <div class=""stimulus-container"">
                    <img src=""images/causal_sequence/coin_causal/coin_causal_9.png"" class=""exp-image"">
                    <div class=""question-area"">
                        <p style=""font-size: 20px; font-weight: bold; margin: 0;"">Is there a person in this image?</p>
                    </div>
                </div>","0","main_experiment_trial","9","coin_causal","causal_sequence","","","","",""
"","","","","","html-keyboard-response","161","557937","0.0-161.0","BA6C1D9C43874C819E719BAB94A94A51","019cf01e-9b41-7ed6-baf6-6e1287269f81","019ceff9-9f67-7034-9722-02cda2445e09","","null","
                <div class=""stimulus-container"">
                    <img src=""images/causal_sequence/coin_causal/coin_causal_ten.png"" class=""exp-image"">
                    <div class=""question-area""></div> 
                </div>","null","","","","","","","","",""
"","","","","","html-button-response","162","558125","0.0-162.0","BA6C1D9C43874C819E719BAB94A94A51","019cf01e-9b41-7ed6-baf6-6e1287269f81","019ceff9-9f67-7034-9722-02cda2445e09","","186","
                <div class=""stimulus-container"">
                    <img src=""images/causal_sequence/coin_causal/coin_causal_ten.png"" class=""exp-image"">
                    <div class=""question-area"">
                        <p style=""font-size: 20px; font-weight: bold; margin: 0;"">Is there a person in this image?</p>
                    </div>
                </div>","0","main_experiment_trial","ten","coin_causal","causal_sequence","","","","",""
"","","","","","html-keyboard-response","163","559127","0.0-163.0","BA6C1D9C43874C819E719BAB94A94A51","019cf01e-9b41-7ed6-baf6-6e1287269f81","019ceff9-9f67-7034-9722-02cda2445e09","","null","<div style=""background-color: white; width: 100vw; height: 100vh;""></div>","null","","","","","","","","",""
"","","","","","html-keyboard-response","164","564129","0.0-164.0","BA6C1D9C43874C819E719BAB94A94A51","019cf01e-9b41-7ed6-baf6-6e1287269f81","019ceff9-9f67-7034-9722-02cda2445e09","","null","
                <div class=""stimulus-container"">
                    <img src=""images/schematic_sequence/flight_scheme/flight_scheme_1.png"" class=""exp-image"">
                    <div class=""question-area""></div> 
                </div>","null","","","","","","","","",""
"","","","","","html-button-response","165","565361","0.0-165.0","BA6C1D9C43874C819E719BAB94A94A51","019cf01e-9b41-7ed6-baf6-6e1287269f81","019ceff9-9f67-7034-9722-02cda2445e09","","1231","
                <div class=""stimulus-container"">
                    <img src=""images/schematic_sequence/flight_scheme/flight_scheme_1.png"" class=""exp-image"">
                    <div class=""question-area"">
                        <p style=""font-size: 20px; font-weight: bold; margin: 0;"">Is there a person in this image?</p>
                    </div>
                </div>","1","main_experiment_trial","1","flight_scheme","schematic_sequence","","","","",""
"","","","","","html-keyboard-response","166","570362","0.0-166.0","BA6C1D9C43874C819E719BAB94A94A51","019cf01e-9b41-7ed6-baf6-6e1287269f81","019ceff9-9f67-7034-9722-02cda2445e09","","null","
                <div class=""stimulus-container"">
                    <img src=""images/schematic_sequence/flight_scheme/flight_scheme_2.png"" class=""exp-image"">
                    <div class=""question-area""></div> 
                </div>","null","","","","","","","","",""
"","","","","","html-button-response","167","572910","0.0-167.0","BA6C1D9C43874C819E719BAB94A94A51","019cf01e-9b41-7ed6-baf6-6e1287269f81","019ceff9-9f67-7034-9722-02cda2445e09","","2546","
                <div class=""stimulus-container"">
                    <img src=""images/schematic_sequence/flight_scheme/flight_scheme_2.png"" class=""exp-image"">
                    <div class=""question-area"">
                        <p style=""font-size: 20px; font-weight: bold; margin: 0;"">Is there a person in this image?</p>
                    </div>
                </div>","1","main_experiment_trial","2","flight_scheme","schematic_sequence","","","","",""
"","","","","","html-keyboard-response","168","577913","0.0-168.0","BA6C1D9C43874C819E719BAB94A94A51","019cf01e-9b41-7ed6-baf6-6e1287269f81","019ceff9-9f67-7034-9722-02cda2445e09","","null","
                <div class=""stimulus-container"">
                    <img src=""images/schematic_sequence/flight_scheme/flight_scheme_3.png"" class=""exp-image"">
                    <div class=""question-area""></div> 
                </div>","null","","","","","","","","",""
"","","","","","html-button-response","169","578914","0.0-169.0","BA6C1D9C43874C819E719BAB94A94A51","019cf01e-9b41-7ed6-baf6-6e1287269f81","019ceff9-9f67-7034-9722-02cda2445e09","","999","
                <div class=""stimulus-container"">
                    <img src=""images/schematic_sequence/flight_scheme/flight_scheme_3.png"" class=""exp-image"">
                    <div class=""question-area"">
                        <p style=""font-size: 20px; font-weight: bold; margin: 0;"">Is there a person in this image?</p>
                    </div>
                </div>","0","main_experiment_trial","3","flight_scheme","schematic_sequence","","","","",""
"","","","","","html-keyboard-response","170","583915","0.0-170.0","BA6C1D9C43874C819E719BAB94A94A51","019cf01e-9b41-7ed6-baf6-6e1287269f81","019ceff9-9f67-7034-9722-02cda2445e09","","null","
                <div class=""stimulus-container"">
                    <img src=""images/schematic_sequence/flight_scheme/flight_scheme_4.png"" class=""exp-image"">
                    <div class=""question-area""></div> 
                </div>","null","","","","","","","","",""
"","","","","","html-button-response","171","585273","0.0-171.0","BA6C1D9C43874C819E719BAB94A94A51","019cf01e-9b41-7ed6-baf6-6e1287269f81","019ceff9-9f67-7034-9722-02cda2445e09","","1355","
                <div class=""stimulus-container"">
                    <img src=""images/schematic_sequence/flight_scheme/flight_scheme_4.png"" class=""exp-image"">
                    <div class=""question-area"">
                        <p style=""font-size: 20px; font-weight: bold; margin: 0;"">Is there a person in this image?</p>
                    </div>
                </div>","0","main_experiment_trial","4","flight_scheme","schematic_sequence","","","","",""
"","","","","","html-keyboard-response","172","590276","0.0-172.0","BA6C1D9C43874C819E719BAB94A94A51","019cf01e-9b41-7ed6-baf6-6e1287269f81","019ceff9-9f67-7034-9722-02cda2445e09","","null","
                <div class=""stimulus-container"">
                    <img src=""images/schematic_sequence/flight_scheme/flight_scheme_5.png"" class=""exp-image"">
                    <div class=""question-area""></div> 
                </div>","null","","","","","","","","",""
"","","","","","html-button-response","173","592334","0.0-173.0","BA6C1D9C43874C819E719BAB94A94A51","019cf01e-9b41-7ed6-baf6-6e1287269f81","019ceff9-9f67-7034-9722-02cda2445e09","","2055","
                <div class=""stimulus-container"">
                    <img src=""images/schematic_sequence/flight_scheme/flight_scheme_5.png"" class=""exp-image"">
                    <div class=""question-area"">
                        <p style=""font-size: 20px; font-weight: bold; margin: 0;"">Is there a person in this image?</p>
                    </div>
                </div>","0","main_experiment_trial","5","flight_scheme","schematic_sequence","","","","",""
"","","","","","html-keyboard-response","174","597336","0.0-174.0","BA6C1D9C43874C819E719BAB94A94A51","019cf01e-9b41-7ed6-baf6-6e1287269f81","019ceff9-9f67-7034-9722-02cda2445e09","","null","
                <div class=""stimulus-container"">
                    <img src=""images/schematic_sequence/flight_scheme/flight_scheme_6.png"" class=""exp-image"">
                    <div class=""question-area""></div> 
                </div>","null","","","","","","","","",""
"","","","","","html-button-response","175","598601","0.0-175.0","BA6C1D9C43874C819E719BAB94A94A51","019cf01e-9b41-7ed6-baf6-6e1287269f81","019ceff9-9f67-7034-9722-02cda2445e09","","1262","
                <div class=""stimulus-container"">
                    <img src=""images/schematic_sequence/flight_scheme/flight_scheme_6.png"" class=""exp-image"">
                    <div class=""question-area"">
                        <p style=""font-size: 20px; font-weight: bold; margin: 0;"">Is there a person in this image?</p>
                    </div>
                </div>","1","main_experiment_trial","6","flight_scheme","schematic_sequence","","","","",""
"","","","","","html-keyboard-response","176","603603","0.0-176.0","BA6C1D9C43874C819E719BAB94A94A51","019cf01e-9b41-7ed6-baf6-6e1287269f81","019ceff9-9f67-7034-9722-02cda2445e09","","null","
                <div class=""stimulus-container"">
                    <img src=""images/schematic_sequence/flight_scheme/flight_scheme_7.png"" class=""exp-image"">
                    <div class=""question-area""></div> 
                </div>","null","","","","","","","","",""
"","","","","","html-button-response","177","604568","0.0-177.0","BA6C1D9C43874C819E719BAB94A94A51","019cf01e-9b41-7ed6-baf6-6e1287269f81","019ceff9-9f67-7034-9722-02cda2445e09","","963","
                <div class=""stimulus-container"">
                    <img src=""images/schematic_sequence/flight_scheme/flight_scheme_7.png"" class=""exp-image"">
                    <div class=""question-area"">
                        <p style=""font-size: 20px; font-weight: bold; margin: 0;"">Is there a person in this image?</p>
                    </div>
                </div>","1","main_experiment_trial","7","flight_scheme","schematic_sequence","","","","",""
"","","","","","html-keyboard-response","178","609570","0.0-178.0","BA6C1D9C43874C819E719BAB94A94A51","019cf01e-9b41-7ed6-baf6-6e1287269f81","019ceff9-9f67-7034-9722-02cda2445e09","","null","
                <div class=""stimulus-container"">
                    <img src=""images/schematic_sequence/flight_scheme/flight_scheme_8.png"" class=""exp-image"">
                    <div class=""question-area""></div> 
                </div>","null","","","","","","","","",""
"","","","","","html-button-response","179","611022","0.0-179.0","BA6C1D9C43874C819E719BAB94A94A51","019cf01e-9b41-7ed6-baf6-6e1287269f81","019ceff9-9f67-7034-9722-02cda2445e09","","1449","
                <div class=""stimulus-container"">
                    <img src=""images/schematic_sequence/flight_scheme/flight_scheme_8.png"" class=""exp-image"">
                    <div class=""question-area"">
                        <p style=""font-size: 20px; font-weight: bold; margin: 0;"">Is there a person in this image?</p>
                    </div>
                </div>","1","main_experiment_trial","8","flight_scheme","schematic_sequence","","","","",""
"","","","","","html-keyboard-response","180","616024","0.0-180.0","BA6C1D9C43874C819E719BAB94A94A51","019cf01e-9b41-7ed6-baf6-6e1287269f81","019ceff9-9f67-7034-9722-02cda2445e09","","null","
                <div class=""stimulus-container"">
                    <img src=""images/schematic_sequence/flight_scheme/flight_scheme_9.png"" class=""exp-image"">
                    <div class=""question-area""></div> 
                </div>","null","","","","","","","","",""
"","","","","","html-button-response","181","617586","0.0-181.0","BA6C1D9C43874C819E719BAB94A94A51","019cf01e-9b41-7ed6-baf6-6e1287269f81","019ceff9-9f67-7034-9722-02cda2445e09","","1560","
                <div class=""stimulus-container"">
                    <img src=""images/schematic_sequence/flight_scheme/flight_scheme_9.png"" class=""exp-image"">
                    <div class=""question-area"">
                        <p style=""font-size: 20px; font-weight: bold; margin: 0;"">Is there a person in this image?</p>
                    </div>
                </div>","0","main_experiment_trial","9","flight_scheme","schematic_sequence","","","","",""
"","","","","","html-keyboard-response","182","622588","0.0-182.0","BA6C1D9C43874C819E719BAB94A94A51","019cf01e-9b41-7ed6-baf6-6e1287269f81","019ceff9-9f67-7034-9722-02cda2445e09","","null","
                <div class=""stimulus-container"">
                    <img src=""images/schematic_sequence/flight_scheme/flight_scheme_ten.png"" class=""exp-image"">
                    <div class=""question-area""></div> 
                </div>","null","","","","","","","","",""
"","","","","","html-button-response","183","623991","0.0-183.0","BA6C1D9C43874C819E719BAB94A94A51","019cf01e-9b41-7ed6-baf6-6e1287269f81","019ceff9-9f67-7034-9722-02cda2445e09","","1401","
                <div class=""stimulus-container"">
                    <img src=""images/schematic_sequence/flight_scheme/flight_scheme_ten.png"" class=""exp-image"">
                    <div class=""question-area"">
                        <p style=""font-size: 20px; font-weight: bold; margin: 0;"">Is there a person in this image?</p>
                    </div>
                </div>","0","main_experiment_trial","ten","flight_scheme","schematic_sequence","","","","",""
