"success","timeout","failed_images","failed_audio","failed_video","trial_type","trial_index","time_elapsed","internal_node_id","subject_id","study_id","session_id","view_history","rt","stimulus","response","task","image_index","folder","sequence_type","presentation_order","valuable_image_index","reward_type","target_X","l_dist","r_dist","chosen_image_index","selected_after_X","correct_choice"
"true","false","[]","[]","[]","preload","0","3483","0.0-0.0","5D3D8EC7F436465E8B123007FB05984C","019d666a-197d-7f8d-8a7d-31bab3db4d5c","019d6630-2071-75cb-8026-6699844a2719","","","","","","","","","","","","","","","","",""
"","","","","","instructions","1","6264","0.0-1.0","5D3D8EC7F436465E8B123007FB05984C","019d666a-197d-7f8d-8a7d-31bab3db4d5c","019d6630-2071-75cb-8026-6699844a2719","[{""page_index"":0,""viewing_time"":2780}]","2780","","","","","","","","","","","","","","",""
"","","","","","instructions","2","11049","0.0-2.0","5D3D8EC7F436465E8B123007FB05984C","019d666a-197d-7f8d-8a7d-31bab3db4d5c","019d6630-2071-75cb-8026-6699844a2719","[{""page_index"":0,""viewing_time"":4785}]","4785","","","","","","","","","","","","","","",""
"true","","","","","fullscreen","3","13600","0.0-3.0","5D3D8EC7F436465E8B123007FB05984C","019d666a-197d-7f8d-8a7d-31bab3db4d5c","019d6630-2071-75cb-8026-6699844a2719","","1548","","","","","","","","","","","","","","",""
"","","","","","instructions","4","22466","0.0-4.0","5D3D8EC7F436465E8B123007FB05984C","019d666a-197d-7f8d-8a7d-31bab3db4d5c","019d6630-2071-75cb-8026-6699844a2719","[{""page_index"":0,""viewing_time"":8866}]","8866","","","","","","","","","","","","","","",""
"","","","","","instructions","5","32067","0.0-5.0","5D3D8EC7F436465E8B123007FB05984C","019d666a-197d-7f8d-8a7d-31bab3db4d5c","019d6630-2071-75cb-8026-6699844a2719","[{""page_index"":0,""viewing_time"":9599}]","9599","","","","","","","","","","","","","","",""
"","","","","","html-keyboard-response","6","36069","0.0-6.0","5D3D8EC7F436465E8B123007FB05984C","019d666a-197d-7f8d-8a7d-31bab3db4d5c","019d6630-2071-75cb-8026-6699844a2719","","null","
                <div class=""stimulus-container"">
                    <img src=""images/instructions/movie_1.png"" class=""exp-image"">
                    <div class=""question-area""></div> 
                </div>","null","","","","","","","","","","","","",""
"","","","","","html-button-response","7","37817","0.0-7.0","5D3D8EC7F436465E8B123007FB05984C","019d666a-197d-7f8d-8a7d-31bab3db4d5c","019d6630-2071-75cb-8026-6699844a2719","","1746","
                <div class=""stimulus-container"">
                    <img src=""images/instructions/movie_1.png"" class=""exp-image"">
                    <div class=""question-area"">
                        <p style=""font-size: 20px; font-weight: bold; margin: 0;"">Was there a person in this image?</p>
                    </div>
                </div>","0","example_question","1","","","","","","","","","","",""
"","","","","","html-keyboard-response","8","41819","0.0-8.0","5D3D8EC7F436465E8B123007FB05984C","019d666a-197d-7f8d-8a7d-31bab3db4d5c","019d6630-2071-75cb-8026-6699844a2719","","null","
                <div class=""stimulus-container"">
                    <img src=""images/instructions/movie_2.png"" class=""exp-image"">
                    <div class=""question-area""></div> 
                </div>","null","","","","","","","","","","","","",""
"","","","","","html-button-response","9","43516","0.0-9.0","5D3D8EC7F436465E8B123007FB05984C","019d666a-197d-7f8d-8a7d-31bab3db4d5c","019d6630-2071-75cb-8026-6699844a2719","","1695","
                <div class=""stimulus-container"">
                    <img src=""images/instructions/movie_2.png"" class=""exp-image"">
                    <div class=""question-area"">
                        <p style=""font-size: 20px; font-weight: bold; margin: 0;"">Was there a person in this image?</p>
                    </div>
                </div>","0","example_question","2","","","","","","","","","","",""
"","","","","","html-keyboard-response","10","47517","0.0-10.0","5D3D8EC7F436465E8B123007FB05984C","019d666a-197d-7f8d-8a7d-31bab3db4d5c","019d6630-2071-75cb-8026-6699844a2719","","null","
                <div class=""stimulus-container"">
                    <img src=""images/instructions/movie_3.png"" class=""exp-image"">
                    <div class=""question-area""></div> 
                </div>","null","","","","","","","","","","","","",""
"","","","","","html-button-response","11","50520","0.0-11.0","5D3D8EC7F436465E8B123007FB05984C","019d666a-197d-7f8d-8a7d-31bab3db4d5c","019d6630-2071-75cb-8026-6699844a2719","","null","
                <div class=""stimulus-container"">
                    <img src=""images/instructions/movie_3.png"" class=""exp-image"">
                    <div class=""question-area"">
                        <p style=""font-size: 20px; font-weight: bold; margin: 0;"">Was there a person in this image?</p>
                    </div>
                </div>","null","example_question","3","","","","","","","","","","",""
"","","","","","html-keyboard-response","12","54522","0.0-12.0","5D3D8EC7F436465E8B123007FB05984C","019d666a-197d-7f8d-8a7d-31bab3db4d5c","019d6630-2071-75cb-8026-6699844a2719","","null","
                <div class=""stimulus-container"">
                    <img src=""images/instructions/movie_4.png"" class=""exp-image"">
                    <div class=""question-area""></div> 
                </div>","null","","","","","","","","","","","","",""
"","","","","","html-button-response","13","55367","0.0-13.0","5D3D8EC7F436465E8B123007FB05984C","019d666a-197d-7f8d-8a7d-31bab3db4d5c","019d6630-2071-75cb-8026-6699844a2719","","843","
                <div class=""stimulus-container"">
                    <img src=""images/instructions/movie_4.png"" class=""exp-image"">
                    <div class=""question-area"">
                        <p style=""font-size: 20px; font-weight: bold; margin: 0;"">Was there a person in this image?</p>
                    </div>
                </div>","0","example_question","4","","","","","","","","","","",""
"","","","","","instructions","14","57850","0.0-14.0","5D3D8EC7F436465E8B123007FB05984C","019d666a-197d-7f8d-8a7d-31bab3db4d5c","019d6630-2071-75cb-8026-6699844a2719","[{""page_index"":0,""viewing_time"":2481}]","2482","","","","","","","","","","","","","","",""
"","","","","","instructions","15","64200","0.0-15.0","5D3D8EC7F436465E8B123007FB05984C","019d666a-197d-7f8d-8a7d-31bab3db4d5c","019d6630-2071-75cb-8026-6699844a2719","[{""page_index"":0,""viewing_time"":6349}]","6349","","","","","","","","","","","","","","",""
"","","","","","html-keyboard-response","16","69201","0.0-16.0","5D3D8EC7F436465E8B123007FB05984C","019d666a-197d-7f8d-8a7d-31bab3db4d5c","019d6630-2071-75cb-8026-6699844a2719","","null","<div style=""background-color: white; width: 100vw; height: 100vh;""></div>","null","","","","","","","","","","","","",""
"","","","","","html-keyboard-response","17","74203","0.0-17.0","5D3D8EC7F436465E8B123007FB05984C","019d666a-197d-7f8d-8a7d-31bab3db4d5c","019d6630-2071-75cb-8026-6699844a2719","","null","
                <div class=""stimulus-container"">
                    <img src=""images/schematic_sequence/restaurant_scheme/restaurant_scheme_1.png"" class=""exp-image"">
                    <div class=""question-area""></div> 
                </div>","null","","","","","","","","","","","","",""
"","","","","","html-button-response","18","74916","0.0-18.0","5D3D8EC7F436465E8B123007FB05984C","019d666a-197d-7f8d-8a7d-31bab3db4d5c","019d6630-2071-75cb-8026-6699844a2719","","711","
                <div class=""stimulus-container"">
                    <img src=""images/schematic_sequence/restaurant_scheme/restaurant_scheme_1.png"" class=""exp-image"">
                    <div class=""question-area"">
                        <p style=""font-size: 20px; font-weight: bold; margin: 0;"">Is there a person in this image?</p>
                    </div>
                </div>","0","main_experiment_trial","1","restaurant_scheme","schematic_sequence","chronological","","","","","","","",""
"","","","","","html-keyboard-response","19","79918","0.0-19.0","5D3D8EC7F436465E8B123007FB05984C","019d666a-197d-7f8d-8a7d-31bab3db4d5c","019d6630-2071-75cb-8026-6699844a2719","","null","
                <div class=""stimulus-container"">
                    <img src=""images/schematic_sequence/restaurant_scheme/restaurant_scheme_2.png"" class=""exp-image"">
                    <div class=""question-area""></div> 
                </div>","null","","","","","","","","","","","","",""
"","","","","","html-button-response","20","80699","0.0-20.0","5D3D8EC7F436465E8B123007FB05984C","019d666a-197d-7f8d-8a7d-31bab3db4d5c","019d6630-2071-75cb-8026-6699844a2719","","781","
                <div class=""stimulus-container"">
                    <img src=""images/schematic_sequence/restaurant_scheme/restaurant_scheme_2.png"" class=""exp-image"">
                    <div class=""question-area"">
                        <p style=""font-size: 20px; font-weight: bold; margin: 0;"">Is there a person in this image?</p>
                    </div>
                </div>","1","main_experiment_trial","2","restaurant_scheme","schematic_sequence","chronological","","","","","","","",""
"","","","","","html-keyboard-response","21","85701","0.0-21.0","5D3D8EC7F436465E8B123007FB05984C","019d666a-197d-7f8d-8a7d-31bab3db4d5c","019d6630-2071-75cb-8026-6699844a2719","","null","
                <div class=""stimulus-container"">
                    <img src=""images/schematic_sequence/restaurant_scheme/restaurant_scheme_3.png"" class=""exp-image"">
                    <div class=""question-area""></div> 
                </div>","null","","","","","","","","","","","","",""
"","","","","","html-button-response","22","86632","0.0-22.0","5D3D8EC7F436465E8B123007FB05984C","019d666a-197d-7f8d-8a7d-31bab3db4d5c","019d6630-2071-75cb-8026-6699844a2719","","929","
                <div class=""stimulus-container"">
                    <img src=""images/schematic_sequence/restaurant_scheme/restaurant_scheme_3.png"" class=""exp-image"">
                    <div class=""question-area"">
                        <p style=""font-size: 20px; font-weight: bold; margin: 0;"">Is there a person in this image?</p>
                    </div>
                </div>","1","main_experiment_trial","3","restaurant_scheme","schematic_sequence","chronological","","","","","","","",""
"","","","","","html-keyboard-response","23","91634","0.0-23.0","5D3D8EC7F436465E8B123007FB05984C","019d666a-197d-7f8d-8a7d-31bab3db4d5c","019d6630-2071-75cb-8026-6699844a2719","","null","
                <div class=""stimulus-container"">
                    <img src=""images/schematic_sequence/restaurant_scheme/restaurant_scheme_4.png"" class=""exp-image"">
                    <div class=""question-area""></div> 
                </div>","null","","","","","","","","","","","","",""
"","","","","","html-button-response","24","92816","0.0-24.0","5D3D8EC7F436465E8B123007FB05984C","019d666a-197d-7f8d-8a7d-31bab3db4d5c","019d6630-2071-75cb-8026-6699844a2719","","1180","
                <div class=""stimulus-container"">
                    <img src=""images/schematic_sequence/restaurant_scheme/restaurant_scheme_4.png"" class=""exp-image"">
                    <div class=""question-area"">
                        <p style=""font-size: 20px; font-weight: bold; margin: 0;"">Is there a person in this image?</p>
                    </div>
                </div>","0","main_experiment_trial","4","restaurant_scheme","schematic_sequence","chronological","","","","","","","",""
"","","","","","html-keyboard-response","25","97818","0.0-25.0","5D3D8EC7F436465E8B123007FB05984C","019d666a-197d-7f8d-8a7d-31bab3db4d5c","019d6630-2071-75cb-8026-6699844a2719","","null","
                <div class=""stimulus-container"">
                    <img src=""images/schematic_sequence/restaurant_scheme/restaurant_scheme_5.png"" class=""exp-image"">
                    <div class=""question-area""></div> 
                </div>","null","","","","","","","","","","","","",""
"","","","","","html-button-response","26","98967","0.0-26.0","5D3D8EC7F436465E8B123007FB05984C","019d666a-197d-7f8d-8a7d-31bab3db4d5c","019d6630-2071-75cb-8026-6699844a2719","","1149","
                <div class=""stimulus-container"">
                    <img src=""images/schematic_sequence/restaurant_scheme/restaurant_scheme_5.png"" class=""exp-image"">
                    <div class=""question-area"">
                        <p style=""font-size: 20px; font-weight: bold; margin: 0;"">Is there a person in this image?</p>
                    </div>
                </div>","0","main_experiment_trial","5","restaurant_scheme","schematic_sequence","chronological","","","","","","","",""
"","","","","","html-keyboard-response","27","103969","0.0-27.0","5D3D8EC7F436465E8B123007FB05984C","019d666a-197d-7f8d-8a7d-31bab3db4d5c","019d6630-2071-75cb-8026-6699844a2719","","null","
                <div class=""stimulus-container"">
                    <img src=""images/schematic_sequence/restaurant_scheme/restaurant_scheme_6.png"" class=""exp-image"">
                    <div class=""question-area""></div> 
                </div>","null","","","","","","","","","","","","",""
"","","","","","html-button-response","28","105632","0.0-28.0","5D3D8EC7F436465E8B123007FB05984C","019d666a-197d-7f8d-8a7d-31bab3db4d5c","019d6630-2071-75cb-8026-6699844a2719","","1662","
                <div class=""stimulus-container"">
                    <img src=""images/schematic_sequence/restaurant_scheme/restaurant_scheme_6.png"" class=""exp-image"">
                    <div class=""question-area"">
                        <p style=""font-size: 20px; font-weight: bold; margin: 0;"">Is there a person in this image?</p>
                    </div>
                </div>","1","main_experiment_trial","6","restaurant_scheme","schematic_sequence","chronological","","","","","","","",""
"","","","","","html-keyboard-response","29","110634","0.0-29.0","5D3D8EC7F436465E8B123007FB05984C","019d666a-197d-7f8d-8a7d-31bab3db4d5c","019d6630-2071-75cb-8026-6699844a2719","","null","
                <div class=""stimulus-container"">
                    <img src=""images/schematic_sequence/restaurant_scheme/restaurant_scheme_7.png"" class=""exp-image"">
                    <div class=""question-area""></div> 
                </div>","null","","","","","","","","","","","","",""
"","","","","","html-button-response","30","111400","0.0-30.0","5D3D8EC7F436465E8B123007FB05984C","019d666a-197d-7f8d-8a7d-31bab3db4d5c","019d6630-2071-75cb-8026-6699844a2719","","765","
                <div class=""stimulus-container"">
                    <img src=""images/schematic_sequence/restaurant_scheme/restaurant_scheme_7.png"" class=""exp-image"">
                    <div class=""question-area"">
                        <p style=""font-size: 20px; font-weight: bold; margin: 0;"">Is there a person in this image?</p>
                    </div>
                </div>","1","main_experiment_trial","7","restaurant_scheme","schematic_sequence","chronological","","","","","","","",""
"","","","","","html-keyboard-response","31","116401","0.0-31.0","5D3D8EC7F436465E8B123007FB05984C","019d666a-197d-7f8d-8a7d-31bab3db4d5c","019d6630-2071-75cb-8026-6699844a2719","","null","
                <div class=""stimulus-container"">
                    <img src=""images/schematic_sequence/restaurant_scheme/restaurant_scheme_8.png"" class=""exp-image"">
                    <div class=""question-area""></div> 
                </div>","null","","","","","","","","","","","","",""
"","","","","","html-button-response","32","117600","0.0-32.0","5D3D8EC7F436465E8B123007FB05984C","019d666a-197d-7f8d-8a7d-31bab3db4d5c","019d6630-2071-75cb-8026-6699844a2719","","1198","
                <div class=""stimulus-container"">
                    <img src=""images/schematic_sequence/restaurant_scheme/restaurant_scheme_8.png"" class=""exp-image"">
                    <div class=""question-area"">
                        <p style=""font-size: 20px; font-weight: bold; margin: 0;"">Is there a person in this image?</p>
                    </div>
                </div>","0","main_experiment_trial","8","restaurant_scheme","schematic_sequence","chronological","","","","","","","",""
"","","","","","html-keyboard-response","33","122603","0.0-33.0","5D3D8EC7F436465E8B123007FB05984C","019d666a-197d-7f8d-8a7d-31bab3db4d5c","019d6630-2071-75cb-8026-6699844a2719","","null","
                <div class=""stimulus-container"">
                    <img src=""images/schematic_sequence/restaurant_scheme/restaurant_scheme_9.png"" class=""exp-image"">
                    <div class=""question-area""></div> 
                </div>","null","","","","","","","","","","","","",""
"","","","","","html-button-response","34","123300","0.0-34.0","5D3D8EC7F436465E8B123007FB05984C","019d666a-197d-7f8d-8a7d-31bab3db4d5c","019d6630-2071-75cb-8026-6699844a2719","","696","
                <div class=""stimulus-container"">
                    <img src=""images/schematic_sequence/restaurant_scheme/restaurant_scheme_9.png"" class=""exp-image"">
                    <div class=""question-area"">
                        <p style=""font-size: 20px; font-weight: bold; margin: 0;"">Is there a person in this image?</p>
                    </div>
                </div>","0","main_experiment_trial","9","restaurant_scheme","schematic_sequence","chronological","","","","","","","",""
"","","","","","html-keyboard-response","35","128302","0.0-35.0","5D3D8EC7F436465E8B123007FB05984C","019d666a-197d-7f8d-8a7d-31bab3db4d5c","019d6630-2071-75cb-8026-6699844a2719","","null","
                <div class=""stimulus-container"">
                    <img src=""images/schematic_sequence/restaurant_scheme/restaurant_scheme_ten.png"" class=""exp-image"">
                    <div class=""question-area""></div> 
                </div>","null","","","","","","","","","","","","",""
"","","","","","html-button-response","36","129083","0.0-36.0","5D3D8EC7F436465E8B123007FB05984C","019d666a-197d-7f8d-8a7d-31bab3db4d5c","019d6630-2071-75cb-8026-6699844a2719","","778","
                <div class=""stimulus-container"">
                    <img src=""images/schematic_sequence/restaurant_scheme/restaurant_scheme_ten.png"" class=""exp-image"">
                    <div class=""question-area"">
                        <p style=""font-size: 20px; font-weight: bold; margin: 0;"">Is there a person in this image?</p>
                    </div>
                </div>","0","main_experiment_trial","ten","restaurant_scheme","schematic_sequence","chronological","","","","","","","",""
"","","","","","html-keyboard-response","37","134085","0.0-37.0","5D3D8EC7F436465E8B123007FB05984C","019d666a-197d-7f8d-8a7d-31bab3db4d5c","019d6630-2071-75cb-8026-6699844a2719","","null","<div style=""background-color: white; width: 100vw; height: 100vh;""></div>","null","","","","","","","","","","","","",""
"","","","","","html-keyboard-response","38","139087","0.0-38.0","5D3D8EC7F436465E8B123007FB05984C","019d666a-197d-7f8d-8a7d-31bab3db4d5c","019d6630-2071-75cb-8026-6699844a2719","","null","
                <div class=""stimulus-container"">
                    <img src=""images/semantic_sequence/self_care_activities_semantic/self_care_activities_semantic_1.png"" class=""exp-image"">
                    <div class=""question-area""></div> 
                </div>","null","","","","","","","","","","","","",""
"","","","","","html-button-response","39","139934","0.0-39.0","5D3D8EC7F436465E8B123007FB05984C","019d666a-197d-7f8d-8a7d-31bab3db4d5c","019d6630-2071-75cb-8026-6699844a2719","","845","
                <div class=""stimulus-container"">
                    <img src=""images/semantic_sequence/self_care_activities_semantic/self_care_activities_semantic_1.png"" class=""exp-image"">
                    <div class=""question-area"">
                        <p style=""font-size: 20px; font-weight: bold; margin: 0;"">Is there a person in this image?</p>
                    </div>
                </div>","0","main_experiment_trial","1","self_care_activities_semantic","semantic_sequence","chronological","","","","","","","",""
"","","","","","html-keyboard-response","40","144936","0.0-40.0","5D3D8EC7F436465E8B123007FB05984C","019d666a-197d-7f8d-8a7d-31bab3db4d5c","019d6630-2071-75cb-8026-6699844a2719","","null","
                <div class=""stimulus-container"">
                    <img src=""images/semantic_sequence/self_care_activities_semantic/self_care_activities_semantic_2.png"" class=""exp-image"">
                    <div class=""question-area""></div> 
                </div>","null","","","","","","","","","","","","",""
"","","","","","html-button-response","41","146249","0.0-41.0","5D3D8EC7F436465E8B123007FB05984C","019d666a-197d-7f8d-8a7d-31bab3db4d5c","019d6630-2071-75cb-8026-6699844a2719","","1312","
                <div class=""stimulus-container"">
                    <img src=""images/semantic_sequence/self_care_activities_semantic/self_care_activities_semantic_2.png"" class=""exp-image"">
                    <div class=""question-area"">
                        <p style=""font-size: 20px; font-weight: bold; margin: 0;"">Is there a person in this image?</p>
                    </div>
                </div>","0","main_experiment_trial","2","self_care_activities_semantic","semantic_sequence","chronological","","","","","","","",""
"","","","","","html-keyboard-response","42","151251","0.0-42.0","5D3D8EC7F436465E8B123007FB05984C","019d666a-197d-7f8d-8a7d-31bab3db4d5c","019d6630-2071-75cb-8026-6699844a2719","","null","
                <div class=""stimulus-container"">
                    <img src=""images/semantic_sequence/self_care_activities_semantic/self_care_activities_semantic_3.png"" class=""exp-image"">
                    <div class=""question-area""></div> 
                </div>","null","","","","","","","","","","","","",""
"","","","","","html-button-response","43","152133","0.0-43.0","5D3D8EC7F436465E8B123007FB05984C","019d666a-197d-7f8d-8a7d-31bab3db4d5c","019d6630-2071-75cb-8026-6699844a2719","","880","
                <div class=""stimulus-container"">
                    <img src=""images/semantic_sequence/self_care_activities_semantic/self_care_activities_semantic_3.png"" class=""exp-image"">
                    <div class=""question-area"">
                        <p style=""font-size: 20px; font-weight: bold; margin: 0;"">Is there a person in this image?</p>
                    </div>
                </div>","0","main_experiment_trial","3","self_care_activities_semantic","semantic_sequence","chronological","","","","","","","",""
"","","","","","html-keyboard-response","44","157137","0.0-44.0","5D3D8EC7F436465E8B123007FB05984C","019d666a-197d-7f8d-8a7d-31bab3db4d5c","019d6630-2071-75cb-8026-6699844a2719","","null","
                <div class=""stimulus-container"">
                    <img src=""images/semantic_sequence/self_care_activities_semantic/self_care_activities_semantic_4.png"" class=""exp-image"">
                    <div class=""question-area""></div> 
                </div>","null","","","","","","","","","","","","",""
"","","","","","html-button-response","45","158783","0.0-45.0","5D3D8EC7F436465E8B123007FB05984C","019d666a-197d-7f8d-8a7d-31bab3db4d5c","019d6630-2071-75cb-8026-6699844a2719","","1644","
                <div class=""stimulus-container"">
                    <img src=""images/semantic_sequence/self_care_activities_semantic/self_care_activities_semantic_4.png"" class=""exp-image"">
                    <div class=""question-area"">
                        <p style=""font-size: 20px; font-weight: bold; margin: 0;"">Is there a person in this image?</p>
                    </div>
                </div>","0","main_experiment_trial","4","self_care_activities_semantic","semantic_sequence","chronological","","","","","","","",""
"","","","","","html-keyboard-response","46","163786","0.0-46.0","5D3D8EC7F436465E8B123007FB05984C","019d666a-197d-7f8d-8a7d-31bab3db4d5c","019d6630-2071-75cb-8026-6699844a2719","","null","
                <div class=""stimulus-container"">
                    <img src=""images/semantic_sequence/self_care_activities_semantic/self_care_activities_semantic_5.png"" class=""exp-image"">
                    <div class=""question-area""></div> 
                </div>","null","","","","","","","","","","","","",""
"","","","","","html-button-response","47","165766","0.0-47.0","5D3D8EC7F436465E8B123007FB05984C","019d666a-197d-7f8d-8a7d-31bab3db4d5c","019d6630-2071-75cb-8026-6699844a2719","","1979","
                <div class=""stimulus-container"">
                    <img src=""images/semantic_sequence/self_care_activities_semantic/self_care_activities_semantic_5.png"" class=""exp-image"">
                    <div class=""question-area"">
                        <p style=""font-size: 20px; font-weight: bold; margin: 0;"">Is there a person in this image?</p>
                    </div>
                </div>","0","main_experiment_trial","5","self_care_activities_semantic","semantic_sequence","chronological","","","","","","","",""
"","","","","","html-keyboard-response","48","170768","0.0-48.0","5D3D8EC7F436465E8B123007FB05984C","019d666a-197d-7f8d-8a7d-31bab3db4d5c","019d6630-2071-75cb-8026-6699844a2719","","null","
                <div class=""stimulus-container"">
                    <img src=""images/semantic_sequence/self_care_activities_semantic/self_care_activities_semantic_6.png"" class=""exp-image"">
                    <div class=""question-area""></div> 
                </div>","null","","","","","","","","","","","","",""
"","","","","","html-button-response","49","172500","0.0-49.0","5D3D8EC7F436465E8B123007FB05984C","019d666a-197d-7f8d-8a7d-31bab3db4d5c","019d6630-2071-75cb-8026-6699844a2719","","1730","
                <div class=""stimulus-container"">
                    <img src=""images/semantic_sequence/self_care_activities_semantic/self_care_activities_semantic_6.png"" class=""exp-image"">
                    <div class=""question-area"">
                        <p style=""font-size: 20px; font-weight: bold; margin: 0;"">Is there a person in this image?</p>
                    </div>
                </div>","1","main_experiment_trial","6","self_care_activities_semantic","semantic_sequence","chronological","","","","","","","",""
"","","","","","html-keyboard-response","50","177501","0.0-50.0","5D3D8EC7F436465E8B123007FB05984C","019d666a-197d-7f8d-8a7d-31bab3db4d5c","019d6630-2071-75cb-8026-6699844a2719","","null","
                <div class=""stimulus-container"">
                    <img src=""images/semantic_sequence/self_care_activities_semantic/self_care_activities_semantic_7.png"" class=""exp-image"">
                    <div class=""question-area""></div> 
                </div>","null","","","","","","","","","","","","",""
"","","","","","html-button-response","51","178349","0.0-51.0","5D3D8EC7F436465E8B123007FB05984C","019d666a-197d-7f8d-8a7d-31bab3db4d5c","019d6630-2071-75cb-8026-6699844a2719","","846","
                <div class=""stimulus-container"">
                    <img src=""images/semantic_sequence/self_care_activities_semantic/self_care_activities_semantic_7.png"" class=""exp-image"">
                    <div class=""question-area"">
                        <p style=""font-size: 20px; font-weight: bold; margin: 0;"">Is there a person in this image?</p>
                    </div>
                </div>","0","main_experiment_trial","7","self_care_activities_semantic","semantic_sequence","chronological","","","","","","","",""
"","","","","","html-keyboard-response","52","183351","0.0-52.0","5D3D8EC7F436465E8B123007FB05984C","019d666a-197d-7f8d-8a7d-31bab3db4d5c","019d6630-2071-75cb-8026-6699844a2719","","null","
                <div class=""stimulus-container"">
                    <img src=""images/semantic_sequence/self_care_activities_semantic/self_care_activities_semantic_8.png"" class=""exp-image"">
                    <div class=""question-area""></div> 
                </div>","null","","","","","","","","","","","","",""
"","","","","","html-button-response","53","185766","0.0-53.0","5D3D8EC7F436465E8B123007FB05984C","019d666a-197d-7f8d-8a7d-31bab3db4d5c","019d6630-2071-75cb-8026-6699844a2719","","2412","
                <div class=""stimulus-container"">
                    <img src=""images/semantic_sequence/self_care_activities_semantic/self_care_activities_semantic_8.png"" class=""exp-image"">
                    <div class=""question-area"">
                        <p style=""font-size: 20px; font-weight: bold; margin: 0;"">Is there a person in this image?</p>
                    </div>
                </div>","0","main_experiment_trial","8","self_care_activities_semantic","semantic_sequence","chronological","","","","","","","",""
"","","","","","html-keyboard-response","54","190768","0.0-54.0","5D3D8EC7F436465E8B123007FB05984C","019d666a-197d-7f8d-8a7d-31bab3db4d5c","019d6630-2071-75cb-8026-6699844a2719","","null","
                <div class=""stimulus-container"">
                    <img src=""images/semantic_sequence/self_care_activities_semantic/self_care_activities_semantic_9.png"" class=""exp-image"">
                    <div class=""question-area""></div> 
                </div>","null","","","","","","","","","","","","",""
"","","","","","html-button-response","55","193100","0.0-55.0","5D3D8EC7F436465E8B123007FB05984C","019d666a-197d-7f8d-8a7d-31bab3db4d5c","019d6630-2071-75cb-8026-6699844a2719","","2330","
                <div class=""stimulus-container"">
                    <img src=""images/semantic_sequence/self_care_activities_semantic/self_care_activities_semantic_9.png"" class=""exp-image"">
                    <div class=""question-area"">
                        <p style=""font-size: 20px; font-weight: bold; margin: 0;"">Is there a person in this image?</p>
                    </div>
                </div>","0","main_experiment_trial","9","self_care_activities_semantic","semantic_sequence","chronological","","","","","","","",""
"","","","","","html-keyboard-response","56","198102","0.0-56.0","5D3D8EC7F436465E8B123007FB05984C","019d666a-197d-7f8d-8a7d-31bab3db4d5c","019d6630-2071-75cb-8026-6699844a2719","","null","
                <div class=""stimulus-container"">
                    <img src=""images/semantic_sequence/self_care_activities_semantic/self_care_activities_semantic_ten.png"" class=""exp-image"">
                    <div class=""question-area""></div> 
                </div>","null","","","","","","","","","","","","",""
"","","","","","html-button-response","57","200317","0.0-57.0","5D3D8EC7F436465E8B123007FB05984C","019d666a-197d-7f8d-8a7d-31bab3db4d5c","019d6630-2071-75cb-8026-6699844a2719","","2214","
                <div class=""stimulus-container"">
                    <img src=""images/semantic_sequence/self_care_activities_semantic/self_care_activities_semantic_ten.png"" class=""exp-image"">
                    <div class=""question-area"">
                        <p style=""font-size: 20px; font-weight: bold; margin: 0;"">Is there a person in this image?</p>
                    </div>
                </div>","0","main_experiment_trial","ten","self_care_activities_semantic","semantic_sequence","chronological","","","","","","","",""
"","","","","","html-keyboard-response","58","205320","0.0-58.0","5D3D8EC7F436465E8B123007FB05984C","019d666a-197d-7f8d-8a7d-31bab3db4d5c","019d6630-2071-75cb-8026-6699844a2719","","null","<div style=""background-color: white; width: 100vw; height: 100vh;""></div>","null","","","","","","","","","","","","",""
"","","","","","html-keyboard-response","59","210322","0.0-59.0","5D3D8EC7F436465E8B123007FB05984C","019d666a-197d-7f8d-8a7d-31bab3db4d5c","019d6630-2071-75cb-8026-6699844a2719","","null","
                <div class=""stimulus-container"">
                    <img src=""images/causal_sequence/package_causal/package_causal_1.png"" class=""exp-image"">
                    <div class=""question-area""></div> 
                </div>","null","","","","","","","","","","","","",""
"","","","","","html-button-response","60","211950","0.0-60.0","5D3D8EC7F436465E8B123007FB05984C","019d666a-197d-7f8d-8a7d-31bab3db4d5c","019d6630-2071-75cb-8026-6699844a2719","","1627","
                <div class=""stimulus-container"">
                    <img src=""images/causal_sequence/package_causal/package_causal_1.png"" class=""exp-image"">
                    <div class=""question-area"">
                        <p style=""font-size: 20px; font-weight: bold; margin: 0;"">Is there a person in this image?</p>
                    </div>
                </div>","0","main_experiment_trial","1","package_causal","causal_sequence","chronological","","","","","","","",""
"","","","","","html-keyboard-response","61","216952","0.0-61.0","5D3D8EC7F436465E8B123007FB05984C","019d666a-197d-7f8d-8a7d-31bab3db4d5c","019d6630-2071-75cb-8026-6699844a2719","","null","
                <div class=""stimulus-container"">
                    <img src=""images/causal_sequence/package_causal/package_causal_2.png"" class=""exp-image"">
                    <div class=""question-area""></div> 
                </div>","null","","","","","","","","","","","","",""
"","","","","","html-button-response","62","217766","0.0-62.0","5D3D8EC7F436465E8B123007FB05984C","019d666a-197d-7f8d-8a7d-31bab3db4d5c","019d6630-2071-75cb-8026-6699844a2719","","814","
                <div class=""stimulus-container"">
                    <img src=""images/causal_sequence/package_causal/package_causal_2.png"" class=""exp-image"">
                    <div class=""question-area"">
                        <p style=""font-size: 20px; font-weight: bold; margin: 0;"">Is there a person in this image?</p>
                    </div>
                </div>","0","main_experiment_trial","2","package_causal","causal_sequence","chronological","","","","","","","",""
"","","","","","html-keyboard-response","63","222768","0.0-63.0","5D3D8EC7F436465E8B123007FB05984C","019d666a-197d-7f8d-8a7d-31bab3db4d5c","019d6630-2071-75cb-8026-6699844a2719","","null","
                <div class=""stimulus-container"">
                    <img src=""images/causal_sequence/package_causal/package_causal_3.png"" class=""exp-image"">
                    <div class=""question-area""></div> 
                </div>","null","","","","","","","","","","","","",""
"","","","","","html-button-response","64","223850","0.0-64.0","5D3D8EC7F436465E8B123007FB05984C","019d666a-197d-7f8d-8a7d-31bab3db4d5c","019d6630-2071-75cb-8026-6699844a2719","","1080","
                <div class=""stimulus-container"">
                    <img src=""images/causal_sequence/package_causal/package_causal_3.png"" class=""exp-image"">
                    <div class=""question-area"">
                        <p style=""font-size: 20px; font-weight: bold; margin: 0;"">Is there a person in this image?</p>
                    </div>
                </div>","0","main_experiment_trial","3","package_causal","causal_sequence","chronological","","","","","","","",""
"","","","","","html-keyboard-response","65","228851","0.0-65.0","5D3D8EC7F436465E8B123007FB05984C","019d666a-197d-7f8d-8a7d-31bab3db4d5c","019d6630-2071-75cb-8026-6699844a2719","","null","
                <div class=""stimulus-container"">
                    <img src=""images/causal_sequence/package_causal/package_causal_4.png"" class=""exp-image"">
                    <div class=""question-area""></div> 
                </div>","null","","","","","","","","","","","","",""
"","","","","","html-button-response","66","229934","0.0-66.0","5D3D8EC7F436465E8B123007FB05984C","019d666a-197d-7f8d-8a7d-31bab3db4d5c","019d6630-2071-75cb-8026-6699844a2719","","1081","
                <div class=""stimulus-container"">
                    <img src=""images/causal_sequence/package_causal/package_causal_4.png"" class=""exp-image"">
                    <div class=""question-area"">
                        <p style=""font-size: 20px; font-weight: bold; margin: 0;"">Is there a person in this image?</p>
                    </div>
                </div>","1","main_experiment_trial","4","package_causal","causal_sequence","chronological","","","","","","","",""
"","","","","","html-keyboard-response","67","234936","0.0-67.0","5D3D8EC7F436465E8B123007FB05984C","019d666a-197d-7f8d-8a7d-31bab3db4d5c","019d6630-2071-75cb-8026-6699844a2719","","null","
                <div class=""stimulus-container"">
                    <img src=""images/causal_sequence/package_causal/package_causal_5.png"" class=""exp-image"">
                    <div class=""question-area""></div> 
                </div>","null","","","","","","","","","","","","",""
"","","","","","html-button-response","68","236034","0.0-68.0","5D3D8EC7F436465E8B123007FB05984C","019d666a-197d-7f8d-8a7d-31bab3db4d5c","019d6630-2071-75cb-8026-6699844a2719","","1096","
                <div class=""stimulus-container"">
                    <img src=""images/causal_sequence/package_causal/package_causal_5.png"" class=""exp-image"">
                    <div class=""question-area"">
                        <p style=""font-size: 20px; font-weight: bold; margin: 0;"">Is there a person in this image?</p>
                    </div>
                </div>","0","main_experiment_trial","5","package_causal","causal_sequence","chronological","","","","","","","",""
"","","","","","html-keyboard-response","69","241036","0.0-69.0","5D3D8EC7F436465E8B123007FB05984C","019d666a-197d-7f8d-8a7d-31bab3db4d5c","019d6630-2071-75cb-8026-6699844a2719","","null","
                <div class=""stimulus-container"">
                    <img src=""images/causal_sequence/package_causal/package_causal_6.png"" class=""exp-image"">
                    <div class=""question-area""></div> 
                </div>","null","","","","","","","","","","","","",""
"","","","","","html-button-response","70","241999","0.0-70.0","5D3D8EC7F436465E8B123007FB05984C","019d666a-197d-7f8d-8a7d-31bab3db4d5c","019d6630-2071-75cb-8026-6699844a2719","","962","
                <div class=""stimulus-container"">
                    <img src=""images/causal_sequence/package_causal/package_causal_6.png"" class=""exp-image"">
                    <div class=""question-area"">
                        <p style=""font-size: 20px; font-weight: bold; margin: 0;"">Is there a person in this image?</p>
                    </div>
                </div>","0","main_experiment_trial","6","package_causal","causal_sequence","chronological","","","","","","","",""
"","","","","","html-keyboard-response","71","247002","0.0-71.0","5D3D8EC7F436465E8B123007FB05984C","019d666a-197d-7f8d-8a7d-31bab3db4d5c","019d6630-2071-75cb-8026-6699844a2719","","null","
                <div class=""stimulus-container"">
                    <img src=""images/causal_sequence/package_causal/package_causal_7.png"" class=""exp-image"">
                    <div class=""question-area""></div> 
                </div>","null","","","","","","","","","","","","",""
"","","","","","html-button-response","72","247932","0.0-72.0","5D3D8EC7F436465E8B123007FB05984C","019d666a-197d-7f8d-8a7d-31bab3db4d5c","019d6630-2071-75cb-8026-6699844a2719","","929","
                <div class=""stimulus-container"">
                    <img src=""images/causal_sequence/package_causal/package_causal_7.png"" class=""exp-image"">
                    <div class=""question-area"">
                        <p style=""font-size: 20px; font-weight: bold; margin: 0;"">Is there a person in this image?</p>
                    </div>
                </div>","0","main_experiment_trial","7","package_causal","causal_sequence","chronological","","","","","","","",""
"","","","","","html-keyboard-response","73","252934","0.0-73.0","5D3D8EC7F436465E8B123007FB05984C","019d666a-197d-7f8d-8a7d-31bab3db4d5c","019d6630-2071-75cb-8026-6699844a2719","","null","
                <div class=""stimulus-container"">
                    <img src=""images/causal_sequence/package_causal/package_causal_8.png"" class=""exp-image"">
                    <div class=""question-area""></div> 
                </div>","null","","","","","","","","","","","","",""
"","","","","","html-button-response","74","253934","0.0-74.0","5D3D8EC7F436465E8B123007FB05984C","019d666a-197d-7f8d-8a7d-31bab3db4d5c","019d6630-2071-75cb-8026-6699844a2719","","998","
                <div class=""stimulus-container"">
                    <img src=""images/causal_sequence/package_causal/package_causal_8.png"" class=""exp-image"">
                    <div class=""question-area"">
                        <p style=""font-size: 20px; font-weight: bold; margin: 0;"">Is there a person in this image?</p>
                    </div>
                </div>","0","main_experiment_trial","8","package_causal","causal_sequence","chronological","","","","","","","",""
"","","","","","html-keyboard-response","75","258936","0.0-75.0","5D3D8EC7F436465E8B123007FB05984C","019d666a-197d-7f8d-8a7d-31bab3db4d5c","019d6630-2071-75cb-8026-6699844a2719","","null","
                <div class=""stimulus-container"">
                    <img src=""images/causal_sequence/package_causal/package_causal_9.png"" class=""exp-image"">
                    <div class=""question-area""></div> 
                </div>","null","","","","","","","","","","","","",""
"","","","","","html-button-response","76","259950","0.0-76.0","5D3D8EC7F436465E8B123007FB05984C","019d666a-197d-7f8d-8a7d-31bab3db4d5c","019d6630-2071-75cb-8026-6699844a2719","","1012","
                <div class=""stimulus-container"">
                    <img src=""images/causal_sequence/package_causal/package_causal_9.png"" class=""exp-image"">
                    <div class=""question-area"">
                        <p style=""font-size: 20px; font-weight: bold; margin: 0;"">Is there a person in this image?</p>
                    </div>
                </div>","0","main_experiment_trial","9","package_causal","causal_sequence","chronological","","","","","","","",""
"","","","","","html-keyboard-response","77","264952","0.0-77.0","5D3D8EC7F436465E8B123007FB05984C","019d666a-197d-7f8d-8a7d-31bab3db4d5c","019d6630-2071-75cb-8026-6699844a2719","","null","
                <div class=""stimulus-container"">
                    <img src=""images/causal_sequence/package_causal/package_causal_ten.png"" class=""exp-image"">
                    <div class=""question-area""></div> 
                </div>","null","","","","","","","","","","","","",""
"","","","","","html-button-response","78","266433","0.0-78.0","5D3D8EC7F436465E8B123007FB05984C","019d666a-197d-7f8d-8a7d-31bab3db4d5c","019d6630-2071-75cb-8026-6699844a2719","","1481","
                <div class=""stimulus-container"">
                    <img src=""images/causal_sequence/package_causal/package_causal_ten.png"" class=""exp-image"">
                    <div class=""question-area"">
                        <p style=""font-size: 20px; font-weight: bold; margin: 0;"">Is there a person in this image?</p>
                    </div>
                </div>","0","main_experiment_trial","ten","package_causal","causal_sequence","chronological","","","","","","","",""
"","","","","","html-keyboard-response","79","271435","0.0-79.0","5D3D8EC7F436465E8B123007FB05984C","019d666a-197d-7f8d-8a7d-31bab3db4d5c","019d6630-2071-75cb-8026-6699844a2719","","null","<div style=""background-color: white; width: 100vw; height: 100vh;""></div>","null","","","","","","","","","","","","",""
"","","","","","html-keyboard-response","80","276438","0.0-80.0","5D3D8EC7F436465E8B123007FB05984C","019d666a-197d-7f8d-8a7d-31bab3db4d5c","019d6630-2071-75cb-8026-6699844a2719","","null","
                <div class=""stimulus-container"">
                    <img src=""images/causal_sequence/museum_causal/museum_causal_1.png"" class=""exp-image"">
                    <div class=""question-area""></div> 
                </div>","null","","","","","","","","","","","","",""
"","","","","","html-button-response","81","277733","0.0-81.0","5D3D8EC7F436465E8B123007FB05984C","019d666a-197d-7f8d-8a7d-31bab3db4d5c","019d6630-2071-75cb-8026-6699844a2719","","1292","
                <div class=""stimulus-container"">
                    <img src=""images/causal_sequence/museum_causal/museum_causal_1.png"" class=""exp-image"">
                    <div class=""question-area"">
                        <p style=""font-size: 20px; font-weight: bold; margin: 0;"">Is there a person in this image?</p>
                    </div>
                </div>","0","main_experiment_trial","1","museum_causal","causal_sequence","chronological","","","","","","","",""
"","","","","","html-keyboard-response","82","282735","0.0-82.0","5D3D8EC7F436465E8B123007FB05984C","019d666a-197d-7f8d-8a7d-31bab3db4d5c","019d6630-2071-75cb-8026-6699844a2719","","null","
                <div class=""stimulus-container"">
                    <img src=""images/causal_sequence/museum_causal/museum_causal_2.png"" class=""exp-image"">
                    <div class=""question-area""></div> 
                </div>","null","","","","","","","","","","","","",""
"","","","","","html-button-response","83","285737","0.0-83.0","5D3D8EC7F436465E8B123007FB05984C","019d666a-197d-7f8d-8a7d-31bab3db4d5c","019d6630-2071-75cb-8026-6699844a2719","","null","
                <div class=""stimulus-container"">
                    <img src=""images/causal_sequence/museum_causal/museum_causal_2.png"" class=""exp-image"">
                    <div class=""question-area"">
                        <p style=""font-size: 20px; font-weight: bold; margin: 0;"">Is there a person in this image?</p>
                    </div>
                </div>","null","main_experiment_trial","2","museum_causal","causal_sequence","chronological","","","","","","","",""
"","","","","","html-keyboard-response","84","290739","0.0-84.0","5D3D8EC7F436465E8B123007FB05984C","019d666a-197d-7f8d-8a7d-31bab3db4d5c","019d6630-2071-75cb-8026-6699844a2719","","null","
                <div class=""stimulus-container"">
                    <img src=""images/causal_sequence/museum_causal/museum_causal_3.png"" class=""exp-image"">
                    <div class=""question-area""></div> 
                </div>","null","","","","","","","","","","","","",""
"","","","","","html-button-response","85","293742","0.0-85.0","5D3D8EC7F436465E8B123007FB05984C","019d666a-197d-7f8d-8a7d-31bab3db4d5c","019d6630-2071-75cb-8026-6699844a2719","","null","
                <div class=""stimulus-container"">
                    <img src=""images/causal_sequence/museum_causal/museum_causal_3.png"" class=""exp-image"">
                    <div class=""question-area"">
                        <p style=""font-size: 20px; font-weight: bold; margin: 0;"">Is there a person in this image?</p>
                    </div>
                </div>","null","main_experiment_trial","3","museum_causal","causal_sequence","chronological","","","","","","","",""
"","","","","","html-keyboard-response","86","298744","0.0-86.0","5D3D8EC7F436465E8B123007FB05984C","019d666a-197d-7f8d-8a7d-31bab3db4d5c","019d6630-2071-75cb-8026-6699844a2719","","null","
                <div class=""stimulus-container"">
                    <img src=""images/causal_sequence/museum_causal/museum_causal_4.png"" class=""exp-image"">
                    <div class=""question-area""></div> 
                </div>","null","","","","","","","","","","","","",""
"","","","","","html-button-response","87","300250","0.0-87.0","5D3D8EC7F436465E8B123007FB05984C","019d666a-197d-7f8d-8a7d-31bab3db4d5c","019d6630-2071-75cb-8026-6699844a2719","","1505","
                <div class=""stimulus-container"">
                    <img src=""images/causal_sequence/museum_causal/museum_causal_4.png"" class=""exp-image"">
                    <div class=""question-area"">
                        <p style=""font-size: 20px; font-weight: bold; margin: 0;"">Is there a person in this image?</p>
                    </div>
                </div>","1","main_experiment_trial","4","museum_causal","causal_sequence","chronological","","","","","","","",""
"","","","","","html-keyboard-response","88","305253","0.0-88.0","5D3D8EC7F436465E8B123007FB05984C","019d666a-197d-7f8d-8a7d-31bab3db4d5c","019d6630-2071-75cb-8026-6699844a2719","","null","
                <div class=""stimulus-container"">
                    <img src=""images/causal_sequence/museum_causal/museum_causal_5.png"" class=""exp-image"">
                    <div class=""question-area""></div> 
                </div>","null","","","","","","","","","","","","",""
"","","","","","html-button-response","89","305849","0.0-89.0","5D3D8EC7F436465E8B123007FB05984C","019d666a-197d-7f8d-8a7d-31bab3db4d5c","019d6630-2071-75cb-8026-6699844a2719","","596","
                <div class=""stimulus-container"">
                    <img src=""images/causal_sequence/museum_causal/museum_causal_5.png"" class=""exp-image"">
                    <div class=""question-area"">
                        <p style=""font-size: 20px; font-weight: bold; margin: 0;"">Is there a person in this image?</p>
                    </div>
                </div>","0","main_experiment_trial","5","museum_causal","causal_sequence","chronological","","","","","","","",""
"","","","","","html-keyboard-response","90","310852","0.0-90.0","5D3D8EC7F436465E8B123007FB05984C","019d666a-197d-7f8d-8a7d-31bab3db4d5c","019d6630-2071-75cb-8026-6699844a2719","","null","
                <div class=""stimulus-container"">
                    <img src=""images/causal_sequence/museum_causal/museum_causal_6.png"" class=""exp-image"">
                    <div class=""question-area""></div> 
                </div>","null","","","","","","","","","","","","",""
"","","","","","html-button-response","91","311617","0.0-91.0","5D3D8EC7F436465E8B123007FB05984C","019d666a-197d-7f8d-8a7d-31bab3db4d5c","019d6630-2071-75cb-8026-6699844a2719","","763","
                <div class=""stimulus-container"">
                    <img src=""images/causal_sequence/museum_causal/museum_causal_6.png"" class=""exp-image"">
                    <div class=""question-area"">
                        <p style=""font-size: 20px; font-weight: bold; margin: 0;"">Is there a person in this image?</p>
                    </div>
                </div>","0","main_experiment_trial","6","museum_causal","causal_sequence","chronological","","","","","","","",""
"","","","","","html-keyboard-response","92","316619","0.0-92.0","5D3D8EC7F436465E8B123007FB05984C","019d666a-197d-7f8d-8a7d-31bab3db4d5c","019d6630-2071-75cb-8026-6699844a2719","","null","
                <div class=""stimulus-container"">
                    <img src=""images/causal_sequence/museum_causal/museum_causal_7.png"" class=""exp-image"">
                    <div class=""question-area""></div> 
                </div>","null","","","","","","","","","","","","",""
"","","","","","html-button-response","93","317749","0.0-93.0","5D3D8EC7F436465E8B123007FB05984C","019d666a-197d-7f8d-8a7d-31bab3db4d5c","019d6630-2071-75cb-8026-6699844a2719","","1127","
                <div class=""stimulus-container"">
                    <img src=""images/causal_sequence/museum_causal/museum_causal_7.png"" class=""exp-image"">
                    <div class=""question-area"">
                        <p style=""font-size: 20px; font-weight: bold; margin: 0;"">Is there a person in this image?</p>
                    </div>
                </div>","1","main_experiment_trial","7","museum_causal","causal_sequence","chronological","","","","","","","",""
"","","","","","html-keyboard-response","94","322750","0.0-94.0","5D3D8EC7F436465E8B123007FB05984C","019d666a-197d-7f8d-8a7d-31bab3db4d5c","019d6630-2071-75cb-8026-6699844a2719","","null","
                <div class=""stimulus-container"">
                    <img src=""images/causal_sequence/museum_causal/museum_causal_8.png"" class=""exp-image"">
                    <div class=""question-area""></div> 
                </div>","null","","","","","","","","","","","","",""
"","","","","","html-button-response","95","324017","0.0-95.0","5D3D8EC7F436465E8B123007FB05984C","019d666a-197d-7f8d-8a7d-31bab3db4d5c","019d6630-2071-75cb-8026-6699844a2719","","1265","
                <div class=""stimulus-container"">
                    <img src=""images/causal_sequence/museum_causal/museum_causal_8.png"" class=""exp-image"">
                    <div class=""question-area"">
                        <p style=""font-size: 20px; font-weight: bold; margin: 0;"">Is there a person in this image?</p>
                    </div>
                </div>","0","main_experiment_trial","8","museum_causal","causal_sequence","chronological","","","","","","","",""
"","","","","","html-keyboard-response","96","329019","0.0-96.0","5D3D8EC7F436465E8B123007FB05984C","019d666a-197d-7f8d-8a7d-31bab3db4d5c","019d6630-2071-75cb-8026-6699844a2719","","null","
                <div class=""stimulus-container"">
                    <img src=""images/causal_sequence/museum_causal/museum_causal_9.png"" class=""exp-image"">
                    <div class=""question-area""></div> 
                </div>","null","","","","","","","","","","","","",""
"","","","","","html-button-response","97","330015","0.0-97.0","5D3D8EC7F436465E8B123007FB05984C","019d666a-197d-7f8d-8a7d-31bab3db4d5c","019d6630-2071-75cb-8026-6699844a2719","","994","
                <div class=""stimulus-container"">
                    <img src=""images/causal_sequence/museum_causal/museum_causal_9.png"" class=""exp-image"">
                    <div class=""question-area"">
                        <p style=""font-size: 20px; font-weight: bold; margin: 0;"">Is there a person in this image?</p>
                    </div>
                </div>","1","main_experiment_trial","9","museum_causal","causal_sequence","chronological","","","","","","","",""
"","","","","","html-keyboard-response","98","335017","0.0-98.0","5D3D8EC7F436465E8B123007FB05984C","019d666a-197d-7f8d-8a7d-31bab3db4d5c","019d6630-2071-75cb-8026-6699844a2719","","null","
                <div class=""stimulus-container"">
                    <img src=""images/causal_sequence/museum_causal/museum_causal_ten.png"" class=""exp-image"">
                    <div class=""question-area""></div> 
                </div>","null","","","","","","","","","","","","",""
"","","","","","html-button-response","99","335967","0.0-99.0","5D3D8EC7F436465E8B123007FB05984C","019d666a-197d-7f8d-8a7d-31bab3db4d5c","019d6630-2071-75cb-8026-6699844a2719","","947","
                <div class=""stimulus-container"">
                    <img src=""images/causal_sequence/museum_causal/museum_causal_ten.png"" class=""exp-image"">
                    <div class=""question-area"">
                        <p style=""font-size: 20px; font-weight: bold; margin: 0;"">Is there a person in this image?</p>
                    </div>
                </div>","0","main_experiment_trial","ten","museum_causal","causal_sequence","chronological","","","","","","","",""
"","","","","","html-keyboard-response","100","340969","0.0-100.0","5D3D8EC7F436465E8B123007FB05984C","019d666a-197d-7f8d-8a7d-31bab3db4d5c","019d6630-2071-75cb-8026-6699844a2719","","null","<div style=""background-color: white; width: 100vw; height: 100vh;""></div>","null","","","","","","","","","","","","",""
"","","","","","html-keyboard-response","101","345972","0.0-101.0","5D3D8EC7F436465E8B123007FB05984C","019d666a-197d-7f8d-8a7d-31bab3db4d5c","019d6630-2071-75cb-8026-6699844a2719","","null","
                <div class=""stimulus-container"">
                    <img src=""images/causal_sequence/coin_causal/coin_causal_1.png"" class=""exp-image"">
                    <div class=""question-area""></div> 
                </div>","null","","","","","","","","","","","","",""
"","","","","","html-button-response","102","348349","0.0-102.0","5D3D8EC7F436465E8B123007FB05984C","019d666a-197d-7f8d-8a7d-31bab3db4d5c","019d6630-2071-75cb-8026-6699844a2719","","2375","
                <div class=""stimulus-container"">
                    <img src=""images/causal_sequence/coin_causal/coin_causal_1.png"" class=""exp-image"">
                    <div class=""question-area"">
                        <p style=""font-size: 20px; font-weight: bold; margin: 0;"">Is there a person in this image?</p>
                    </div>
                </div>","0","main_experiment_trial","1","coin_causal","causal_sequence","chronological","","","","","","","",""
"","","","","","html-keyboard-response","103","353351","0.0-103.0","5D3D8EC7F436465E8B123007FB05984C","019d666a-197d-7f8d-8a7d-31bab3db4d5c","019d6630-2071-75cb-8026-6699844a2719","","null","
                <div class=""stimulus-container"">
                    <img src=""images/causal_sequence/coin_causal/coin_causal_2.png"" class=""exp-image"">
                    <div class=""question-area""></div> 
                </div>","null","","","","","","","","","","","","",""
"","","","","","html-button-response","104","355883","0.0-104.0","5D3D8EC7F436465E8B123007FB05984C","019d666a-197d-7f8d-8a7d-31bab3db4d5c","019d6630-2071-75cb-8026-6699844a2719","","2530","
                <div class=""stimulus-container"">
                    <img src=""images/causal_sequence/coin_causal/coin_causal_2.png"" class=""exp-image"">
                    <div class=""question-area"">
                        <p style=""font-size: 20px; font-weight: bold; margin: 0;"">Is there a person in this image?</p>
                    </div>
                </div>","0","main_experiment_trial","2","coin_causal","causal_sequence","chronological","","","","","","","",""
"","","","","","html-keyboard-response","105","360885","0.0-105.0","5D3D8EC7F436465E8B123007FB05984C","019d666a-197d-7f8d-8a7d-31bab3db4d5c","019d6630-2071-75cb-8026-6699844a2719","","null","
                <div class=""stimulus-container"">
                    <img src=""images/causal_sequence/coin_causal/coin_causal_3.png"" class=""exp-image"">
                    <div class=""question-area""></div> 
                </div>","null","","","","","","","","","","","","",""
"","","","","","html-button-response","106","362433","0.0-106.0","5D3D8EC7F436465E8B123007FB05984C","019d666a-197d-7f8d-8a7d-31bab3db4d5c","019d6630-2071-75cb-8026-6699844a2719","","1546","
                <div class=""stimulus-container"">
                    <img src=""images/causal_sequence/coin_causal/coin_causal_3.png"" class=""exp-image"">
                    <div class=""question-area"">
                        <p style=""font-size: 20px; font-weight: bold; margin: 0;"">Is there a person in this image?</p>
                    </div>
                </div>","0","main_experiment_trial","3","coin_causal","causal_sequence","chronological","","","","","","","",""
"","","","","","html-keyboard-response","107","367435","0.0-107.0","5D3D8EC7F436465E8B123007FB05984C","019d666a-197d-7f8d-8a7d-31bab3db4d5c","019d6630-2071-75cb-8026-6699844a2719","","null","
                <div class=""stimulus-container"">
                    <img src=""images/causal_sequence/coin_causal/coin_causal_4.png"" class=""exp-image"">
                    <div class=""question-area""></div> 
                </div>","null","","","","","","","","","","","","",""
"","","","","","html-button-response","108","368883","0.0-108.0","5D3D8EC7F436465E8B123007FB05984C","019d666a-197d-7f8d-8a7d-31bab3db4d5c","019d6630-2071-75cb-8026-6699844a2719","","1447","
                <div class=""stimulus-container"">
                    <img src=""images/causal_sequence/coin_causal/coin_causal_4.png"" class=""exp-image"">
                    <div class=""question-area"">
                        <p style=""font-size: 20px; font-weight: bold; margin: 0;"">Is there a person in this image?</p>
                    </div>
                </div>","0","main_experiment_trial","4","coin_causal","causal_sequence","chronological","","","","","","","",""
"","","","","","html-keyboard-response","109","373885","0.0-109.0","5D3D8EC7F436465E8B123007FB05984C","019d666a-197d-7f8d-8a7d-31bab3db4d5c","019d6630-2071-75cb-8026-6699844a2719","","null","
                <div class=""stimulus-container"">
                    <img src=""images/causal_sequence/coin_causal/coin_causal_5.png"" class=""exp-image"">
                    <div class=""question-area""></div> 
                </div>","null","","","","","","","","","","","","",""
"","","","","","html-button-response","110","376887","0.0-110.0","5D3D8EC7F436465E8B123007FB05984C","019d666a-197d-7f8d-8a7d-31bab3db4d5c","019d6630-2071-75cb-8026-6699844a2719","","null","
                <div class=""stimulus-container"">
                    <img src=""images/causal_sequence/coin_causal/coin_causal_5.png"" class=""exp-image"">
                    <div class=""question-area"">
                        <p style=""font-size: 20px; font-weight: bold; margin: 0;"">Is there a person in this image?</p>
                    </div>
                </div>","null","main_experiment_trial","5","coin_causal","causal_sequence","chronological","","","","","","","",""
"","","","","","html-keyboard-response","111","381890","0.0-111.0","5D3D8EC7F436465E8B123007FB05984C","019d666a-197d-7f8d-8a7d-31bab3db4d5c","019d6630-2071-75cb-8026-6699844a2719","","null","
                <div class=""stimulus-container"">
                    <img src=""images/causal_sequence/coin_causal/coin_causal_6.png"" class=""exp-image"">
                    <div class=""question-area""></div> 
                </div>","null","","","","","","","","","","","","",""
"","","","","","html-button-response","112","382534","0.0-112.0","5D3D8EC7F436465E8B123007FB05984C","019d666a-197d-7f8d-8a7d-31bab3db4d5c","019d6630-2071-75cb-8026-6699844a2719","","642","
                <div class=""stimulus-container"">
                    <img src=""images/causal_sequence/coin_causal/coin_causal_6.png"" class=""exp-image"">
                    <div class=""question-area"">
                        <p style=""font-size: 20px; font-weight: bold; margin: 0;"">Is there a person in this image?</p>
                    </div>
                </div>","0","main_experiment_trial","6","coin_causal","causal_sequence","chronological","","","","","","","",""
"","","","","","html-keyboard-response","113","387536","0.0-113.0","5D3D8EC7F436465E8B123007FB05984C","019d666a-197d-7f8d-8a7d-31bab3db4d5c","019d6630-2071-75cb-8026-6699844a2719","","null","
                <div class=""stimulus-container"">
                    <img src=""images/causal_sequence/coin_causal/coin_causal_7.png"" class=""exp-image"">
                    <div class=""question-area""></div> 
                </div>","null","","","","","","","","","","","","",""
"","","","","","html-button-response","114","388234","0.0-114.0","5D3D8EC7F436465E8B123007FB05984C","019d666a-197d-7f8d-8a7d-31bab3db4d5c","019d6630-2071-75cb-8026-6699844a2719","","696","
                <div class=""stimulus-container"">
                    <img src=""images/causal_sequence/coin_causal/coin_causal_7.png"" class=""exp-image"">
                    <div class=""question-area"">
                        <p style=""font-size: 20px; font-weight: bold; margin: 0;"">Is there a person in this image?</p>
                    </div>
                </div>","1","main_experiment_trial","7","coin_causal","causal_sequence","chronological","","","","","","","",""
"","","","","","html-keyboard-response","115","393236","0.0-115.0","5D3D8EC7F436465E8B123007FB05984C","019d666a-197d-7f8d-8a7d-31bab3db4d5c","019d6630-2071-75cb-8026-6699844a2719","","null","
                <div class=""stimulus-container"">
                    <img src=""images/causal_sequence/coin_causal/coin_causal_8.png"" class=""exp-image"">
                    <div class=""question-area""></div> 
                </div>","null","","","","","","","","","","","","",""
"","","","","","html-button-response","116","394465","0.0-116.0","5D3D8EC7F436465E8B123007FB05984C","019d666a-197d-7f8d-8a7d-31bab3db4d5c","019d6630-2071-75cb-8026-6699844a2719","","1228","
                <div class=""stimulus-container"">
                    <img src=""images/causal_sequence/coin_causal/coin_causal_8.png"" class=""exp-image"">
                    <div class=""question-area"">
                        <p style=""font-size: 20px; font-weight: bold; margin: 0;"">Is there a person in this image?</p>
                    </div>
                </div>","0","main_experiment_trial","8","coin_causal","causal_sequence","chronological","","","","","","","",""
"","","","","","html-keyboard-response","117","399468","0.0-117.0","5D3D8EC7F436465E8B123007FB05984C","019d666a-197d-7f8d-8a7d-31bab3db4d5c","019d6630-2071-75cb-8026-6699844a2719","","null","
                <div class=""stimulus-container"">
                    <img src=""images/causal_sequence/coin_causal/coin_causal_9.png"" class=""exp-image"">
                    <div class=""question-area""></div> 
                </div>","null","","","","","","","","","","","","",""
"","","","","","html-button-response","118","400183","0.0-118.0","5D3D8EC7F436465E8B123007FB05984C","019d666a-197d-7f8d-8a7d-31bab3db4d5c","019d6630-2071-75cb-8026-6699844a2719","","713","
                <div class=""stimulus-container"">
                    <img src=""images/causal_sequence/coin_causal/coin_causal_9.png"" class=""exp-image"">
                    <div class=""question-area"">
                        <p style=""font-size: 20px; font-weight: bold; margin: 0;"">Is there a person in this image?</p>
                    </div>
                </div>","0","main_experiment_trial","9","coin_causal","causal_sequence","chronological","","","","","","","",""
"","","","","","html-keyboard-response","119","405186","0.0-119.0","5D3D8EC7F436465E8B123007FB05984C","019d666a-197d-7f8d-8a7d-31bab3db4d5c","019d6630-2071-75cb-8026-6699844a2719","","null","
                <div class=""stimulus-container"">
                    <img src=""images/causal_sequence/coin_causal/coin_causal_ten.png"" class=""exp-image"">
                    <div class=""question-area""></div> 
                </div>","null","","","","","","","","","","","","",""
"","","","","","html-button-response","120","405949","0.0-120.0","5D3D8EC7F436465E8B123007FB05984C","019d666a-197d-7f8d-8a7d-31bab3db4d5c","019d6630-2071-75cb-8026-6699844a2719","","762","
                <div class=""stimulus-container"">
                    <img src=""images/causal_sequence/coin_causal/coin_causal_ten.png"" class=""exp-image"">
                    <div class=""question-area"">
                        <p style=""font-size: 20px; font-weight: bold; margin: 0;"">Is there a person in this image?</p>
                    </div>
                </div>","0","main_experiment_trial","ten","coin_causal","causal_sequence","chronological","","","","","","","",""
"","","","","","html-keyboard-response","121","410951","0.0-121.0","5D3D8EC7F436465E8B123007FB05984C","019d666a-197d-7f8d-8a7d-31bab3db4d5c","019d6630-2071-75cb-8026-6699844a2719","","null","<div style=""background-color: white; width: 100vw; height: 100vh;""></div>","null","","","","","","","","","","","","",""
"","","","","","html-keyboard-response","122","415954","0.0-122.0","5D3D8EC7F436465E8B123007FB05984C","019d666a-197d-7f8d-8a7d-31bab3db4d5c","019d6630-2071-75cb-8026-6699844a2719","","null","
                <div class=""stimulus-container"">
                    <img src=""images/schematic_sequence/flight_scheme/flight_scheme_1.png"" class=""exp-image"">
                    <div class=""question-area""></div> 
                </div>","null","","","","","","","","","","","","",""
"","","","","","html-button-response","123","417267","0.0-123.0","5D3D8EC7F436465E8B123007FB05984C","019d666a-197d-7f8d-8a7d-31bab3db4d5c","019d6630-2071-75cb-8026-6699844a2719","","1312","
                <div class=""stimulus-container"">
                    <img src=""images/schematic_sequence/flight_scheme/flight_scheme_1.png"" class=""exp-image"">
                    <div class=""question-area"">
                        <p style=""font-size: 20px; font-weight: bold; margin: 0;"">Is there a person in this image?</p>
                    </div>
                </div>","1","main_experiment_trial","1","flight_scheme","schematic_sequence","chronological","","","","","","","",""
"","","","","","html-keyboard-response","124","422269","0.0-124.0","5D3D8EC7F436465E8B123007FB05984C","019d666a-197d-7f8d-8a7d-31bab3db4d5c","019d6630-2071-75cb-8026-6699844a2719","","null","
                <div class=""stimulus-container"">
                    <img src=""images/schematic_sequence/flight_scheme/flight_scheme_2.png"" class=""exp-image"">
                    <div class=""question-area""></div> 
                </div>","null","","","","","","","","","","","","",""
"","","","","","html-button-response","125","423148","0.0-125.0","5D3D8EC7F436465E8B123007FB05984C","019d666a-197d-7f8d-8a7d-31bab3db4d5c","019d6630-2071-75cb-8026-6699844a2719","","877","
                <div class=""stimulus-container"">
                    <img src=""images/schematic_sequence/flight_scheme/flight_scheme_2.png"" class=""exp-image"">
                    <div class=""question-area"">
                        <p style=""font-size: 20px; font-weight: bold; margin: 0;"">Is there a person in this image?</p>
                    </div>
                </div>","1","main_experiment_trial","2","flight_scheme","schematic_sequence","chronological","","","","","","","",""
"","","","","","html-keyboard-response","126","428150","0.0-126.0","5D3D8EC7F436465E8B123007FB05984C","019d666a-197d-7f8d-8a7d-31bab3db4d5c","019d6630-2071-75cb-8026-6699844a2719","","null","
                <div class=""stimulus-container"">
                    <img src=""images/schematic_sequence/flight_scheme/flight_scheme_3.png"" class=""exp-image"">
                    <div class=""question-area""></div> 
                </div>","null","","","","","","","","","","","","",""
"","","","","","html-button-response","127","428933","0.0-127.0","5D3D8EC7F436465E8B123007FB05984C","019d666a-197d-7f8d-8a7d-31bab3db4d5c","019d6630-2071-75cb-8026-6699844a2719","","781","
                <div class=""stimulus-container"">
                    <img src=""images/schematic_sequence/flight_scheme/flight_scheme_3.png"" class=""exp-image"">
                    <div class=""question-area"">
                        <p style=""font-size: 20px; font-weight: bold; margin: 0;"">Is there a person in this image?</p>
                    </div>
                </div>","0","main_experiment_trial","3","flight_scheme","schematic_sequence","chronological","","","","","","","",""
"","","","","","html-keyboard-response","128","433935","0.0-128.0","5D3D8EC7F436465E8B123007FB05984C","019d666a-197d-7f8d-8a7d-31bab3db4d5c","019d6630-2071-75cb-8026-6699844a2719","","null","
                <div class=""stimulus-container"">
                    <img src=""images/schematic_sequence/flight_scheme/flight_scheme_4.png"" class=""exp-image"">
                    <div class=""question-area""></div> 
                </div>","null","","","","","","","","","","","","",""
"","","","","","html-button-response","129","434949","0.0-129.0","5D3D8EC7F436465E8B123007FB05984C","019d666a-197d-7f8d-8a7d-31bab3db4d5c","019d6630-2071-75cb-8026-6699844a2719","","1013","
                <div class=""stimulus-container"">
                    <img src=""images/schematic_sequence/flight_scheme/flight_scheme_4.png"" class=""exp-image"">
                    <div class=""question-area"">
                        <p style=""font-size: 20px; font-weight: bold; margin: 0;"">Is there a person in this image?</p>
                    </div>
                </div>","0","main_experiment_trial","4","flight_scheme","schematic_sequence","chronological","","","","","","","",""
"","","","","","html-keyboard-response","130","439951","0.0-130.0","5D3D8EC7F436465E8B123007FB05984C","019d666a-197d-7f8d-8a7d-31bab3db4d5c","019d6630-2071-75cb-8026-6699844a2719","","null","
                <div class=""stimulus-container"">
                    <img src=""images/schematic_sequence/flight_scheme/flight_scheme_5.png"" class=""exp-image"">
                    <div class=""question-area""></div> 
                </div>","null","","","","","","","","","","","","",""
"","","","","","html-button-response","131","441198","0.0-131.0","5D3D8EC7F436465E8B123007FB05984C","019d666a-197d-7f8d-8a7d-31bab3db4d5c","019d6630-2071-75cb-8026-6699844a2719","","1246","
                <div class=""stimulus-container"">
                    <img src=""images/schematic_sequence/flight_scheme/flight_scheme_5.png"" class=""exp-image"">
                    <div class=""question-area"">
                        <p style=""font-size: 20px; font-weight: bold; margin: 0;"">Is there a person in this image?</p>
                    </div>
                </div>","0","main_experiment_trial","5","flight_scheme","schematic_sequence","chronological","","","","","","","",""
"","","","","","html-keyboard-response","132","446200","0.0-132.0","5D3D8EC7F436465E8B123007FB05984C","019d666a-197d-7f8d-8a7d-31bab3db4d5c","019d6630-2071-75cb-8026-6699844a2719","","null","
                <div class=""stimulus-container"">
                    <img src=""images/schematic_sequence/flight_scheme/flight_scheme_6.png"" class=""exp-image"">
                    <div class=""question-area""></div> 
                </div>","null","","","","","","","","","","","","",""
"","","","","","html-button-response","133","447667","0.0-133.0","5D3D8EC7F436465E8B123007FB05984C","019d666a-197d-7f8d-8a7d-31bab3db4d5c","019d6630-2071-75cb-8026-6699844a2719","","1465","
                <div class=""stimulus-container"">
                    <img src=""images/schematic_sequence/flight_scheme/flight_scheme_6.png"" class=""exp-image"">
                    <div class=""question-area"">
                        <p style=""font-size: 20px; font-weight: bold; margin: 0;"">Is there a person in this image?</p>
                    </div>
                </div>","1","main_experiment_trial","6","flight_scheme","schematic_sequence","chronological","","","","","","","",""
"","","","","","html-keyboard-response","134","452669","0.0-134.0","5D3D8EC7F436465E8B123007FB05984C","019d666a-197d-7f8d-8a7d-31bab3db4d5c","019d6630-2071-75cb-8026-6699844a2719","","null","
                <div class=""stimulus-container"">
                    <img src=""images/schematic_sequence/flight_scheme/flight_scheme_7.png"" class=""exp-image"">
                    <div class=""question-area""></div> 
                </div>","null","","","","","","","","","","","","",""
"","","","","","html-button-response","135","454348","0.0-135.0","5D3D8EC7F436465E8B123007FB05984C","019d666a-197d-7f8d-8a7d-31bab3db4d5c","019d6630-2071-75cb-8026-6699844a2719","","1678","
                <div class=""stimulus-container"">
                    <img src=""images/schematic_sequence/flight_scheme/flight_scheme_7.png"" class=""exp-image"">
                    <div class=""question-area"">
                        <p style=""font-size: 20px; font-weight: bold; margin: 0;"">Is there a person in this image?</p>
                    </div>
                </div>","1","main_experiment_trial","7","flight_scheme","schematic_sequence","chronological","","","","","","","",""
"","","","","","html-keyboard-response","136","459350","0.0-136.0","5D3D8EC7F436465E8B123007FB05984C","019d666a-197d-7f8d-8a7d-31bab3db4d5c","019d6630-2071-75cb-8026-6699844a2719","","null","
                <div class=""stimulus-container"">
                    <img src=""images/schematic_sequence/flight_scheme/flight_scheme_8.png"" class=""exp-image"">
                    <div class=""question-area""></div> 
                </div>","null","","","","","","","","","","","","",""
"","","","","","html-button-response","137","460583","0.0-137.0","5D3D8EC7F436465E8B123007FB05984C","019d666a-197d-7f8d-8a7d-31bab3db4d5c","019d6630-2071-75cb-8026-6699844a2719","","1231","
                <div class=""stimulus-container"">
                    <img src=""images/schematic_sequence/flight_scheme/flight_scheme_8.png"" class=""exp-image"">
                    <div class=""question-area"">
                        <p style=""font-size: 20px; font-weight: bold; margin: 0;"">Is there a person in this image?</p>
                    </div>
                </div>","1","main_experiment_trial","8","flight_scheme","schematic_sequence","chronological","","","","","","","",""
"","","","","","html-keyboard-response","138","465584","0.0-138.0","5D3D8EC7F436465E8B123007FB05984C","019d666a-197d-7f8d-8a7d-31bab3db4d5c","019d6630-2071-75cb-8026-6699844a2719","","null","
                <div class=""stimulus-container"">
                    <img src=""images/schematic_sequence/flight_scheme/flight_scheme_9.png"" class=""exp-image"">
                    <div class=""question-area""></div> 
                </div>","null","","","","","","","","","","","","",""
"","","","","","html-button-response","139","467833","0.0-139.0","5D3D8EC7F436465E8B123007FB05984C","019d666a-197d-7f8d-8a7d-31bab3db4d5c","019d6630-2071-75cb-8026-6699844a2719","","2247","
                <div class=""stimulus-container"">
                    <img src=""images/schematic_sequence/flight_scheme/flight_scheme_9.png"" class=""exp-image"">
                    <div class=""question-area"">
                        <p style=""font-size: 20px; font-weight: bold; margin: 0;"">Is there a person in this image?</p>
                    </div>
                </div>","0","main_experiment_trial","9","flight_scheme","schematic_sequence","chronological","","","","","","","",""
"","","","","","html-keyboard-response","140","472835","0.0-140.0","5D3D8EC7F436465E8B123007FB05984C","019d666a-197d-7f8d-8a7d-31bab3db4d5c","019d6630-2071-75cb-8026-6699844a2719","","null","
                <div class=""stimulus-container"">
                    <img src=""images/schematic_sequence/flight_scheme/flight_scheme_ten.png"" class=""exp-image"">
                    <div class=""question-area""></div> 
                </div>","null","","","","","","","","","","","","",""
"","","","","","html-button-response","141","473650","0.0-141.0","5D3D8EC7F436465E8B123007FB05984C","019d666a-197d-7f8d-8a7d-31bab3db4d5c","019d6630-2071-75cb-8026-6699844a2719","","813","
                <div class=""stimulus-container"">
                    <img src=""images/schematic_sequence/flight_scheme/flight_scheme_ten.png"" class=""exp-image"">
                    <div class=""question-area"">
                        <p style=""font-size: 20px; font-weight: bold; margin: 0;"">Is there a person in this image?</p>
                    </div>
                </div>","0","main_experiment_trial","ten","flight_scheme","schematic_sequence","chronological","","","","","","","",""
"","","","","","html-keyboard-response","142","478652","0.0-142.0","5D3D8EC7F436465E8B123007FB05984C","019d666a-197d-7f8d-8a7d-31bab3db4d5c","019d6630-2071-75cb-8026-6699844a2719","","null","<div style=""background-color: white; width: 100vw; height: 100vh;""></div>","null","","","","","","","","","","","","",""
"","","","","","html-keyboard-response","143","483654","0.0-143.0","5D3D8EC7F436465E8B123007FB05984C","019d666a-197d-7f8d-8a7d-31bab3db4d5c","019d6630-2071-75cb-8026-6699844a2719","","null","
                <div class=""stimulus-container"">
                    <img src=""images/schematic_sequence/hotel_scheme/hotel_scheme_1.png"" class=""exp-image"">
                    <div class=""question-area""></div> 
                </div>","null","","","","","","","","","","","","",""
"","","","","","html-button-response","144","484582","0.0-144.0","5D3D8EC7F436465E8B123007FB05984C","019d666a-197d-7f8d-8a7d-31bab3db4d5c","019d6630-2071-75cb-8026-6699844a2719","","928","
                <div class=""stimulus-container"">
                    <img src=""images/schematic_sequence/hotel_scheme/hotel_scheme_1.png"" class=""exp-image"">
                    <div class=""question-area"">
                        <p style=""font-size: 20px; font-weight: bold; margin: 0;"">Is there a person in this image?</p>
                    </div>
                </div>","1","main_experiment_trial","1","hotel_scheme","schematic_sequence","chronological","","","","","","","",""
"","","","","","html-keyboard-response","145","489584","0.0-145.0","5D3D8EC7F436465E8B123007FB05984C","019d666a-197d-7f8d-8a7d-31bab3db4d5c","019d6630-2071-75cb-8026-6699844a2719","","null","
                <div class=""stimulus-container"">
                    <img src=""images/schematic_sequence/hotel_scheme/hotel_scheme_2.png"" class=""exp-image"">
                    <div class=""question-area""></div> 
                </div>","null","","","","","","","","","","","","",""
"","","","","","html-button-response","146","491366","0.0-146.0","5D3D8EC7F436465E8B123007FB05984C","019d666a-197d-7f8d-8a7d-31bab3db4d5c","019d6630-2071-75cb-8026-6699844a2719","","1781","
                <div class=""stimulus-container"">
                    <img src=""images/schematic_sequence/hotel_scheme/hotel_scheme_2.png"" class=""exp-image"">
                    <div class=""question-area"">
                        <p style=""font-size: 20px; font-weight: bold; margin: 0;"">Is there a person in this image?</p>
                    </div>
                </div>","0","main_experiment_trial","2","hotel_scheme","schematic_sequence","chronological","","","","","","","",""
"","","","","","html-keyboard-response","147","496369","0.0-147.0","5D3D8EC7F436465E8B123007FB05984C","019d666a-197d-7f8d-8a7d-31bab3db4d5c","019d6630-2071-75cb-8026-6699844a2719","","null","
                <div class=""stimulus-container"">
                    <img src=""images/schematic_sequence/hotel_scheme/hotel_scheme_3.png"" class=""exp-image"">
                    <div class=""question-area""></div> 
                </div>","null","","","","","","","","","","","","",""
"","","","","","html-button-response","148","497367","0.0-148.0","5D3D8EC7F436465E8B123007FB05984C","019d666a-197d-7f8d-8a7d-31bab3db4d5c","019d6630-2071-75cb-8026-6699844a2719","","997","
                <div class=""stimulus-container"">
                    <img src=""images/schematic_sequence/hotel_scheme/hotel_scheme_3.png"" class=""exp-image"">
                    <div class=""question-area"">
                        <p style=""font-size: 20px; font-weight: bold; margin: 0;"">Is there a person in this image?</p>
                    </div>
                </div>","0","main_experiment_trial","3","hotel_scheme","schematic_sequence","chronological","","","","","","","",""
"","","","","","html-keyboard-response","149","502369","0.0-149.0","5D3D8EC7F436465E8B123007FB05984C","019d666a-197d-7f8d-8a7d-31bab3db4d5c","019d6630-2071-75cb-8026-6699844a2719","","null","
                <div class=""stimulus-container"">
                    <img src=""images/schematic_sequence/hotel_scheme/hotel_scheme_4.png"" class=""exp-image"">
                    <div class=""question-area""></div> 
                </div>","null","","","","","","","","","","","","",""
"","","","","","html-button-response","150","503817","0.0-150.0","5D3D8EC7F436465E8B123007FB05984C","019d666a-197d-7f8d-8a7d-31bab3db4d5c","019d6630-2071-75cb-8026-6699844a2719","","1445","
                <div class=""stimulus-container"">
                    <img src=""images/schematic_sequence/hotel_scheme/hotel_scheme_4.png"" class=""exp-image"">
                    <div class=""question-area"">
                        <p style=""font-size: 20px; font-weight: bold; margin: 0;"">Is there a person in this image?</p>
                    </div>
                </div>","1","main_experiment_trial","4","hotel_scheme","schematic_sequence","chronological","","","","","","","",""
"","","","","","html-keyboard-response","151","508819","0.0-151.0","5D3D8EC7F436465E8B123007FB05984C","019d666a-197d-7f8d-8a7d-31bab3db4d5c","019d6630-2071-75cb-8026-6699844a2719","","null","
                <div class=""stimulus-container"">
                    <img src=""images/schematic_sequence/hotel_scheme/hotel_scheme_5.png"" class=""exp-image"">
                    <div class=""question-area""></div> 
                </div>","null","","","","","","","","","","","","",""
"","","","","","html-button-response","152","510567","0.0-152.0","5D3D8EC7F436465E8B123007FB05984C","019d666a-197d-7f8d-8a7d-31bab3db4d5c","019d6630-2071-75cb-8026-6699844a2719","","1746","
                <div class=""stimulus-container"">
                    <img src=""images/schematic_sequence/hotel_scheme/hotel_scheme_5.png"" class=""exp-image"">
                    <div class=""question-area"">
                        <p style=""font-size: 20px; font-weight: bold; margin: 0;"">Is there a person in this image?</p>
                    </div>
                </div>","0","main_experiment_trial","5","hotel_scheme","schematic_sequence","chronological","","","","","","","",""
"","","","","","html-keyboard-response","153","515569","0.0-153.0","5D3D8EC7F436465E8B123007FB05984C","019d666a-197d-7f8d-8a7d-31bab3db4d5c","019d6630-2071-75cb-8026-6699844a2719","","null","
                <div class=""stimulus-container"">
                    <img src=""images/schematic_sequence/hotel_scheme/hotel_scheme_6.png"" class=""exp-image"">
                    <div class=""question-area""></div> 
                </div>","null","","","","","","","","","","","","",""
"","","","","","html-button-response","154","516749","0.0-154.0","5D3D8EC7F436465E8B123007FB05984C","019d666a-197d-7f8d-8a7d-31bab3db4d5c","019d6630-2071-75cb-8026-6699844a2719","","1178","
                <div class=""stimulus-container"">
                    <img src=""images/schematic_sequence/hotel_scheme/hotel_scheme_6.png"" class=""exp-image"">
                    <div class=""question-area"">
                        <p style=""font-size: 20px; font-weight: bold; margin: 0;"">Is there a person in this image?</p>
                    </div>
                </div>","0","main_experiment_trial","6","hotel_scheme","schematic_sequence","chronological","","","","","","","",""
"","","","","","html-keyboard-response","155","521749","0.0-155.0","5D3D8EC7F436465E8B123007FB05984C","019d666a-197d-7f8d-8a7d-31bab3db4d5c","019d6630-2071-75cb-8026-6699844a2719","","null","
                <div class=""stimulus-container"">
                    <img src=""images/schematic_sequence/hotel_scheme/hotel_scheme_7.png"" class=""exp-image"">
                    <div class=""question-area""></div> 
                </div>","null","","","","","","","","","","","","",""
"","","","","","html-button-response","156","522732","0.0-156.0","5D3D8EC7F436465E8B123007FB05984C","019d666a-197d-7f8d-8a7d-31bab3db4d5c","019d6630-2071-75cb-8026-6699844a2719","","982","
                <div class=""stimulus-container"">
                    <img src=""images/schematic_sequence/hotel_scheme/hotel_scheme_7.png"" class=""exp-image"">
                    <div class=""question-area"">
                        <p style=""font-size: 20px; font-weight: bold; margin: 0;"">Is there a person in this image?</p>
                    </div>
                </div>","0","main_experiment_trial","7","hotel_scheme","schematic_sequence","chronological","","","","","","","",""
"","","","","","html-keyboard-response","157","527734","0.0-157.0","5D3D8EC7F436465E8B123007FB05984C","019d666a-197d-7f8d-8a7d-31bab3db4d5c","019d6630-2071-75cb-8026-6699844a2719","","null","
                <div class=""stimulus-container"">
                    <img src=""images/schematic_sequence/hotel_scheme/hotel_scheme_8.png"" class=""exp-image"">
                    <div class=""question-area""></div> 
                </div>","null","","","","","","","","","","","","",""
"","","","","","html-button-response","158","528782","0.0-158.0","5D3D8EC7F436465E8B123007FB05984C","019d666a-197d-7f8d-8a7d-31bab3db4d5c","019d6630-2071-75cb-8026-6699844a2719","","1047","
                <div class=""stimulus-container"">
                    <img src=""images/schematic_sequence/hotel_scheme/hotel_scheme_8.png"" class=""exp-image"">
                    <div class=""question-area"">
                        <p style=""font-size: 20px; font-weight: bold; margin: 0;"">Is there a person in this image?</p>
                    </div>
                </div>","0","main_experiment_trial","8","hotel_scheme","schematic_sequence","chronological","","","","","","","",""
"","","","","","html-keyboard-response","159","533784","0.0-159.0","5D3D8EC7F436465E8B123007FB05984C","019d666a-197d-7f8d-8a7d-31bab3db4d5c","019d6630-2071-75cb-8026-6699844a2719","","null","
                <div class=""stimulus-container"">
                    <img src=""images/schematic_sequence/hotel_scheme/hotel_scheme_9.png"" class=""exp-image"">
                    <div class=""question-area""></div> 
                </div>","null","","","","","","","","","","","","",""
"","","","","","html-button-response","160","534867","0.0-160.0","5D3D8EC7F436465E8B123007FB05984C","019d666a-197d-7f8d-8a7d-31bab3db4d5c","019d6630-2071-75cb-8026-6699844a2719","","1081","
                <div class=""stimulus-container"">
                    <img src=""images/schematic_sequence/hotel_scheme/hotel_scheme_9.png"" class=""exp-image"">
                    <div class=""question-area"">
                        <p style=""font-size: 20px; font-weight: bold; margin: 0;"">Is there a person in this image?</p>
                    </div>
                </div>","0","main_experiment_trial","9","hotel_scheme","schematic_sequence","chronological","","","","","","","",""
"","","","","","html-keyboard-response","161","539869","0.0-161.0","5D3D8EC7F436465E8B123007FB05984C","019d666a-197d-7f8d-8a7d-31bab3db4d5c","019d6630-2071-75cb-8026-6699844a2719","","null","
                <div class=""stimulus-container"">
                    <img src=""images/schematic_sequence/hotel_scheme/hotel_scheme_ten.png"" class=""exp-image"">
                    <div class=""question-area""></div> 
                </div>","null","","","","","","","","","","","","",""
"","","","","","html-button-response","162","541100","0.0-162.0","5D3D8EC7F436465E8B123007FB05984C","019d666a-197d-7f8d-8a7d-31bab3db4d5c","019d6630-2071-75cb-8026-6699844a2719","","1230","
                <div class=""stimulus-container"">
                    <img src=""images/schematic_sequence/hotel_scheme/hotel_scheme_ten.png"" class=""exp-image"">
                    <div class=""question-area"">
                        <p style=""font-size: 20px; font-weight: bold; margin: 0;"">Is there a person in this image?</p>
                    </div>
                </div>","0","main_experiment_trial","ten","hotel_scheme","schematic_sequence","chronological","","","","","","","",""
"","","","","","html-keyboard-response","163","546102","0.0-163.0","5D3D8EC7F436465E8B123007FB05984C","019d666a-197d-7f8d-8a7d-31bab3db4d5c","019d6630-2071-75cb-8026-6699844a2719","","null","<div style=""background-color: white; width: 100vw; height: 100vh;""></div>","null","","","","","","","","","","","","",""
"","","","","","html-keyboard-response","164","551104","0.0-164.0","5D3D8EC7F436465E8B123007FB05984C","019d666a-197d-7f8d-8a7d-31bab3db4d5c","019d6630-2071-75cb-8026-6699844a2719","","null","
                <div class=""stimulus-container"">
                    <img src=""images/schematic_sequence/interview_scheme/interview_scheme_1.png"" class=""exp-image"">
                    <div class=""question-area""></div> 
                </div>","null","","","","","","","","","","","","",""
"","","","","","html-button-response","165","552867","0.0-165.0","5D3D8EC7F436465E8B123007FB05984C","019d666a-197d-7f8d-8a7d-31bab3db4d5c","019d6630-2071-75cb-8026-6699844a2719","","1761","
                <div class=""stimulus-container"">
                    <img src=""images/schematic_sequence/interview_scheme/interview_scheme_1.png"" class=""exp-image"">
                    <div class=""question-area"">
                        <p style=""font-size: 20px; font-weight: bold; margin: 0;"">Is there a person in this image?</p>
                    </div>
                </div>","1","main_experiment_trial","1","interview_scheme","schematic_sequence","chronological","","","","","","","",""
"","","","","","html-keyboard-response","166","557870","0.0-166.0","5D3D8EC7F436465E8B123007FB05984C","019d666a-197d-7f8d-8a7d-31bab3db4d5c","019d6630-2071-75cb-8026-6699844a2719","","null","
                <div class=""stimulus-container"">
                    <img src=""images/schematic_sequence/interview_scheme/interview_scheme_2.png"" class=""exp-image"">
                    <div class=""question-area""></div> 
                </div>","null","","","","","","","","","","","","",""
"","","","","","html-button-response","167","559384","0.0-167.0","5D3D8EC7F436465E8B123007FB05984C","019d666a-197d-7f8d-8a7d-31bab3db4d5c","019d6630-2071-75cb-8026-6699844a2719","","1512","
                <div class=""stimulus-container"">
                    <img src=""images/schematic_sequence/interview_scheme/interview_scheme_2.png"" class=""exp-image"">
                    <div class=""question-area"">
                        <p style=""font-size: 20px; font-weight: bold; margin: 0;"">Is there a person in this image?</p>
                    </div>
                </div>","1","main_experiment_trial","2","interview_scheme","schematic_sequence","chronological","","","","","","","",""
"","","","","","html-keyboard-response","168","564387","0.0-168.0","5D3D8EC7F436465E8B123007FB05984C","019d666a-197d-7f8d-8a7d-31bab3db4d5c","019d6630-2071-75cb-8026-6699844a2719","","null","
                <div class=""stimulus-container"">
                    <img src=""images/schematic_sequence/interview_scheme/interview_scheme_3.png"" class=""exp-image"">
                    <div class=""question-area""></div> 
                </div>","null","","","","","","","","","","","","",""
"","","","","","html-button-response","169","565333","0.0-169.0","5D3D8EC7F436465E8B123007FB05984C","019d666a-197d-7f8d-8a7d-31bab3db4d5c","019d6630-2071-75cb-8026-6699844a2719","","945","
                <div class=""stimulus-container"">
                    <img src=""images/schematic_sequence/interview_scheme/interview_scheme_3.png"" class=""exp-image"">
                    <div class=""question-area"">
                        <p style=""font-size: 20px; font-weight: bold; margin: 0;"">Is there a person in this image?</p>
                    </div>
                </div>","1","main_experiment_trial","3","interview_scheme","schematic_sequence","chronological","","","","","","","",""
"","","","","","html-keyboard-response","170","570336","0.0-170.0","5D3D8EC7F436465E8B123007FB05984C","019d666a-197d-7f8d-8a7d-31bab3db4d5c","019d6630-2071-75cb-8026-6699844a2719","","null","
                <div class=""stimulus-container"">
                    <img src=""images/schematic_sequence/interview_scheme/interview_scheme_4.png"" class=""exp-image"">
                    <div class=""question-area""></div> 
                </div>","null","","","","","","","","","","","","",""
"","","","","","html-button-response","171","571283","0.0-171.0","5D3D8EC7F436465E8B123007FB05984C","019d666a-197d-7f8d-8a7d-31bab3db4d5c","019d6630-2071-75cb-8026-6699844a2719","","946","
                <div class=""stimulus-container"">
                    <img src=""images/schematic_sequence/interview_scheme/interview_scheme_4.png"" class=""exp-image"">
                    <div class=""question-area"">
                        <p style=""font-size: 20px; font-weight: bold; margin: 0;"">Is there a person in this image?</p>
                    </div>
                </div>","1","main_experiment_trial","4","interview_scheme","schematic_sequence","chronological","","","","","","","",""
"","","","","","html-keyboard-response","172","576285","0.0-172.0","5D3D8EC7F436465E8B123007FB05984C","019d666a-197d-7f8d-8a7d-31bab3db4d5c","019d6630-2071-75cb-8026-6699844a2719","","null","
                <div class=""stimulus-container"">
                    <img src=""images/schematic_sequence/interview_scheme/interview_scheme_5.png"" class=""exp-image"">
                    <div class=""question-area""></div> 
                </div>","null","","","","","","","","","","","","",""
"","","","","","html-button-response","173","577667","0.0-173.0","5D3D8EC7F436465E8B123007FB05984C","019d666a-197d-7f8d-8a7d-31bab3db4d5c","019d6630-2071-75cb-8026-6699844a2719","","1381","
                <div class=""stimulus-container"">
                    <img src=""images/schematic_sequence/interview_scheme/interview_scheme_5.png"" class=""exp-image"">
                    <div class=""question-area"">
                        <p style=""font-size: 20px; font-weight: bold; margin: 0;"">Is there a person in this image?</p>
                    </div>
                </div>","0","main_experiment_trial","5","interview_scheme","schematic_sequence","chronological","","","","","","","",""
"","","","","","html-keyboard-response","174","582669","0.0-174.0","5D3D8EC7F436465E8B123007FB05984C","019d666a-197d-7f8d-8a7d-31bab3db4d5c","019d6630-2071-75cb-8026-6699844a2719","","null","
                <div class=""stimulus-container"">
                    <img src=""images/schematic_sequence/interview_scheme/interview_scheme_6.png"" class=""exp-image"">
                    <div class=""question-area""></div> 
                </div>","null","","","","","","","","","","","","",""
"","","","","","html-button-response","175","584216","0.0-175.0","5D3D8EC7F436465E8B123007FB05984C","019d666a-197d-7f8d-8a7d-31bab3db4d5c","019d6630-2071-75cb-8026-6699844a2719","","1545","
                <div class=""stimulus-container"">
                    <img src=""images/schematic_sequence/interview_scheme/interview_scheme_6.png"" class=""exp-image"">
                    <div class=""question-area"">
                        <p style=""font-size: 20px; font-weight: bold; margin: 0;"">Is there a person in this image?</p>
                    </div>
                </div>","0","main_experiment_trial","6","interview_scheme","schematic_sequence","chronological","","","","","","","",""
"","","","","","html-keyboard-response","176","589218","0.0-176.0","5D3D8EC7F436465E8B123007FB05984C","019d666a-197d-7f8d-8a7d-31bab3db4d5c","019d6630-2071-75cb-8026-6699844a2719","","null","
                <div class=""stimulus-container"">
                    <img src=""images/schematic_sequence/interview_scheme/interview_scheme_7.png"" class=""exp-image"">
                    <div class=""question-area""></div> 
                </div>","null","","","","","","","","","","","","",""
"","","","","","html-button-response","177","589767","0.0-177.0","5D3D8EC7F436465E8B123007FB05984C","019d666a-197d-7f8d-8a7d-31bab3db4d5c","019d6630-2071-75cb-8026-6699844a2719","","547","
                <div class=""stimulus-container"">
                    <img src=""images/schematic_sequence/interview_scheme/interview_scheme_7.png"" class=""exp-image"">
                    <div class=""question-area"">
                        <p style=""font-size: 20px; font-weight: bold; margin: 0;"">Is there a person in this image?</p>
                    </div>
                </div>","0","main_experiment_trial","7","interview_scheme","schematic_sequence","chronological","","","","","","","",""
