"success","timeout","failed_images","failed_audio","failed_video","trial_type","trial_index","time_elapsed","internal_node_id","subject_id","study_id","session_id","view_history","rt","stimulus","response","task","image_index","folder","sequence_type","valuable_image_index","reward_type","chosen_image_index","target_X","v_index","n_index","v_folder","n_folder","correct_choice"
"false","false","[]","[]","[]","preload","0","266291","0.0-0.0","B86C296EC8EE4E2E9D9FA13F7F937AC9","019cf009-f872-754f-bb48-b9386ebe3b76","019ceff9-9f67-7034-9722-02cda2445e09","","","","","","","","","","","","","","","","",""
"","","","","","instructions","1","293474","0.0-1.0","B86C296EC8EE4E2E9D9FA13F7F937AC9","019cf009-f872-754f-bb48-b9386ebe3b76","019ceff9-9f67-7034-9722-02cda2445e09","[{""page_index"":0,""viewing_time"":27178}]","27179","","","","","","","","","","","","","","",""
"","","","","","instructions","2","301497","0.0-2.0","B86C296EC8EE4E2E9D9FA13F7F937AC9","019cf009-f872-754f-bb48-b9386ebe3b76","019ceff9-9f67-7034-9722-02cda2445e09","[{""page_index"":0,""viewing_time"":8023}]","8023","","","","","","","","","","","","","","",""
"true","","","","","fullscreen","3","381429","0.0-3.0","B86C296EC8EE4E2E9D9FA13F7F937AC9","019cf009-f872-754f-bb48-b9386ebe3b76","019ceff9-9f67-7034-9722-02cda2445e09","","78927","","","","","","","","","","","","","","",""
"","","","","","instructions","4","456609","0.0-4.0","B86C296EC8EE4E2E9D9FA13F7F937AC9","019cf009-f872-754f-bb48-b9386ebe3b76","019ceff9-9f67-7034-9722-02cda2445e09","[{""page_index"":0,""viewing_time"":75177}]","75178","","","","","","","","","","","","","","",""
"","","","","","instructions","5","477161","0.0-5.0","B86C296EC8EE4E2E9D9FA13F7F937AC9","019cf009-f872-754f-bb48-b9386ebe3b76","019ceff9-9f67-7034-9722-02cda2445e09","[{""page_index"":0,""viewing_time"":20551}]","20551","","","","","","","","","","","","","","",""
"","","","","","html-keyboard-response","6","481163","0.0-6.0","B86C296EC8EE4E2E9D9FA13F7F937AC9","019cf009-f872-754f-bb48-b9386ebe3b76","019ceff9-9f67-7034-9722-02cda2445e09","","null","
                <div class=""stimulus-container"">
                    <img src=""images/instructions/movie_1.png"" class=""exp-image"">
                    <div class=""question-area""></div> 
                </div>","null","","","","","","","","","","","","",""
"","","","","","html-button-response","7","484168","0.0-7.0","B86C296EC8EE4E2E9D9FA13F7F937AC9","019cf009-f872-754f-bb48-b9386ebe3b76","019ceff9-9f67-7034-9722-02cda2445e09","","null","
                <div class=""stimulus-container"">
                    <img src=""images/instructions/movie_1.png"" class=""exp-image"">
                    <div class=""question-area"">
                        <p style=""font-size: 20px; font-weight: bold; margin: 0;"">Was there a person in this image?</p>
                    </div>
                </div>","null","example_question","1","","","","","","","","","","",""
"","","","","","html-keyboard-response","8","488170","0.0-8.0","B86C296EC8EE4E2E9D9FA13F7F937AC9","019cf009-f872-754f-bb48-b9386ebe3b76","019ceff9-9f67-7034-9722-02cda2445e09","","null","
                <div class=""stimulus-container"">
                    <img src=""images/instructions/movie_2.png"" class=""exp-image"">
                    <div class=""question-area""></div> 
                </div>","null","","","","","","","","","","","","",""
"","","","","","html-button-response","9","489801","0.0-9.0","B86C296EC8EE4E2E9D9FA13F7F937AC9","019cf009-f872-754f-bb48-b9386ebe3b76","019ceff9-9f67-7034-9722-02cda2445e09","","1629","
                <div class=""stimulus-container"">
                    <img src=""images/instructions/movie_2.png"" class=""exp-image"">
                    <div class=""question-area"">
                        <p style=""font-size: 20px; font-weight: bold; margin: 0;"">Was there a person in this image?</p>
                    </div>
                </div>","0","example_question","2","","","","","","","","","","",""
"","","","","","html-keyboard-response","10","493804","0.0-10.0","B86C296EC8EE4E2E9D9FA13F7F937AC9","019cf009-f872-754f-bb48-b9386ebe3b76","019ceff9-9f67-7034-9722-02cda2445e09","","null","
                <div class=""stimulus-container"">
                    <img src=""images/instructions/movie_3.png"" class=""exp-image"">
                    <div class=""question-area""></div> 
                </div>","null","","","","","","","","","","","","",""
"","","","","","html-button-response","11","495057","0.0-11.0","B86C296EC8EE4E2E9D9FA13F7F937AC9","019cf009-f872-754f-bb48-b9386ebe3b76","019ceff9-9f67-7034-9722-02cda2445e09","","1251","
                <div class=""stimulus-container"">
                    <img src=""images/instructions/movie_3.png"" class=""exp-image"">
                    <div class=""question-area"">
                        <p style=""font-size: 20px; font-weight: bold; margin: 0;"">Was there a person in this image?</p>
                    </div>
                </div>","0","example_question","3","","","","","","","","","","",""
"","","","","","html-keyboard-response","12","499063","0.0-12.0","B86C296EC8EE4E2E9D9FA13F7F937AC9","019cf009-f872-754f-bb48-b9386ebe3b76","019ceff9-9f67-7034-9722-02cda2445e09","","null","
                <div class=""stimulus-container"">
                    <img src=""images/instructions/movie_4.png"" class=""exp-image"">
                    <div class=""question-area""></div> 
                </div>","null","","","","","","","","","","","","",""
"","","","","","html-button-response","13","502066","0.0-13.0","B86C296EC8EE4E2E9D9FA13F7F937AC9","019cf009-f872-754f-bb48-b9386ebe3b76","019ceff9-9f67-7034-9722-02cda2445e09","","null","
                <div class=""stimulus-container"">
                    <img src=""images/instructions/movie_4.png"" class=""exp-image"">
                    <div class=""question-area"">
                        <p style=""font-size: 20px; font-weight: bold; margin: 0;"">Was there a person in this image?</p>
                    </div>
                </div>","null","example_question","4","","","","","","","","","","",""
"","","","","","instructions","14","505872","0.0-14.0","B86C296EC8EE4E2E9D9FA13F7F937AC9","019cf009-f872-754f-bb48-b9386ebe3b76","019ceff9-9f67-7034-9722-02cda2445e09","[{""page_index"":0,""viewing_time"":3805}]","3806","","","","","","","","","","","","","","",""
"","","","","","instructions","15","519368","0.0-15.0","B86C296EC8EE4E2E9D9FA13F7F937AC9","019cf009-f872-754f-bb48-b9386ebe3b76","019ceff9-9f67-7034-9722-02cda2445e09","[{""page_index"":0,""viewing_time"":13495}]","13496","","","","","","","","","","","","","","",""
"","","","","","html-keyboard-response","16","520382","0.0-16.0","B86C296EC8EE4E2E9D9FA13F7F937AC9","019cf009-f872-754f-bb48-b9386ebe3b76","019ceff9-9f67-7034-9722-02cda2445e09","","null","<div style=""background-color: white; width: 100vw; height: 100vh;""></div>","null","","","","","","","","","","","","",""
"","","","","","html-keyboard-response","17","525398","0.0-17.0","B86C296EC8EE4E2E9D9FA13F7F937AC9","019cf009-f872-754f-bb48-b9386ebe3b76","019ceff9-9f67-7034-9722-02cda2445e09","","null","
                <div class=""stimulus-container"">
                    <img src=""images/schematic_sequence/dinner_party_scheme/dinner_party_scheme_1.png"" class=""exp-image"">
                    <div class=""question-area""></div> 
                </div>","null","","","","","","","","","","","","",""
"","","","","","html-button-response","18","526473","0.0-18.0","B86C296EC8EE4E2E9D9FA13F7F937AC9","019cf009-f872-754f-bb48-b9386ebe3b76","019ceff9-9f67-7034-9722-02cda2445e09","","1073","
                <div class=""stimulus-container"">
                    <img src=""images/schematic_sequence/dinner_party_scheme/dinner_party_scheme_1.png"" class=""exp-image"">
                    <div class=""question-area"">
                        <p style=""font-size: 20px; font-weight: bold; margin: 0;"">Is there a person in this image?</p>
                    </div>
                </div>","0","main_experiment_trial","1","dinner_party_scheme","schematic_sequence","","","","","","","","",""
"","","","","","html-keyboard-response","19","531482","0.0-19.0","B86C296EC8EE4E2E9D9FA13F7F937AC9","019cf009-f872-754f-bb48-b9386ebe3b76","019ceff9-9f67-7034-9722-02cda2445e09","","null","
                <div class=""stimulus-container"">
                    <img src=""images/schematic_sequence/dinner_party_scheme/dinner_party_scheme_2.png"" class=""exp-image"">
                    <div class=""question-area""></div> 
                </div>","null","","","","","","","","","","","","",""
"","","","","","html-button-response","20","532360","0.0-20.0","B86C296EC8EE4E2E9D9FA13F7F937AC9","019cf009-f872-754f-bb48-b9386ebe3b76","019ceff9-9f67-7034-9722-02cda2445e09","","876","
                <div class=""stimulus-container"">
                    <img src=""images/schematic_sequence/dinner_party_scheme/dinner_party_scheme_2.png"" class=""exp-image"">
                    <div class=""question-area"">
                        <p style=""font-size: 20px; font-weight: bold; margin: 0;"">Is there a person in this image?</p>
                    </div>
                </div>","0","main_experiment_trial","2","dinner_party_scheme","schematic_sequence","","","","","","","","",""
"","","","","","html-keyboard-response","21","537361","0.0-21.0","B86C296EC8EE4E2E9D9FA13F7F937AC9","019cf009-f872-754f-bb48-b9386ebe3b76","019ceff9-9f67-7034-9722-02cda2445e09","","null","
                <div class=""stimulus-container"">
                    <img src=""images/schematic_sequence/dinner_party_scheme/dinner_party_scheme_3.png"" class=""exp-image"">
                    <div class=""question-area""></div> 
                </div>","null","","","","","","","","","","","","",""
"","","","","","html-button-response","22","538809","0.0-22.0","B86C296EC8EE4E2E9D9FA13F7F937AC9","019cf009-f872-754f-bb48-b9386ebe3b76","019ceff9-9f67-7034-9722-02cda2445e09","","1446","
                <div class=""stimulus-container"">
                    <img src=""images/schematic_sequence/dinner_party_scheme/dinner_party_scheme_3.png"" class=""exp-image"">
                    <div class=""question-area"">
                        <p style=""font-size: 20px; font-weight: bold; margin: 0;"">Is there a person in this image?</p>
                    </div>
                </div>","0","main_experiment_trial","3","dinner_party_scheme","schematic_sequence","","","","","","","","",""
"","","","","","html-keyboard-response","23","543819","0.0-23.0","B86C296EC8EE4E2E9D9FA13F7F937AC9","019cf009-f872-754f-bb48-b9386ebe3b76","019ceff9-9f67-7034-9722-02cda2445e09","","null","
                <div class=""stimulus-container"">
                    <img src=""images/schematic_sequence/dinner_party_scheme/dinner_party_scheme_4.png"" class=""exp-image"">
                    <div class=""question-area""></div> 
                </div>","null","","","","","","","","","","","","",""
"","","","","","html-button-response","24","545360","0.0-24.0","B86C296EC8EE4E2E9D9FA13F7F937AC9","019cf009-f872-754f-bb48-b9386ebe3b76","019ceff9-9f67-7034-9722-02cda2445e09","","1540","
                <div class=""stimulus-container"">
                    <img src=""images/schematic_sequence/dinner_party_scheme/dinner_party_scheme_4.png"" class=""exp-image"">
                    <div class=""question-area"">
                        <p style=""font-size: 20px; font-weight: bold; margin: 0;"">Is there a person in this image?</p>
                    </div>
                </div>","0","main_experiment_trial","4","dinner_party_scheme","schematic_sequence","","","","","","","","",""
"","","","","","html-keyboard-response","25","550366","0.0-25.0","B86C296EC8EE4E2E9D9FA13F7F937AC9","019cf009-f872-754f-bb48-b9386ebe3b76","019ceff9-9f67-7034-9722-02cda2445e09","","null","
                <div class=""stimulus-container"">
                    <img src=""images/schematic_sequence/dinner_party_scheme/dinner_party_scheme_5.png"" class=""exp-image"">
                    <div class=""question-area""></div> 
                </div>","null","","","","","","","","","","","","",""
"","","","","","html-button-response","26","551129","0.0-26.0","B86C296EC8EE4E2E9D9FA13F7F937AC9","019cf009-f872-754f-bb48-b9386ebe3b76","019ceff9-9f67-7034-9722-02cda2445e09","","760","
                <div class=""stimulus-container"">
                    <img src=""images/schematic_sequence/dinner_party_scheme/dinner_party_scheme_5.png"" class=""exp-image"">
                    <div class=""question-area"">
                        <p style=""font-size: 20px; font-weight: bold; margin: 0;"">Is there a person in this image?</p>
                    </div>
                </div>","0","main_experiment_trial","5","dinner_party_scheme","schematic_sequence","","","","","","","","",""
"","","","","","html-keyboard-response","27","556132","0.0-27.0","B86C296EC8EE4E2E9D9FA13F7F937AC9","019cf009-f872-754f-bb48-b9386ebe3b76","019ceff9-9f67-7034-9722-02cda2445e09","","null","
                <div class=""stimulus-container"">
                    <img src=""images/schematic_sequence/dinner_party_scheme/dinner_party_scheme_6.png"" class=""exp-image"">
                    <div class=""question-area""></div> 
                </div>","null","","","","","","","","","","","","",""
"","","","","","html-button-response","28","557024","0.0-28.0","B86C296EC8EE4E2E9D9FA13F7F937AC9","019cf009-f872-754f-bb48-b9386ebe3b76","019ceff9-9f67-7034-9722-02cda2445e09","","890","
                <div class=""stimulus-container"">
                    <img src=""images/schematic_sequence/dinner_party_scheme/dinner_party_scheme_6.png"" class=""exp-image"">
                    <div class=""question-area"">
                        <p style=""font-size: 20px; font-weight: bold; margin: 0;"">Is there a person in this image?</p>
                    </div>
                </div>","0","main_experiment_trial","6","dinner_party_scheme","schematic_sequence","","","","","","","","",""
"","","","","","html-keyboard-response","29","562035","0.0-29.0","B86C296EC8EE4E2E9D9FA13F7F937AC9","019cf009-f872-754f-bb48-b9386ebe3b76","019ceff9-9f67-7034-9722-02cda2445e09","","null","
                <div class=""stimulus-container"">
                    <img src=""images/schematic_sequence/dinner_party_scheme/dinner_party_scheme_7.png"" class=""exp-image"">
                    <div class=""question-area""></div> 
                </div>","null","","","","","","","","","","","","",""
"","","","","","html-button-response","30","563144","0.0-30.0","B86C296EC8EE4E2E9D9FA13F7F937AC9","019cf009-f872-754f-bb48-b9386ebe3b76","019ceff9-9f67-7034-9722-02cda2445e09","","1107","
                <div class=""stimulus-container"">
                    <img src=""images/schematic_sequence/dinner_party_scheme/dinner_party_scheme_7.png"" class=""exp-image"">
                    <div class=""question-area"">
                        <p style=""font-size: 20px; font-weight: bold; margin: 0;"">Is there a person in this image?</p>
                    </div>
                </div>","0","main_experiment_trial","7","dinner_party_scheme","schematic_sequence","","","","","","","","",""
"","","","","","html-keyboard-response","31","568147","0.0-31.0","B86C296EC8EE4E2E9D9FA13F7F937AC9","019cf009-f872-754f-bb48-b9386ebe3b76","019ceff9-9f67-7034-9722-02cda2445e09","","null","
                <div class=""stimulus-container"">
                    <img src=""images/schematic_sequence/dinner_party_scheme/dinner_party_scheme_8.png"" class=""exp-image"">
                    <div class=""question-area""></div> 
                </div>","null","","","","","","","","","","","","",""
"","","","","","html-button-response","32","570289","0.0-32.0","B86C296EC8EE4E2E9D9FA13F7F937AC9","019cf009-f872-754f-bb48-b9386ebe3b76","019ceff9-9f67-7034-9722-02cda2445e09","","2139","
                <div class=""stimulus-container"">
                    <img src=""images/schematic_sequence/dinner_party_scheme/dinner_party_scheme_8.png"" class=""exp-image"">
                    <div class=""question-area"">
                        <p style=""font-size: 20px; font-weight: bold; margin: 0;"">Is there a person in this image?</p>
                    </div>
                </div>","0","main_experiment_trial","8","dinner_party_scheme","schematic_sequence","","","","","","","","",""
"","","","","","html-keyboard-response","33","575304","0.0-33.0","B86C296EC8EE4E2E9D9FA13F7F937AC9","019cf009-f872-754f-bb48-b9386ebe3b76","019ceff9-9f67-7034-9722-02cda2445e09","","null","
                <div class=""stimulus-container"">
                    <img src=""images/schematic_sequence/dinner_party_scheme/dinner_party_scheme_9.png"" class=""exp-image"">
                    <div class=""question-area""></div> 
                </div>","null","","","","","","","","","","","","",""
"","","","","","html-button-response","34","578048","0.0-34.0","B86C296EC8EE4E2E9D9FA13F7F937AC9","019cf009-f872-754f-bb48-b9386ebe3b76","019ceff9-9f67-7034-9722-02cda2445e09","","2743","
                <div class=""stimulus-container"">
                    <img src=""images/schematic_sequence/dinner_party_scheme/dinner_party_scheme_9.png"" class=""exp-image"">
                    <div class=""question-area"">
                        <p style=""font-size: 20px; font-weight: bold; margin: 0;"">Is there a person in this image?</p>
                    </div>
                </div>","0","main_experiment_trial","9","dinner_party_scheme","schematic_sequence","","","","","","","","",""
"","","","","","html-keyboard-response","35","583057","0.0-35.0","B86C296EC8EE4E2E9D9FA13F7F937AC9","019cf009-f872-754f-bb48-b9386ebe3b76","019ceff9-9f67-7034-9722-02cda2445e09","","null","
                <div class=""stimulus-container"">
                    <img src=""images/schematic_sequence/dinner_party_scheme/dinner_party_scheme_ten.png"" class=""exp-image"">
                    <div class=""question-area""></div> 
                </div>","null","","","","","","","","","","","","",""
"","","","","","html-button-response","36","585184","0.0-36.0","B86C296EC8EE4E2E9D9FA13F7F937AC9","019cf009-f872-754f-bb48-b9386ebe3b76","019ceff9-9f67-7034-9722-02cda2445e09","","2125","
                <div class=""stimulus-container"">
                    <img src=""images/schematic_sequence/dinner_party_scheme/dinner_party_scheme_ten.png"" class=""exp-image"">
                    <div class=""question-area"">
                        <p style=""font-size: 20px; font-weight: bold; margin: 0;"">Is there a person in this image?</p>
                    </div>
                </div>","0","main_experiment_trial","ten","dinner_party_scheme","schematic_sequence","","","","","","","","",""
"","","","","","html-keyboard-response","37","586195","0.0-37.0","B86C296EC8EE4E2E9D9FA13F7F937AC9","019cf009-f872-754f-bb48-b9386ebe3b76","019ceff9-9f67-7034-9722-02cda2445e09","","null","<div style=""background-color: white; width: 100vw; height: 100vh;""></div>","null","","","","","","","","","","","","",""
"","","","","","html-keyboard-response","38","591199","0.0-38.0","B86C296EC8EE4E2E9D9FA13F7F937AC9","019cf009-f872-754f-bb48-b9386ebe3b76","019ceff9-9f67-7034-9722-02cda2445e09","","null","
                <div class=""stimulus-container"">
                    <img src=""images/causal_sequence/package_causal/package_causal_1.png"" class=""exp-image"">
                    <div class=""question-area""></div> 
                </div>","null","","","","","","","","","","","","",""
"","","","","","html-button-response","39","592624","0.0-39.0","B86C296EC8EE4E2E9D9FA13F7F937AC9","019cf009-f872-754f-bb48-b9386ebe3b76","019ceff9-9f67-7034-9722-02cda2445e09","","1424","
                <div class=""stimulus-container"">
                    <img src=""images/causal_sequence/package_causal/package_causal_1.png"" class=""exp-image"">
                    <div class=""question-area"">
                        <p style=""font-size: 20px; font-weight: bold; margin: 0;"">Is there a person in this image?</p>
                    </div>
                </div>","0","main_experiment_trial","1","package_causal","causal_sequence","","","","","","","","",""
"","","","","","html-keyboard-response","40","597631","0.0-40.0","B86C296EC8EE4E2E9D9FA13F7F937AC9","019cf009-f872-754f-bb48-b9386ebe3b76","019ceff9-9f67-7034-9722-02cda2445e09","","null","
                <div class=""stimulus-container"">
                    <img src=""images/causal_sequence/package_causal/package_causal_2.png"" class=""exp-image"">
                    <div class=""question-area""></div> 
                </div>","null","","","","","","","","","","","","",""
"","","","","","html-button-response","41","598912","0.0-41.0","B86C296EC8EE4E2E9D9FA13F7F937AC9","019cf009-f872-754f-bb48-b9386ebe3b76","019ceff9-9f67-7034-9722-02cda2445e09","","1280","
                <div class=""stimulus-container"">
                    <img src=""images/causal_sequence/package_causal/package_causal_2.png"" class=""exp-image"">
                    <div class=""question-area"">
                        <p style=""font-size: 20px; font-weight: bold; margin: 0;"">Is there a person in this image?</p>
                    </div>
                </div>","0","main_experiment_trial","2","package_causal","causal_sequence","","","","","","","","",""
"","","","","","html-keyboard-response","42","603925","0.0-42.0","B86C296EC8EE4E2E9D9FA13F7F937AC9","019cf009-f872-754f-bb48-b9386ebe3b76","019ceff9-9f67-7034-9722-02cda2445e09","","null","
                <div class=""stimulus-container"">
                    <img src=""images/causal_sequence/package_causal/package_causal_3.png"" class=""exp-image"">
                    <div class=""question-area""></div> 
                </div>","null","","","","","","","","","","","","",""
"","","","","","html-button-response","43","604944","0.0-43.0","B86C296EC8EE4E2E9D9FA13F7F937AC9","019cf009-f872-754f-bb48-b9386ebe3b76","019ceff9-9f67-7034-9722-02cda2445e09","","1017","
                <div class=""stimulus-container"">
                    <img src=""images/causal_sequence/package_causal/package_causal_3.png"" class=""exp-image"">
                    <div class=""question-area"">
                        <p style=""font-size: 20px; font-weight: bold; margin: 0;"">Is there a person in this image?</p>
                    </div>
                </div>","0","main_experiment_trial","3","package_causal","causal_sequence","","","","","","","","",""
"","","","","","html-keyboard-response","44","609957","0.0-44.0","B86C296EC8EE4E2E9D9FA13F7F937AC9","019cf009-f872-754f-bb48-b9386ebe3b76","019ceff9-9f67-7034-9722-02cda2445e09","","null","
                <div class=""stimulus-container"">
                    <img src=""images/causal_sequence/package_causal/package_causal_4.png"" class=""exp-image"">
                    <div class=""question-area""></div> 
                </div>","null","","","","","","","","","","","","",""
"","","","","","html-button-response","45","611392","0.0-45.0","B86C296EC8EE4E2E9D9FA13F7F937AC9","019cf009-f872-754f-bb48-b9386ebe3b76","019ceff9-9f67-7034-9722-02cda2445e09","","1433","
                <div class=""stimulus-container"">
                    <img src=""images/causal_sequence/package_causal/package_causal_4.png"" class=""exp-image"">
                    <div class=""question-area"">
                        <p style=""font-size: 20px; font-weight: bold; margin: 0;"">Is there a person in this image?</p>
                    </div>
                </div>","1","main_experiment_trial","4","package_causal","causal_sequence","","","","","","","","",""
"","","","","","html-keyboard-response","46","616409","0.0-46.0","B86C296EC8EE4E2E9D9FA13F7F937AC9","019cf009-f872-754f-bb48-b9386ebe3b76","019ceff9-9f67-7034-9722-02cda2445e09","","null","
                <div class=""stimulus-container"">
                    <img src=""images/causal_sequence/package_causal/package_causal_5.png"" class=""exp-image"">
                    <div class=""question-area""></div> 
                </div>","null","","","","","","","","","","","","",""
"","","","","","html-button-response","47","618056","0.0-47.0","B86C296EC8EE4E2E9D9FA13F7F937AC9","019cf009-f872-754f-bb48-b9386ebe3b76","019ceff9-9f67-7034-9722-02cda2445e09","","1645","
                <div class=""stimulus-container"">
                    <img src=""images/causal_sequence/package_causal/package_causal_5.png"" class=""exp-image"">
                    <div class=""question-area"">
                        <p style=""font-size: 20px; font-weight: bold; margin: 0;"">Is there a person in this image?</p>
                    </div>
                </div>","0","main_experiment_trial","5","package_causal","causal_sequence","","","","","","","","",""
"","","","","","html-keyboard-response","48","623058","0.0-48.0","B86C296EC8EE4E2E9D9FA13F7F937AC9","019cf009-f872-754f-bb48-b9386ebe3b76","019ceff9-9f67-7034-9722-02cda2445e09","","null","
                <div class=""stimulus-container"">
                    <img src=""images/causal_sequence/package_causal/package_causal_6.png"" class=""exp-image"">
                    <div class=""question-area""></div> 
                </div>","null","","","","","","","","","","","","",""
"","","","","","html-button-response","49","624288","0.0-49.0","B86C296EC8EE4E2E9D9FA13F7F937AC9","019cf009-f872-754f-bb48-b9386ebe3b76","019ceff9-9f67-7034-9722-02cda2445e09","","1229","
                <div class=""stimulus-container"">
                    <img src=""images/causal_sequence/package_causal/package_causal_6.png"" class=""exp-image"">
                    <div class=""question-area"">
                        <p style=""font-size: 20px; font-weight: bold; margin: 0;"">Is there a person in this image?</p>
                    </div>
                </div>","0","main_experiment_trial","6","package_causal","causal_sequence","","","","","","","","",""
"","","","","","html-keyboard-response","50","629289","0.0-50.0","B86C296EC8EE4E2E9D9FA13F7F937AC9","019cf009-f872-754f-bb48-b9386ebe3b76","019ceff9-9f67-7034-9722-02cda2445e09","","null","
                <div class=""stimulus-container"">
                    <img src=""images/causal_sequence/package_causal/package_causal_7.png"" class=""exp-image"">
                    <div class=""question-area""></div> 
                </div>","null","","","","","","","","","","","","",""
"","","","","","html-button-response","51","630648","0.0-51.0","B86C296EC8EE4E2E9D9FA13F7F937AC9","019cf009-f872-754f-bb48-b9386ebe3b76","019ceff9-9f67-7034-9722-02cda2445e09","","1357","
                <div class=""stimulus-container"">
                    <img src=""images/causal_sequence/package_causal/package_causal_7.png"" class=""exp-image"">
                    <div class=""question-area"">
                        <p style=""font-size: 20px; font-weight: bold; margin: 0;"">Is there a person in this image?</p>
                    </div>
                </div>","0","main_experiment_trial","7","package_causal","causal_sequence","","","","","","","","",""
"","","","","","html-keyboard-response","52","635654","0.0-52.0","B86C296EC8EE4E2E9D9FA13F7F937AC9","019cf009-f872-754f-bb48-b9386ebe3b76","019ceff9-9f67-7034-9722-02cda2445e09","","null","
                <div class=""stimulus-container"">
                    <img src=""images/causal_sequence/package_causal/package_causal_8.png"" class=""exp-image"">
                    <div class=""question-area""></div> 
                </div>","null","","","","","","","","","","","","",""
"","","","","","html-button-response","53","637344","0.0-53.0","B86C296EC8EE4E2E9D9FA13F7F937AC9","019cf009-f872-754f-bb48-b9386ebe3b76","019ceff9-9f67-7034-9722-02cda2445e09","","1688","
                <div class=""stimulus-container"">
                    <img src=""images/causal_sequence/package_causal/package_causal_8.png"" class=""exp-image"">
                    <div class=""question-area"">
                        <p style=""font-size: 20px; font-weight: bold; margin: 0;"">Is there a person in this image?</p>
                    </div>
                </div>","0","main_experiment_trial","8","package_causal","causal_sequence","","","","","","","","",""
"","","","","","html-keyboard-response","54","642351","0.0-54.0","B86C296EC8EE4E2E9D9FA13F7F937AC9","019cf009-f872-754f-bb48-b9386ebe3b76","019ceff9-9f67-7034-9722-02cda2445e09","","null","
                <div class=""stimulus-container"">
                    <img src=""images/causal_sequence/package_causal/package_causal_9.png"" class=""exp-image"">
                    <div class=""question-area""></div> 
                </div>","null","","","","","","","","","","","","",""
"","","","","","html-button-response","55","643400","0.0-55.0","B86C296EC8EE4E2E9D9FA13F7F937AC9","019cf009-f872-754f-bb48-b9386ebe3b76","019ceff9-9f67-7034-9722-02cda2445e09","","1047","
                <div class=""stimulus-container"">
                    <img src=""images/causal_sequence/package_causal/package_causal_9.png"" class=""exp-image"">
                    <div class=""question-area"">
                        <p style=""font-size: 20px; font-weight: bold; margin: 0;"">Is there a person in this image?</p>
                    </div>
                </div>","0","main_experiment_trial","9","package_causal","causal_sequence","","","","","","","","",""
"","","","","","html-keyboard-response","56","648413","0.0-56.0","B86C296EC8EE4E2E9D9FA13F7F937AC9","019cf009-f872-754f-bb48-b9386ebe3b76","019ceff9-9f67-7034-9722-02cda2445e09","","null","
                <div class=""stimulus-container"">
                    <img src=""images/causal_sequence/package_causal/package_causal_ten.png"" class=""exp-image"">
                    <div class=""question-area""></div> 
                </div>","null","","","","","","","","","","","","",""
"","","","","","html-button-response","57","650432","0.0-57.0","B86C296EC8EE4E2E9D9FA13F7F937AC9","019cf009-f872-754f-bb48-b9386ebe3b76","019ceff9-9f67-7034-9722-02cda2445e09","","2018","
                <div class=""stimulus-container"">
                    <img src=""images/causal_sequence/package_causal/package_causal_ten.png"" class=""exp-image"">
                    <div class=""question-area"">
                        <p style=""font-size: 20px; font-weight: bold; margin: 0;"">Is there a person in this image?</p>
                    </div>
                </div>","0","main_experiment_trial","ten","package_causal","causal_sequence","","","","","","","","",""
"","","","","","html-keyboard-response","58","651445","0.0-58.0","B86C296EC8EE4E2E9D9FA13F7F937AC9","019cf009-f872-754f-bb48-b9386ebe3b76","019ceff9-9f67-7034-9722-02cda2445e09","","null","<div style=""background-color: white; width: 100vw; height: 100vh;""></div>","null","","","","","","","","","","","","",""
"","","","","","html-keyboard-response","59","656455","0.0-59.0","B86C296EC8EE4E2E9D9FA13F7F937AC9","019cf009-f872-754f-bb48-b9386ebe3b76","019ceff9-9f67-7034-9722-02cda2445e09","","null","
                <div class=""stimulus-container"">
                    <img src=""images/schematic_sequence/flight_scheme/flight_scheme_1.png"" class=""exp-image"">
                    <div class=""question-area""></div> 
                </div>","null","","","","","","","","","","","","",""
"","","","","","html-button-response","60","658088","0.0-60.0","B86C296EC8EE4E2E9D9FA13F7F937AC9","019cf009-f872-754f-bb48-b9386ebe3b76","019ceff9-9f67-7034-9722-02cda2445e09","","1631","
                <div class=""stimulus-container"">
                    <img src=""images/schematic_sequence/flight_scheme/flight_scheme_1.png"" class=""exp-image"">
                    <div class=""question-area"">
                        <p style=""font-size: 20px; font-weight: bold; margin: 0;"">Is there a person in this image?</p>
                    </div>
                </div>","0","main_experiment_trial","1","flight_scheme","schematic_sequence","","","","","","","","",""
"","","","","","html-keyboard-response","61","663100","0.0-61.0","B86C296EC8EE4E2E9D9FA13F7F937AC9","019cf009-f872-754f-bb48-b9386ebe3b76","019ceff9-9f67-7034-9722-02cda2445e09","","null","
                <div class=""stimulus-container"">
                    <img src=""images/schematic_sequence/flight_scheme/flight_scheme_2.png"" class=""exp-image"">
                    <div class=""question-area""></div> 
                </div>","null","","","","","","","","","","","","",""
"","","","","","html-button-response","62","664264","0.0-62.0","B86C296EC8EE4E2E9D9FA13F7F937AC9","019cf009-f872-754f-bb48-b9386ebe3b76","019ceff9-9f67-7034-9722-02cda2445e09","","1162","
                <div class=""stimulus-container"">
                    <img src=""images/schematic_sequence/flight_scheme/flight_scheme_2.png"" class=""exp-image"">
                    <div class=""question-area"">
                        <p style=""font-size: 20px; font-weight: bold; margin: 0;"">Is there a person in this image?</p>
                    </div>
                </div>","1","main_experiment_trial","2","flight_scheme","schematic_sequence","","","","","","","","",""
"","","","","","html-keyboard-response","63","669273","0.0-63.0","B86C296EC8EE4E2E9D9FA13F7F937AC9","019cf009-f872-754f-bb48-b9386ebe3b76","019ceff9-9f67-7034-9722-02cda2445e09","","null","
                <div class=""stimulus-container"">
                    <img src=""images/schematic_sequence/flight_scheme/flight_scheme_3.png"" class=""exp-image"">
                    <div class=""question-area""></div> 
                </div>","null","","","","","","","","","","","","",""
"","","","","","html-button-response","64","670280","0.0-64.0","B86C296EC8EE4E2E9D9FA13F7F937AC9","019cf009-f872-754f-bb48-b9386ebe3b76","019ceff9-9f67-7034-9722-02cda2445e09","","1006","
                <div class=""stimulus-container"">
                    <img src=""images/schematic_sequence/flight_scheme/flight_scheme_3.png"" class=""exp-image"">
                    <div class=""question-area"">
                        <p style=""font-size: 20px; font-weight: bold; margin: 0;"">Is there a person in this image?</p>
                    </div>
                </div>","0","main_experiment_trial","3","flight_scheme","schematic_sequence","","","","","","","","",""
"","","","","","html-keyboard-response","65","675285","0.0-65.0","B86C296EC8EE4E2E9D9FA13F7F937AC9","019cf009-f872-754f-bb48-b9386ebe3b76","019ceff9-9f67-7034-9722-02cda2445e09","","null","
                <div class=""stimulus-container"">
                    <img src=""images/schematic_sequence/flight_scheme/flight_scheme_4.png"" class=""exp-image"">
                    <div class=""question-area""></div> 
                </div>","null","","","","","","","","","","","","",""
"","","","","","html-button-response","66","676440","0.0-66.0","B86C296EC8EE4E2E9D9FA13F7F937AC9","019cf009-f872-754f-bb48-b9386ebe3b76","019ceff9-9f67-7034-9722-02cda2445e09","","1153","
                <div class=""stimulus-container"">
                    <img src=""images/schematic_sequence/flight_scheme/flight_scheme_4.png"" class=""exp-image"">
                    <div class=""question-area"">
                        <p style=""font-size: 20px; font-weight: bold; margin: 0;"">Is there a person in this image?</p>
                    </div>
                </div>","0","main_experiment_trial","4","flight_scheme","schematic_sequence","","","","","","","","",""
"","","","","","html-keyboard-response","67","681444","0.0-67.0","B86C296EC8EE4E2E9D9FA13F7F937AC9","019cf009-f872-754f-bb48-b9386ebe3b76","019ceff9-9f67-7034-9722-02cda2445e09","","null","
                <div class=""stimulus-container"">
                    <img src=""images/schematic_sequence/flight_scheme/flight_scheme_5.png"" class=""exp-image"">
                    <div class=""question-area""></div> 
                </div>","null","","","","","","","","","","","","",""
"","","","","","html-button-response","68","683448","0.0-68.0","B86C296EC8EE4E2E9D9FA13F7F937AC9","019cf009-f872-754f-bb48-b9386ebe3b76","019ceff9-9f67-7034-9722-02cda2445e09","","2002","
                <div class=""stimulus-container"">
                    <img src=""images/schematic_sequence/flight_scheme/flight_scheme_5.png"" class=""exp-image"">
                    <div class=""question-area"">
                        <p style=""font-size: 20px; font-weight: bold; margin: 0;"">Is there a person in this image?</p>
                    </div>
                </div>","0","main_experiment_trial","5","flight_scheme","schematic_sequence","","","","","","","","",""
"","","","","","html-keyboard-response","69","688459","0.0-69.0","B86C296EC8EE4E2E9D9FA13F7F937AC9","019cf009-f872-754f-bb48-b9386ebe3b76","019ceff9-9f67-7034-9722-02cda2445e09","","null","
                <div class=""stimulus-container"">
                    <img src=""images/schematic_sequence/flight_scheme/flight_scheme_6.png"" class=""exp-image"">
                    <div class=""question-area""></div> 
                </div>","null","","","","","","","","","","","","",""
"","","","","","html-button-response","70","691475","0.0-70.0","B86C296EC8EE4E2E9D9FA13F7F937AC9","019cf009-f872-754f-bb48-b9386ebe3b76","019ceff9-9f67-7034-9722-02cda2445e09","","null","
                <div class=""stimulus-container"">
                    <img src=""images/schematic_sequence/flight_scheme/flight_scheme_6.png"" class=""exp-image"">
                    <div class=""question-area"">
                        <p style=""font-size: 20px; font-weight: bold; margin: 0;"">Is there a person in this image?</p>
                    </div>
                </div>","null","main_experiment_trial","6","flight_scheme","schematic_sequence","","","","","","","","",""
"","","","","","html-keyboard-response","71","696489","0.0-71.0","B86C296EC8EE4E2E9D9FA13F7F937AC9","019cf009-f872-754f-bb48-b9386ebe3b76","019ceff9-9f67-7034-9722-02cda2445e09","","null","
                <div class=""stimulus-container"">
                    <img src=""images/schematic_sequence/flight_scheme/flight_scheme_7.png"" class=""exp-image"">
                    <div class=""question-area""></div> 
                </div>","null","","","","","","","","","","","","",""
"","","","","","html-button-response","72","698736","0.0-72.0","B86C296EC8EE4E2E9D9FA13F7F937AC9","019cf009-f872-754f-bb48-b9386ebe3b76","019ceff9-9f67-7034-9722-02cda2445e09","","2245","
                <div class=""stimulus-container"">
                    <img src=""images/schematic_sequence/flight_scheme/flight_scheme_7.png"" class=""exp-image"">
                    <div class=""question-area"">
                        <p style=""font-size: 20px; font-weight: bold; margin: 0;"">Is there a person in this image?</p>
                    </div>
                </div>","1","main_experiment_trial","7","flight_scheme","schematic_sequence","","","","","","","","",""
"","","","","","html-keyboard-response","73","703742","0.0-73.0","B86C296EC8EE4E2E9D9FA13F7F937AC9","019cf009-f872-754f-bb48-b9386ebe3b76","019ceff9-9f67-7034-9722-02cda2445e09","","null","
                <div class=""stimulus-container"">
                    <img src=""images/schematic_sequence/flight_scheme/flight_scheme_8.png"" class=""exp-image"">
                    <div class=""question-area""></div> 
                </div>","null","","","","","","","","","","","","",""
"","","","","","html-button-response","74","706757","0.0-74.0","B86C296EC8EE4E2E9D9FA13F7F937AC9","019cf009-f872-754f-bb48-b9386ebe3b76","019ceff9-9f67-7034-9722-02cda2445e09","","null","
                <div class=""stimulus-container"">
                    <img src=""images/schematic_sequence/flight_scheme/flight_scheme_8.png"" class=""exp-image"">
                    <div class=""question-area"">
                        <p style=""font-size: 20px; font-weight: bold; margin: 0;"">Is there a person in this image?</p>
                    </div>
                </div>","null","main_experiment_trial","8","flight_scheme","schematic_sequence","","","","","","","","",""
"","","","","","html-keyboard-response","75","711772","0.0-75.0","B86C296EC8EE4E2E9D9FA13F7F937AC9","019cf009-f872-754f-bb48-b9386ebe3b76","019ceff9-9f67-7034-9722-02cda2445e09","","null","
                <div class=""stimulus-container"">
                    <img src=""images/schematic_sequence/flight_scheme/flight_scheme_9.png"" class=""exp-image"">
                    <div class=""question-area""></div> 
                </div>","null","","","","","","","","","","","","",""
"","","","","","html-button-response","76","714792","0.0-76.0","B86C296EC8EE4E2E9D9FA13F7F937AC9","019cf009-f872-754f-bb48-b9386ebe3b76","019ceff9-9f67-7034-9722-02cda2445e09","","null","
                <div class=""stimulus-container"">
                    <img src=""images/schematic_sequence/flight_scheme/flight_scheme_9.png"" class=""exp-image"">
                    <div class=""question-area"">
                        <p style=""font-size: 20px; font-weight: bold; margin: 0;"">Is there a person in this image?</p>
                    </div>
                </div>","null","main_experiment_trial","9","flight_scheme","schematic_sequence","","","","","","","","",""
"","","","","","html-keyboard-response","77","719804","0.0-77.0","B86C296EC8EE4E2E9D9FA13F7F937AC9","019cf009-f872-754f-bb48-b9386ebe3b76","019ceff9-9f67-7034-9722-02cda2445e09","","null","
                <div class=""stimulus-container"">
                    <img src=""images/schematic_sequence/flight_scheme/flight_scheme_ten.png"" class=""exp-image"">
                    <div class=""question-area""></div> 
                </div>","null","","","","","","","","","","","","",""
"","","","","","html-button-response","78","722184","0.0-78.0","B86C296EC8EE4E2E9D9FA13F7F937AC9","019cf009-f872-754f-bb48-b9386ebe3b76","019ceff9-9f67-7034-9722-02cda2445e09","","2378","
                <div class=""stimulus-container"">
                    <img src=""images/schematic_sequence/flight_scheme/flight_scheme_ten.png"" class=""exp-image"">
                    <div class=""question-area"">
                        <p style=""font-size: 20px; font-weight: bold; margin: 0;"">Is there a person in this image?</p>
                    </div>
                </div>","0","main_experiment_trial","ten","flight_scheme","schematic_sequence","","","","","","","","",""
"","","","","","html-keyboard-response","79","723194","0.0-79.0","B86C296EC8EE4E2E9D9FA13F7F937AC9","019cf009-f872-754f-bb48-b9386ebe3b76","019ceff9-9f67-7034-9722-02cda2445e09","","null","<div style=""background-color: white; width: 100vw; height: 100vh;""></div>","null","","","","","","","","","","","","",""
"","","","","","html-keyboard-response","80","728211","0.0-80.0","B86C296EC8EE4E2E9D9FA13F7F937AC9","019cf009-f872-754f-bb48-b9386ebe3b76","019ceff9-9f67-7034-9722-02cda2445e09","","null","
                <div class=""stimulus-container"">
                    <img src=""images/schematic_sequence/restaurant_scheme/restaurant_scheme_1.png"" class=""exp-image"">
                    <div class=""question-area""></div> 
                </div>","null","","","","","","","","","","","","",""
"","","","","","html-button-response","81","731213","0.0-81.0","B86C296EC8EE4E2E9D9FA13F7F937AC9","019cf009-f872-754f-bb48-b9386ebe3b76","019ceff9-9f67-7034-9722-02cda2445e09","","null","
                <div class=""stimulus-container"">
                    <img src=""images/schematic_sequence/restaurant_scheme/restaurant_scheme_1.png"" class=""exp-image"">
                    <div class=""question-area"">
                        <p style=""font-size: 20px; font-weight: bold; margin: 0;"">Is there a person in this image?</p>
                    </div>
                </div>","null","main_experiment_trial","1","restaurant_scheme","schematic_sequence","","","","","","","","",""
"","","","","","html-keyboard-response","82","736225","0.0-82.0","B86C296EC8EE4E2E9D9FA13F7F937AC9","019cf009-f872-754f-bb48-b9386ebe3b76","019ceff9-9f67-7034-9722-02cda2445e09","","null","
                <div class=""stimulus-container"">
                    <img src=""images/schematic_sequence/restaurant_scheme/restaurant_scheme_2.png"" class=""exp-image"">
                    <div class=""question-area""></div> 
                </div>","null","","","","","","","","","","","","",""
"","","","","","html-button-response","83","738280","0.0-83.0","B86C296EC8EE4E2E9D9FA13F7F937AC9","019cf009-f872-754f-bb48-b9386ebe3b76","019ceff9-9f67-7034-9722-02cda2445e09","","2053","
                <div class=""stimulus-container"">
                    <img src=""images/schematic_sequence/restaurant_scheme/restaurant_scheme_2.png"" class=""exp-image"">
                    <div class=""question-area"">
                        <p style=""font-size: 20px; font-weight: bold; margin: 0;"">Is there a person in this image?</p>
                    </div>
                </div>","1","main_experiment_trial","2","restaurant_scheme","schematic_sequence","","","","","","","","",""
"","","","","","html-keyboard-response","84","743289","0.0-84.0","B86C296EC8EE4E2E9D9FA13F7F937AC9","019cf009-f872-754f-bb48-b9386ebe3b76","019ceff9-9f67-7034-9722-02cda2445e09","","null","
                <div class=""stimulus-container"">
                    <img src=""images/schematic_sequence/restaurant_scheme/restaurant_scheme_3.png"" class=""exp-image"">
                    <div class=""question-area""></div> 
                </div>","null","","","","","","","","","","","","",""
"","","","","","html-button-response","85","744696","0.0-85.0","B86C296EC8EE4E2E9D9FA13F7F937AC9","019cf009-f872-754f-bb48-b9386ebe3b76","019ceff9-9f67-7034-9722-02cda2445e09","","1405","
                <div class=""stimulus-container"">
                    <img src=""images/schematic_sequence/restaurant_scheme/restaurant_scheme_3.png"" class=""exp-image"">
                    <div class=""question-area"">
                        <p style=""font-size: 20px; font-weight: bold; margin: 0;"">Is there a person in this image?</p>
                    </div>
                </div>","1","main_experiment_trial","3","restaurant_scheme","schematic_sequence","","","","","","","","",""
"","","","","","html-keyboard-response","86","749714","0.0-86.0","B86C296EC8EE4E2E9D9FA13F7F937AC9","019cf009-f872-754f-bb48-b9386ebe3b76","019ceff9-9f67-7034-9722-02cda2445e09","","null","
                <div class=""stimulus-container"">
                    <img src=""images/schematic_sequence/restaurant_scheme/restaurant_scheme_4.png"" class=""exp-image"">
                    <div class=""question-area""></div> 
                </div>","null","","","","","","","","","","","","",""
"","","","","","html-button-response","87","751016","0.0-87.0","B86C296EC8EE4E2E9D9FA13F7F937AC9","019cf009-f872-754f-bb48-b9386ebe3b76","019ceff9-9f67-7034-9722-02cda2445e09","","1300","
                <div class=""stimulus-container"">
                    <img src=""images/schematic_sequence/restaurant_scheme/restaurant_scheme_4.png"" class=""exp-image"">
                    <div class=""question-area"">
                        <p style=""font-size: 20px; font-weight: bold; margin: 0;"">Is there a person in this image?</p>
                    </div>
                </div>","0","main_experiment_trial","4","restaurant_scheme","schematic_sequence","","","","","","","","",""
"","","","","","html-keyboard-response","88","756017","0.0-88.0","B86C296EC8EE4E2E9D9FA13F7F937AC9","019cf009-f872-754f-bb48-b9386ebe3b76","019ceff9-9f67-7034-9722-02cda2445e09","","null","
                <div class=""stimulus-container"">
                    <img src=""images/schematic_sequence/restaurant_scheme/restaurant_scheme_5.png"" class=""exp-image"">
                    <div class=""question-area""></div> 
                </div>","null","","","","","","","","","","","","",""
"","","","","","html-button-response","89","757664","0.0-89.0","B86C296EC8EE4E2E9D9FA13F7F937AC9","019cf009-f872-754f-bb48-b9386ebe3b76","019ceff9-9f67-7034-9722-02cda2445e09","","1645","
                <div class=""stimulus-container"">
                    <img src=""images/schematic_sequence/restaurant_scheme/restaurant_scheme_5.png"" class=""exp-image"">
                    <div class=""question-area"">
                        <p style=""font-size: 20px; font-weight: bold; margin: 0;"">Is there a person in this image?</p>
                    </div>
                </div>","0","main_experiment_trial","5","restaurant_scheme","schematic_sequence","","","","","","","","",""
"","","","","","html-keyboard-response","90","762667","0.0-90.0","B86C296EC8EE4E2E9D9FA13F7F937AC9","019cf009-f872-754f-bb48-b9386ebe3b76","019ceff9-9f67-7034-9722-02cda2445e09","","null","
                <div class=""stimulus-container"">
                    <img src=""images/schematic_sequence/restaurant_scheme/restaurant_scheme_6.png"" class=""exp-image"">
                    <div class=""question-area""></div> 
                </div>","null","","","","","","","","","","","","",""
"","","","","","html-button-response","91","765678","0.0-91.0","B86C296EC8EE4E2E9D9FA13F7F937AC9","019cf009-f872-754f-bb48-b9386ebe3b76","019ceff9-9f67-7034-9722-02cda2445e09","","null","
                <div class=""stimulus-container"">
                    <img src=""images/schematic_sequence/restaurant_scheme/restaurant_scheme_6.png"" class=""exp-image"">
                    <div class=""question-area"">
                        <p style=""font-size: 20px; font-weight: bold; margin: 0;"">Is there a person in this image?</p>
                    </div>
                </div>","null","main_experiment_trial","6","restaurant_scheme","schematic_sequence","","","","","","","","",""
"","","","","","html-keyboard-response","92","770680","0.0-92.0","B86C296EC8EE4E2E9D9FA13F7F937AC9","019cf009-f872-754f-bb48-b9386ebe3b76","019ceff9-9f67-7034-9722-02cda2445e09","","null","
                <div class=""stimulus-container"">
                    <img src=""images/schematic_sequence/restaurant_scheme/restaurant_scheme_7.png"" class=""exp-image"">
                    <div class=""question-area""></div> 
                </div>","null","","","","","","","","","","","","",""
"","","","","","html-button-response","93","771560","0.0-93.0","B86C296EC8EE4E2E9D9FA13F7F937AC9","019cf009-f872-754f-bb48-b9386ebe3b76","019ceff9-9f67-7034-9722-02cda2445e09","","878","
                <div class=""stimulus-container"">
                    <img src=""images/schematic_sequence/restaurant_scheme/restaurant_scheme_7.png"" class=""exp-image"">
                    <div class=""question-area"">
                        <p style=""font-size: 20px; font-weight: bold; margin: 0;"">Is there a person in this image?</p>
                    </div>
                </div>","1","main_experiment_trial","7","restaurant_scheme","schematic_sequence","","","","","","","","",""
"","","","","","html-keyboard-response","94","776570","0.0-94.0","B86C296EC8EE4E2E9D9FA13F7F937AC9","019cf009-f872-754f-bb48-b9386ebe3b76","019ceff9-9f67-7034-9722-02cda2445e09","","null","
                <div class=""stimulus-container"">
                    <img src=""images/schematic_sequence/restaurant_scheme/restaurant_scheme_8.png"" class=""exp-image"">
                    <div class=""question-area""></div> 
                </div>","null","","","","","","","","","","","","",""
"","","","","","html-button-response","95","778744","0.0-95.0","B86C296EC8EE4E2E9D9FA13F7F937AC9","019cf009-f872-754f-bb48-b9386ebe3b76","019ceff9-9f67-7034-9722-02cda2445e09","","2172","
                <div class=""stimulus-container"">
                    <img src=""images/schematic_sequence/restaurant_scheme/restaurant_scheme_8.png"" class=""exp-image"">
                    <div class=""question-area"">
                        <p style=""font-size: 20px; font-weight: bold; margin: 0;"">Is there a person in this image?</p>
                    </div>
                </div>","1","main_experiment_trial","8","restaurant_scheme","schematic_sequence","","","","","","","","",""
"","","","","","html-keyboard-response","96","783749","0.0-96.0","B86C296EC8EE4E2E9D9FA13F7F937AC9","019cf009-f872-754f-bb48-b9386ebe3b76","019ceff9-9f67-7034-9722-02cda2445e09","","null","
                <div class=""stimulus-container"">
                    <img src=""images/schematic_sequence/restaurant_scheme/restaurant_scheme_9.png"" class=""exp-image"">
                    <div class=""question-area""></div> 
                </div>","null","","","","","","","","","","","","",""
"","","","","","html-button-response","97","786488","0.0-97.0","B86C296EC8EE4E2E9D9FA13F7F937AC9","019cf009-f872-754f-bb48-b9386ebe3b76","019ceff9-9f67-7034-9722-02cda2445e09","","2737","
                <div class=""stimulus-container"">
                    <img src=""images/schematic_sequence/restaurant_scheme/restaurant_scheme_9.png"" class=""exp-image"">
                    <div class=""question-area"">
                        <p style=""font-size: 20px; font-weight: bold; margin: 0;"">Is there a person in this image?</p>
                    </div>
                </div>","0","main_experiment_trial","9","restaurant_scheme","schematic_sequence","","","","","","","","",""
"","","","","","html-keyboard-response","98","791489","0.0-98.0","B86C296EC8EE4E2E9D9FA13F7F937AC9","019cf009-f872-754f-bb48-b9386ebe3b76","019ceff9-9f67-7034-9722-02cda2445e09","","null","
                <div class=""stimulus-container"">
                    <img src=""images/schematic_sequence/restaurant_scheme/restaurant_scheme_ten.png"" class=""exp-image"">
                    <div class=""question-area""></div> 
                </div>","null","","","","","","","","","","","","",""
"","","","","","html-button-response","99","792600","0.0-99.0","B86C296EC8EE4E2E9D9FA13F7F937AC9","019cf009-f872-754f-bb48-b9386ebe3b76","019ceff9-9f67-7034-9722-02cda2445e09","","1109","
                <div class=""stimulus-container"">
                    <img src=""images/schematic_sequence/restaurant_scheme/restaurant_scheme_ten.png"" class=""exp-image"">
                    <div class=""question-area"">
                        <p style=""font-size: 20px; font-weight: bold; margin: 0;"">Is there a person in this image?</p>
                    </div>
                </div>","0","main_experiment_trial","ten","restaurant_scheme","schematic_sequence","","","","","","","","",""
"","","","","","html-keyboard-response","100","793612","0.0-100.0","B86C296EC8EE4E2E9D9FA13F7F937AC9","019cf009-f872-754f-bb48-b9386ebe3b76","019ceff9-9f67-7034-9722-02cda2445e09","","null","<div style=""background-color: white; width: 100vw; height: 100vh;""></div>","null","","","","","","","","","","","","",""
"","","","","","html-keyboard-response","101","798615","0.0-101.0","B86C296EC8EE4E2E9D9FA13F7F937AC9","019cf009-f872-754f-bb48-b9386ebe3b76","019ceff9-9f67-7034-9722-02cda2445e09","","null","
                <div class=""stimulus-container"">
                    <img src=""images/causal_sequence/saving_a_cat_causal/saving_a_cat_causal_1.png"" class=""exp-image"">
                    <div class=""question-area""></div> 
                </div>","null","","","","","","","","","","","","",""
"","","","","","html-button-response","102","799720","0.0-102.0","B86C296EC8EE4E2E9D9FA13F7F937AC9","019cf009-f872-754f-bb48-b9386ebe3b76","019ceff9-9f67-7034-9722-02cda2445e09","","1102","
                <div class=""stimulus-container"">
                    <img src=""images/causal_sequence/saving_a_cat_causal/saving_a_cat_causal_1.png"" class=""exp-image"">
                    <div class=""question-area"">
                        <p style=""font-size: 20px; font-weight: bold; margin: 0;"">Is there a person in this image?</p>
                    </div>
                </div>","0","main_experiment_trial","1","saving_a_cat_causal","causal_sequence","","","","","","","","",""
"","","","","","html-keyboard-response","103","804727","0.0-103.0","B86C296EC8EE4E2E9D9FA13F7F937AC9","019cf009-f872-754f-bb48-b9386ebe3b76","019ceff9-9f67-7034-9722-02cda2445e09","","null","
                <div class=""stimulus-container"">
                    <img src=""images/causal_sequence/saving_a_cat_causal/saving_a_cat_causal_2.png"" class=""exp-image"">
                    <div class=""question-area""></div> 
                </div>","null","","","","","","","","","","","","",""
"","","","","","html-button-response","104","805760","0.0-104.0","B86C296EC8EE4E2E9D9FA13F7F937AC9","019cf009-f872-754f-bb48-b9386ebe3b76","019ceff9-9f67-7034-9722-02cda2445e09","","1032","
                <div class=""stimulus-container"">
                    <img src=""images/causal_sequence/saving_a_cat_causal/saving_a_cat_causal_2.png"" class=""exp-image"">
                    <div class=""question-area"">
                        <p style=""font-size: 20px; font-weight: bold; margin: 0;"">Is there a person in this image?</p>
                    </div>
                </div>","1","main_experiment_trial","2","saving_a_cat_causal","causal_sequence","","","","","","","","",""
"","","","","","html-keyboard-response","105","810777","0.0-105.0","B86C296EC8EE4E2E9D9FA13F7F937AC9","019cf009-f872-754f-bb48-b9386ebe3b76","019ceff9-9f67-7034-9722-02cda2445e09","","null","
                <div class=""stimulus-container"">
                    <img src=""images/causal_sequence/saving_a_cat_causal/saving_a_cat_causal_3.png"" class=""exp-image"">
                    <div class=""question-area""></div> 
                </div>","null","","","","","","","","","","","","",""
"","","","","","html-button-response","106","812128","0.0-106.0","B86C296EC8EE4E2E9D9FA13F7F937AC9","019cf009-f872-754f-bb48-b9386ebe3b76","019ceff9-9f67-7034-9722-02cda2445e09","","1348","
                <div class=""stimulus-container"">
                    <img src=""images/causal_sequence/saving_a_cat_causal/saving_a_cat_causal_3.png"" class=""exp-image"">
                    <div class=""question-area"">
                        <p style=""font-size: 20px; font-weight: bold; margin: 0;"">Is there a person in this image?</p>
                    </div>
                </div>","1","main_experiment_trial","3","saving_a_cat_causal","causal_sequence","","","","","","","","",""
"","","","","","html-keyboard-response","107","817129","0.0-107.0","B86C296EC8EE4E2E9D9FA13F7F937AC9","019cf009-f872-754f-bb48-b9386ebe3b76","019ceff9-9f67-7034-9722-02cda2445e09","","null","
                <div class=""stimulus-container"">
                    <img src=""images/causal_sequence/saving_a_cat_causal/saving_a_cat_causal_4.png"" class=""exp-image"">
                    <div class=""question-area""></div> 
                </div>","null","","","","","","","","","","","","",""
"","","","","","html-button-response","108","818176","0.0-108.0","B86C296EC8EE4E2E9D9FA13F7F937AC9","019cf009-f872-754f-bb48-b9386ebe3b76","019ceff9-9f67-7034-9722-02cda2445e09","","1045","
                <div class=""stimulus-container"">
                    <img src=""images/causal_sequence/saving_a_cat_causal/saving_a_cat_causal_4.png"" class=""exp-image"">
                    <div class=""question-area"">
                        <p style=""font-size: 20px; font-weight: bold; margin: 0;"">Is there a person in this image?</p>
                    </div>
                </div>","0","main_experiment_trial","4","saving_a_cat_causal","causal_sequence","","","","","","","","",""
"","","","","","html-keyboard-response","109","823178","0.0-109.0","B86C296EC8EE4E2E9D9FA13F7F937AC9","019cf009-f872-754f-bb48-b9386ebe3b76","019ceff9-9f67-7034-9722-02cda2445e09","","null","
                <div class=""stimulus-container"">
                    <img src=""images/causal_sequence/saving_a_cat_causal/saving_a_cat_causal_5.png"" class=""exp-image"">
                    <div class=""question-area""></div> 
                </div>","null","","","","","","","","","","","","",""
"","","","","","html-button-response","110","826194","0.0-110.0","B86C296EC8EE4E2E9D9FA13F7F937AC9","019cf009-f872-754f-bb48-b9386ebe3b76","019ceff9-9f67-7034-9722-02cda2445e09","","null","
                <div class=""stimulus-container"">
                    <img src=""images/causal_sequence/saving_a_cat_causal/saving_a_cat_causal_5.png"" class=""exp-image"">
                    <div class=""question-area"">
                        <p style=""font-size: 20px; font-weight: bold; margin: 0;"">Is there a person in this image?</p>
                    </div>
                </div>","null","main_experiment_trial","5","saving_a_cat_causal","causal_sequence","","","","","","","","",""
"","","","","","html-keyboard-response","111","831210","0.0-111.0","B86C296EC8EE4E2E9D9FA13F7F937AC9","019cf009-f872-754f-bb48-b9386ebe3b76","019ceff9-9f67-7034-9722-02cda2445e09","","null","
                <div class=""stimulus-container"">
                    <img src=""images/causal_sequence/saving_a_cat_causal/saving_a_cat_causal_6.png"" class=""exp-image"">
                    <div class=""question-area""></div> 
                </div>","null","","","","","","","","","","","","",""
"","","","","","html-button-response","112","833352","0.0-112.0","B86C296EC8EE4E2E9D9FA13F7F937AC9","019cf009-f872-754f-bb48-b9386ebe3b76","019ceff9-9f67-7034-9722-02cda2445e09","","2139","
                <div class=""stimulus-container"">
                    <img src=""images/causal_sequence/saving_a_cat_causal/saving_a_cat_causal_6.png"" class=""exp-image"">
                    <div class=""question-area"">
                        <p style=""font-size: 20px; font-weight: bold; margin: 0;"">Is there a person in this image?</p>
                    </div>
                </div>","0","main_experiment_trial","6","saving_a_cat_causal","causal_sequence","","","","","","","","",""
"","","","","","html-keyboard-response","113","838366","0.0-113.0","B86C296EC8EE4E2E9D9FA13F7F937AC9","019cf009-f872-754f-bb48-b9386ebe3b76","019ceff9-9f67-7034-9722-02cda2445e09","","null","
                <div class=""stimulus-container"">
                    <img src=""images/causal_sequence/saving_a_cat_causal/saving_a_cat_causal_7.png"" class=""exp-image"">
                    <div class=""question-area""></div> 
                </div>","null","","","","","","","","","","","","",""
"","","","","","html-button-response","114","839928","0.0-114.0","B86C296EC8EE4E2E9D9FA13F7F937AC9","019cf009-f872-754f-bb48-b9386ebe3b76","019ceff9-9f67-7034-9722-02cda2445e09","","1559","
                <div class=""stimulus-container"">
                    <img src=""images/causal_sequence/saving_a_cat_causal/saving_a_cat_causal_7.png"" class=""exp-image"">
                    <div class=""question-area"">
                        <p style=""font-size: 20px; font-weight: bold; margin: 0;"">Is there a person in this image?</p>
                    </div>
                </div>","0","main_experiment_trial","7","saving_a_cat_causal","causal_sequence","","","","","","","","",""
"","","","","","html-keyboard-response","115","844944","0.0-115.0","B86C296EC8EE4E2E9D9FA13F7F937AC9","019cf009-f872-754f-bb48-b9386ebe3b76","019ceff9-9f67-7034-9722-02cda2445e09","","null","
                <div class=""stimulus-container"">
                    <img src=""images/causal_sequence/saving_a_cat_causal/saving_a_cat_causal_8.png"" class=""exp-image"">
                    <div class=""question-area""></div> 
                </div>","null","","","","","","","","","","","","",""
"","","","","","html-button-response","116","847280","0.0-116.0","B86C296EC8EE4E2E9D9FA13F7F937AC9","019cf009-f872-754f-bb48-b9386ebe3b76","019ceff9-9f67-7034-9722-02cda2445e09","","2333","
                <div class=""stimulus-container"">
                    <img src=""images/causal_sequence/saving_a_cat_causal/saving_a_cat_causal_8.png"" class=""exp-image"">
                    <div class=""question-area"">
                        <p style=""font-size: 20px; font-weight: bold; margin: 0;"">Is there a person in this image?</p>
                    </div>
                </div>","0","main_experiment_trial","8","saving_a_cat_causal","causal_sequence","","","","","","","","",""
"","","","","","html-keyboard-response","117","852288","0.0-117.0","B86C296EC8EE4E2E9D9FA13F7F937AC9","019cf009-f872-754f-bb48-b9386ebe3b76","019ceff9-9f67-7034-9722-02cda2445e09","","null","
                <div class=""stimulus-container"">
                    <img src=""images/causal_sequence/saving_a_cat_causal/saving_a_cat_causal_9.png"" class=""exp-image"">
                    <div class=""question-area""></div> 
                </div>","null","","","","","","","","","","","","",""
"","","","","","html-button-response","118","854040","0.0-118.0","B86C296EC8EE4E2E9D9FA13F7F937AC9","019cf009-f872-754f-bb48-b9386ebe3b76","019ceff9-9f67-7034-9722-02cda2445e09","","1749","
                <div class=""stimulus-container"">
                    <img src=""images/causal_sequence/saving_a_cat_causal/saving_a_cat_causal_9.png"" class=""exp-image"">
                    <div class=""question-area"">
                        <p style=""font-size: 20px; font-weight: bold; margin: 0;"">Is there a person in this image?</p>
                    </div>
                </div>","0","main_experiment_trial","9","saving_a_cat_causal","causal_sequence","","","","","","","","",""
"","","","","","html-keyboard-response","119","859042","0.0-119.0","B86C296EC8EE4E2E9D9FA13F7F937AC9","019cf009-f872-754f-bb48-b9386ebe3b76","019ceff9-9f67-7034-9722-02cda2445e09","","null","
                <div class=""stimulus-container"">
                    <img src=""images/causal_sequence/saving_a_cat_causal/saving_a_cat_causal_ten.png"" class=""exp-image"">
                    <div class=""question-area""></div> 
                </div>","null","","","","","","","","","","","","",""
"","","","","","html-button-response","120","860416","0.0-120.0","B86C296EC8EE4E2E9D9FA13F7F937AC9","019cf009-f872-754f-bb48-b9386ebe3b76","019ceff9-9f67-7034-9722-02cda2445e09","","1372","
                <div class=""stimulus-container"">
                    <img src=""images/causal_sequence/saving_a_cat_causal/saving_a_cat_causal_ten.png"" class=""exp-image"">
                    <div class=""question-area"">
                        <p style=""font-size: 20px; font-weight: bold; margin: 0;"">Is there a person in this image?</p>
                    </div>
                </div>","0","main_experiment_trial","ten","saving_a_cat_causal","causal_sequence","","","","","","","","",""
"","","","","","html-keyboard-response","121","861429","0.0-121.0","B86C296EC8EE4E2E9D9FA13F7F937AC9","019cf009-f872-754f-bb48-b9386ebe3b76","019ceff9-9f67-7034-9722-02cda2445e09","","null","<div style=""background-color: white; width: 100vw; height: 100vh;""></div>","null","","","","","","","","","","","","",""
"","","","","","html-keyboard-response","122","866445","0.0-122.0","B86C296EC8EE4E2E9D9FA13F7F937AC9","019cf009-f872-754f-bb48-b9386ebe3b76","019ceff9-9f67-7034-9722-02cda2445e09","","null","
                <div class=""stimulus-container"">
                    <img src=""images/causal_sequence/museum_causal/museum_causal_1.png"" class=""exp-image"">
                    <div class=""question-area""></div> 
                </div>","null","","","","","","","","","","","","",""
"","","","","","html-button-response","123","868304","0.0-123.0","B86C296EC8EE4E2E9D9FA13F7F937AC9","019cf009-f872-754f-bb48-b9386ebe3b76","019ceff9-9f67-7034-9722-02cda2445e09","","1857","
                <div class=""stimulus-container"">
                    <img src=""images/causal_sequence/museum_causal/museum_causal_1.png"" class=""exp-image"">
                    <div class=""question-area"">
                        <p style=""font-size: 20px; font-weight: bold; margin: 0;"">Is there a person in this image?</p>
                    </div>
                </div>","0","main_experiment_trial","1","museum_causal","causal_sequence","","","","","","","","",""
"","","","","","html-keyboard-response","124","873306","0.0-124.0","B86C296EC8EE4E2E9D9FA13F7F937AC9","019cf009-f872-754f-bb48-b9386ebe3b76","019ceff9-9f67-7034-9722-02cda2445e09","","null","
                <div class=""stimulus-container"">
                    <img src=""images/causal_sequence/museum_causal/museum_causal_2.png"" class=""exp-image"">
                    <div class=""question-area""></div> 
                </div>","null","","","","","","","","","","","","",""
"","","","","","html-button-response","125","874168","0.0-125.0","B86C296EC8EE4E2E9D9FA13F7F937AC9","019cf009-f872-754f-bb48-b9386ebe3b76","019ceff9-9f67-7034-9722-02cda2445e09","","859","
                <div class=""stimulus-container"">
                    <img src=""images/causal_sequence/museum_causal/museum_causal_2.png"" class=""exp-image"">
                    <div class=""question-area"">
                        <p style=""font-size: 20px; font-weight: bold; margin: 0;"">Is there a person in this image?</p>
                    </div>
                </div>","1","main_experiment_trial","2","museum_causal","causal_sequence","","","","","","","","",""
"","","","","","html-keyboard-response","126","879181","0.0-126.0","B86C296EC8EE4E2E9D9FA13F7F937AC9","019cf009-f872-754f-bb48-b9386ebe3b76","019ceff9-9f67-7034-9722-02cda2445e09","","null","
                <div class=""stimulus-container"">
                    <img src=""images/causal_sequence/museum_causal/museum_causal_3.png"" class=""exp-image"">
                    <div class=""question-area""></div> 
                </div>","null","","","","","","","","","","","","",""
"","","","","","html-button-response","127","880200","0.0-127.0","B86C296EC8EE4E2E9D9FA13F7F937AC9","019cf009-f872-754f-bb48-b9386ebe3b76","019ceff9-9f67-7034-9722-02cda2445e09","","1017","
                <div class=""stimulus-container"">
                    <img src=""images/causal_sequence/museum_causal/museum_causal_3.png"" class=""exp-image"">
                    <div class=""question-area"">
                        <p style=""font-size: 20px; font-weight: bold; margin: 0;"">Is there a person in this image?</p>
                    </div>
                </div>","0","main_experiment_trial","3","museum_causal","causal_sequence","","","","","","","","",""
"","","","","","html-keyboard-response","128","885210","0.0-128.0","B86C296EC8EE4E2E9D9FA13F7F937AC9","019cf009-f872-754f-bb48-b9386ebe3b76","019ceff9-9f67-7034-9722-02cda2445e09","","null","
                <div class=""stimulus-container"">
                    <img src=""images/causal_sequence/museum_causal/museum_causal_4.png"" class=""exp-image"">
                    <div class=""question-area""></div> 
                </div>","null","","","","","","","","","","","","",""
"","","","","","html-button-response","129","886128","0.0-129.0","B86C296EC8EE4E2E9D9FA13F7F937AC9","019cf009-f872-754f-bb48-b9386ebe3b76","019ceff9-9f67-7034-9722-02cda2445e09","","916","
                <div class=""stimulus-container"">
                    <img src=""images/causal_sequence/museum_causal/museum_causal_4.png"" class=""exp-image"">
                    <div class=""question-area"">
                        <p style=""font-size: 20px; font-weight: bold; margin: 0;"">Is there a person in this image?</p>
                    </div>
                </div>","1","main_experiment_trial","4","museum_causal","causal_sequence","","","","","","","","",""
"","","","","","html-keyboard-response","130","891132","0.0-130.0","B86C296EC8EE4E2E9D9FA13F7F937AC9","019cf009-f872-754f-bb48-b9386ebe3b76","019ceff9-9f67-7034-9722-02cda2445e09","","null","
                <div class=""stimulus-container"">
                    <img src=""images/causal_sequence/museum_causal/museum_causal_5.png"" class=""exp-image"">
                    <div class=""question-area""></div> 
                </div>","null","","","","","","","","","","","","",""
"","","","","","html-button-response","131","893624","0.0-131.0","B86C296EC8EE4E2E9D9FA13F7F937AC9","019cf009-f872-754f-bb48-b9386ebe3b76","019ceff9-9f67-7034-9722-02cda2445e09","","2489","
                <div class=""stimulus-container"">
                    <img src=""images/causal_sequence/museum_causal/museum_causal_5.png"" class=""exp-image"">
                    <div class=""question-area"">
                        <p style=""font-size: 20px; font-weight: bold; margin: 0;"">Is there a person in this image?</p>
                    </div>
                </div>","0","main_experiment_trial","5","museum_causal","causal_sequence","","","","","","","","",""
"","","","","","html-keyboard-response","132","898635","0.0-132.0","B86C296EC8EE4E2E9D9FA13F7F937AC9","019cf009-f872-754f-bb48-b9386ebe3b76","019ceff9-9f67-7034-9722-02cda2445e09","","null","
                <div class=""stimulus-container"">
                    <img src=""images/causal_sequence/museum_causal/museum_causal_6.png"" class=""exp-image"">
                    <div class=""question-area""></div> 
                </div>","null","","","","","","","","","","","","",""
"","","","","","html-button-response","133","900736","0.0-133.0","B86C296EC8EE4E2E9D9FA13F7F937AC9","019cf009-f872-754f-bb48-b9386ebe3b76","019ceff9-9f67-7034-9722-02cda2445e09","","2099","
                <div class=""stimulus-container"">
                    <img src=""images/causal_sequence/museum_causal/museum_causal_6.png"" class=""exp-image"">
                    <div class=""question-area"">
                        <p style=""font-size: 20px; font-weight: bold; margin: 0;"">Is there a person in this image?</p>
                    </div>
                </div>","0","main_experiment_trial","6","museum_causal","causal_sequence","","","","","","","","",""
"","","","","","html-keyboard-response","134","905739","0.0-134.0","B86C296EC8EE4E2E9D9FA13F7F937AC9","019cf009-f872-754f-bb48-b9386ebe3b76","019ceff9-9f67-7034-9722-02cda2445e09","","null","
                <div class=""stimulus-container"">
                    <img src=""images/causal_sequence/museum_causal/museum_causal_7.png"" class=""exp-image"">
                    <div class=""question-area""></div> 
                </div>","null","","","","","","","","","","","","",""
"","","","","","html-button-response","135","907632","0.0-135.0","B86C296EC8EE4E2E9D9FA13F7F937AC9","019cf009-f872-754f-bb48-b9386ebe3b76","019ceff9-9f67-7034-9722-02cda2445e09","","1891","
                <div class=""stimulus-container"">
                    <img src=""images/causal_sequence/museum_causal/museum_causal_7.png"" class=""exp-image"">
                    <div class=""question-area"">
                        <p style=""font-size: 20px; font-weight: bold; margin: 0;"">Is there a person in this image?</p>
                    </div>
                </div>","1","main_experiment_trial","7","museum_causal","causal_sequence","","","","","","","","",""
"","","","","","html-keyboard-response","136","912641","0.0-136.0","B86C296EC8EE4E2E9D9FA13F7F937AC9","019cf009-f872-754f-bb48-b9386ebe3b76","019ceff9-9f67-7034-9722-02cda2445e09","","null","
                <div class=""stimulus-container"">
                    <img src=""images/causal_sequence/museum_causal/museum_causal_8.png"" class=""exp-image"">
                    <div class=""question-area""></div> 
                </div>","null","","","","","","","","","","","","",""
"","","","","","html-button-response","137","914392","0.0-137.0","B86C296EC8EE4E2E9D9FA13F7F937AC9","019cf009-f872-754f-bb48-b9386ebe3b76","019ceff9-9f67-7034-9722-02cda2445e09","","1749","
                <div class=""stimulus-container"">
                    <img src=""images/causal_sequence/museum_causal/museum_causal_8.png"" class=""exp-image"">
                    <div class=""question-area"">
                        <p style=""font-size: 20px; font-weight: bold; margin: 0;"">Is there a person in this image?</p>
                    </div>
                </div>","0","main_experiment_trial","8","museum_causal","causal_sequence","","","","","","","","",""
"","","","","","html-keyboard-response","138","919403","0.0-138.0","B86C296EC8EE4E2E9D9FA13F7F937AC9","019cf009-f872-754f-bb48-b9386ebe3b76","019ceff9-9f67-7034-9722-02cda2445e09","","null","
                <div class=""stimulus-container"">
                    <img src=""images/causal_sequence/museum_causal/museum_causal_9.png"" class=""exp-image"">
                    <div class=""question-area""></div> 
                </div>","null","","","","","","","","","","","","",""
"","","","","","html-button-response","139","920472","0.0-139.0","B86C296EC8EE4E2E9D9FA13F7F937AC9","019cf009-f872-754f-bb48-b9386ebe3b76","019ceff9-9f67-7034-9722-02cda2445e09","","1067","
                <div class=""stimulus-container"">
                    <img src=""images/causal_sequence/museum_causal/museum_causal_9.png"" class=""exp-image"">
                    <div class=""question-area"">
                        <p style=""font-size: 20px; font-weight: bold; margin: 0;"">Is there a person in this image?</p>
                    </div>
                </div>","1","main_experiment_trial","9","museum_causal","causal_sequence","","","","","","","","",""
"","","","","","html-keyboard-response","140","925480","0.0-140.0","B86C296EC8EE4E2E9D9FA13F7F937AC9","019cf009-f872-754f-bb48-b9386ebe3b76","019ceff9-9f67-7034-9722-02cda2445e09","","null","
                <div class=""stimulus-container"">
                    <img src=""images/causal_sequence/museum_causal/museum_causal_ten.png"" class=""exp-image"">
                    <div class=""question-area""></div> 
                </div>","null","","","","","","","","","","","","",""
"","","","","","html-button-response","141","926391","0.0-141.0","B86C296EC8EE4E2E9D9FA13F7F937AC9","019cf009-f872-754f-bb48-b9386ebe3b76","019ceff9-9f67-7034-9722-02cda2445e09","","910","
                <div class=""stimulus-container"">
                    <img src=""images/causal_sequence/museum_causal/museum_causal_ten.png"" class=""exp-image"">
                    <div class=""question-area"">
                        <p style=""font-size: 20px; font-weight: bold; margin: 0;"">Is there a person in this image?</p>
                    </div>
                </div>","0","main_experiment_trial","ten","museum_causal","causal_sequence","","","","","","","","",""
"","","","","","html-keyboard-response","142","927397","0.0-142.0","B86C296EC8EE4E2E9D9FA13F7F937AC9","019cf009-f872-754f-bb48-b9386ebe3b76","019ceff9-9f67-7034-9722-02cda2445e09","","null","<div style=""background-color: white; width: 100vw; height: 100vh;""></div>","null","","","","","","","","","","","","",""
"","","","","","html-keyboard-response","143","932399","0.0-143.0","B86C296EC8EE4E2E9D9FA13F7F937AC9","019cf009-f872-754f-bb48-b9386ebe3b76","019ceff9-9f67-7034-9722-02cda2445e09","","null","
                <div class=""stimulus-container"">
                    <img src=""images/schematic_sequence/supermarket_scheme/supermarket_scheme_1.png"" class=""exp-image"">
                    <div class=""question-area""></div> 
                </div>","null","","","","","","","","","","","","",""
"","","","","","html-button-response","144","933960","0.0-144.0","B86C296EC8EE4E2E9D9FA13F7F937AC9","019cf009-f872-754f-bb48-b9386ebe3b76","019ceff9-9f67-7034-9722-02cda2445e09","","1558","
                <div class=""stimulus-container"">
                    <img src=""images/schematic_sequence/supermarket_scheme/supermarket_scheme_1.png"" class=""exp-image"">
                    <div class=""question-area"">
                        <p style=""font-size: 20px; font-weight: bold; margin: 0;"">Is there a person in this image?</p>
                    </div>
                </div>","1","main_experiment_trial","1","supermarket_scheme","schematic_sequence","","","","","","","","",""
"","","","","","html-keyboard-response","145","938976","0.0-145.0","B86C296EC8EE4E2E9D9FA13F7F937AC9","019cf009-f872-754f-bb48-b9386ebe3b76","019ceff9-9f67-7034-9722-02cda2445e09","","null","
                <div class=""stimulus-container"">
                    <img src=""images/schematic_sequence/supermarket_scheme/supermarket_scheme_2.png"" class=""exp-image"">
                    <div class=""question-area""></div> 
                </div>","null","","","","","","","","","","","","",""
"","","","","","html-button-response","146","941327","0.0-146.0","B86C296EC8EE4E2E9D9FA13F7F937AC9","019cf009-f872-754f-bb48-b9386ebe3b76","019ceff9-9f67-7034-9722-02cda2445e09","","2350","
                <div class=""stimulus-container"">
                    <img src=""images/schematic_sequence/supermarket_scheme/supermarket_scheme_2.png"" class=""exp-image"">
                    <div class=""question-area"">
                        <p style=""font-size: 20px; font-weight: bold; margin: 0;"">Is there a person in this image?</p>
                    </div>
                </div>","0","main_experiment_trial","2","supermarket_scheme","schematic_sequence","","","","","","","","",""
"","","","","","html-keyboard-response","147","946341","0.0-147.0","B86C296EC8EE4E2E9D9FA13F7F937AC9","019cf009-f872-754f-bb48-b9386ebe3b76","019ceff9-9f67-7034-9722-02cda2445e09","","null","
                <div class=""stimulus-container"">
                    <img src=""images/schematic_sequence/supermarket_scheme/supermarket_scheme_3.png"" class=""exp-image"">
                    <div class=""question-area""></div> 
                </div>","null","","","","","","","","","","","","",""
"","","","","","html-button-response","148","947463","0.0-148.0","B86C296EC8EE4E2E9D9FA13F7F937AC9","019cf009-f872-754f-bb48-b9386ebe3b76","019ceff9-9f67-7034-9722-02cda2445e09","","1121","
                <div class=""stimulus-container"">
                    <img src=""images/schematic_sequence/supermarket_scheme/supermarket_scheme_3.png"" class=""exp-image"">
                    <div class=""question-area"">
                        <p style=""font-size: 20px; font-weight: bold; margin: 0;"">Is there a person in this image?</p>
                    </div>
                </div>","1","main_experiment_trial","3","supermarket_scheme","schematic_sequence","","","","","","","","",""
"","","","","","html-keyboard-response","149","952479","0.0-149.0","B86C296EC8EE4E2E9D9FA13F7F937AC9","019cf009-f872-754f-bb48-b9386ebe3b76","019ceff9-9f67-7034-9722-02cda2445e09","","null","
                <div class=""stimulus-container"">
                    <img src=""images/schematic_sequence/supermarket_scheme/supermarket_scheme_4.png"" class=""exp-image"">
                    <div class=""question-area""></div> 
                </div>","null","","","","","","","","","","","","",""
"","","","","","html-button-response","150","953639","0.0-150.0","B86C296EC8EE4E2E9D9FA13F7F937AC9","019cf009-f872-754f-bb48-b9386ebe3b76","019ceff9-9f67-7034-9722-02cda2445e09","","1159","
                <div class=""stimulus-container"">
                    <img src=""images/schematic_sequence/supermarket_scheme/supermarket_scheme_4.png"" class=""exp-image"">
                    <div class=""question-area"">
                        <p style=""font-size: 20px; font-weight: bold; margin: 0;"">Is there a person in this image?</p>
                    </div>
                </div>","0","main_experiment_trial","4","supermarket_scheme","schematic_sequence","","","","","","","","",""
"","","","","","html-keyboard-response","151","958647","0.0-151.0","B86C296EC8EE4E2E9D9FA13F7F937AC9","019cf009-f872-754f-bb48-b9386ebe3b76","019ceff9-9f67-7034-9722-02cda2445e09","","null","
                <div class=""stimulus-container"">
                    <img src=""images/schematic_sequence/supermarket_scheme/supermarket_scheme_5.png"" class=""exp-image"">
                    <div class=""question-area""></div> 
                </div>","null","","","","","","","","","","","","",""
"","","","","","html-button-response","152","961655","0.0-152.0","B86C296EC8EE4E2E9D9FA13F7F937AC9","019cf009-f872-754f-bb48-b9386ebe3b76","019ceff9-9f67-7034-9722-02cda2445e09","","null","
                <div class=""stimulus-container"">
                    <img src=""images/schematic_sequence/supermarket_scheme/supermarket_scheme_5.png"" class=""exp-image"">
                    <div class=""question-area"">
                        <p style=""font-size: 20px; font-weight: bold; margin: 0;"">Is there a person in this image?</p>
                    </div>
                </div>","null","main_experiment_trial","5","supermarket_scheme","schematic_sequence","","","","","","","","",""
"","","","","","html-keyboard-response","153","966656","0.0-153.0","B86C296EC8EE4E2E9D9FA13F7F937AC9","019cf009-f872-754f-bb48-b9386ebe3b76","019ceff9-9f67-7034-9722-02cda2445e09","","null","
                <div class=""stimulus-container"">
                    <img src=""images/schematic_sequence/supermarket_scheme/supermarket_scheme_6.png"" class=""exp-image"">
                    <div class=""question-area""></div> 
                </div>","null","","","","","","","","","","","","",""
"","","","","","html-button-response","154","967495","0.0-154.0","B86C296EC8EE4E2E9D9FA13F7F937AC9","019cf009-f872-754f-bb48-b9386ebe3b76","019ceff9-9f67-7034-9722-02cda2445e09","","837","
                <div class=""stimulus-container"">
                    <img src=""images/schematic_sequence/supermarket_scheme/supermarket_scheme_6.png"" class=""exp-image"">
                    <div class=""question-area"">
                        <p style=""font-size: 20px; font-weight: bold; margin: 0;"">Is there a person in this image?</p>
                    </div>
                </div>","0","main_experiment_trial","6","supermarket_scheme","schematic_sequence","","","","","","","","",""
"","","","","","html-keyboard-response","155","972508","0.0-155.0","B86C296EC8EE4E2E9D9FA13F7F937AC9","019cf009-f872-754f-bb48-b9386ebe3b76","019ceff9-9f67-7034-9722-02cda2445e09","","null","
                <div class=""stimulus-container"">
                    <img src=""images/schematic_sequence/supermarket_scheme/supermarket_scheme_7.png"" class=""exp-image"">
                    <div class=""question-area""></div> 
                </div>","null","","","","","","","","","","","","",""
"","","","","","html-button-response","156","974383","0.0-156.0","B86C296EC8EE4E2E9D9FA13F7F937AC9","019cf009-f872-754f-bb48-b9386ebe3b76","019ceff9-9f67-7034-9722-02cda2445e09","","1873","
                <div class=""stimulus-container"">
                    <img src=""images/schematic_sequence/supermarket_scheme/supermarket_scheme_7.png"" class=""exp-image"">
                    <div class=""question-area"">
                        <p style=""font-size: 20px; font-weight: bold; margin: 0;"">Is there a person in this image?</p>
                    </div>
                </div>","0","main_experiment_trial","7","supermarket_scheme","schematic_sequence","","","","","","","","",""
"","","","","","html-keyboard-response","157","979384","0.0-157.0","B86C296EC8EE4E2E9D9FA13F7F937AC9","019cf009-f872-754f-bb48-b9386ebe3b76","019ceff9-9f67-7034-9722-02cda2445e09","","null","
                <div class=""stimulus-container"">
                    <img src=""images/schematic_sequence/supermarket_scheme/supermarket_scheme_8.png"" class=""exp-image"">
                    <div class=""question-area""></div> 
                </div>","null","","","","","","","","","","","","",""
"","","","","","html-button-response","158","982393","0.0-158.0","B86C296EC8EE4E2E9D9FA13F7F937AC9","019cf009-f872-754f-bb48-b9386ebe3b76","019ceff9-9f67-7034-9722-02cda2445e09","","null","
                <div class=""stimulus-container"">
                    <img src=""images/schematic_sequence/supermarket_scheme/supermarket_scheme_8.png"" class=""exp-image"">
                    <div class=""question-area"">
                        <p style=""font-size: 20px; font-weight: bold; margin: 0;"">Is there a person in this image?</p>
                    </div>
                </div>","null","main_experiment_trial","8","supermarket_scheme","schematic_sequence","","","","","","","","",""
"","","","","","html-keyboard-response","159","987404","0.0-159.0","B86C296EC8EE4E2E9D9FA13F7F937AC9","019cf009-f872-754f-bb48-b9386ebe3b76","019ceff9-9f67-7034-9722-02cda2445e09","","null","
                <div class=""stimulus-container"">
                    <img src=""images/schematic_sequence/supermarket_scheme/supermarket_scheme_9.png"" class=""exp-image"">
                    <div class=""question-area""></div> 
                </div>","null","","","","","","","","","","","","",""
"","","","","","html-button-response","160","988703","0.0-160.0","B86C296EC8EE4E2E9D9FA13F7F937AC9","019cf009-f872-754f-bb48-b9386ebe3b76","019ceff9-9f67-7034-9722-02cda2445e09","","1297","
                <div class=""stimulus-container"">
                    <img src=""images/schematic_sequence/supermarket_scheme/supermarket_scheme_9.png"" class=""exp-image"">
                    <div class=""question-area"">
                        <p style=""font-size: 20px; font-weight: bold; margin: 0;"">Is there a person in this image?</p>
                    </div>
                </div>","0","main_experiment_trial","9","supermarket_scheme","schematic_sequence","","","","","","","","",""
"","","","","","html-keyboard-response","161","993705","0.0-161.0","B86C296EC8EE4E2E9D9FA13F7F937AC9","019cf009-f872-754f-bb48-b9386ebe3b76","019ceff9-9f67-7034-9722-02cda2445e09","","null","
                <div class=""stimulus-container"">
                    <img src=""images/schematic_sequence/supermarket_scheme/supermarket_scheme_ten.png"" class=""exp-image"">
                    <div class=""question-area""></div> 
                </div>","null","","","","","","","","","","","","",""
"","","","","","html-button-response","162","995031","0.0-162.0","B86C296EC8EE4E2E9D9FA13F7F937AC9","019cf009-f872-754f-bb48-b9386ebe3b76","019ceff9-9f67-7034-9722-02cda2445e09","","1325","
                <div class=""stimulus-container"">
                    <img src=""images/schematic_sequence/supermarket_scheme/supermarket_scheme_ten.png"" class=""exp-image"">
                    <div class=""question-area"">
                        <p style=""font-size: 20px; font-weight: bold; margin: 0;"">Is there a person in this image?</p>
                    </div>
                </div>","1","main_experiment_trial","ten","supermarket_scheme","schematic_sequence","","","","","","","","",""
"","","","","","html-keyboard-response","163","996038","0.0-163.0","B86C296EC8EE4E2E9D9FA13F7F937AC9","019cf009-f872-754f-bb48-b9386ebe3b76","019ceff9-9f67-7034-9722-02cda2445e09","","null","<div style=""background-color: white; width: 100vw; height: 100vh;""></div>","null","","","","","","","","","","","","",""
"","","","","","html-keyboard-response","164","1001054","0.0-164.0","B86C296EC8EE4E2E9D9FA13F7F937AC9","019cf009-f872-754f-bb48-b9386ebe3b76","019ceff9-9f67-7034-9722-02cda2445e09","","null","
                <div class=""stimulus-container"">
                    <img src=""images/causal_sequence/the_performance_causal/the_performance_causal_1.png"" class=""exp-image"">
                    <div class=""question-area""></div> 
                </div>","null","","","","","","","","","","","","",""
"","","","","","html-button-response","165","1002399","0.0-165.0","B86C296EC8EE4E2E9D9FA13F7F937AC9","019cf009-f872-754f-bb48-b9386ebe3b76","019ceff9-9f67-7034-9722-02cda2445e09","","1343","
                <div class=""stimulus-container"">
                    <img src=""images/causal_sequence/the_performance_causal/the_performance_causal_1.png"" class=""exp-image"">
                    <div class=""question-area"">
                        <p style=""font-size: 20px; font-weight: bold; margin: 0;"">Is there a person in this image?</p>
                    </div>
                </div>","0","main_experiment_trial","1","the_performance_causal","causal_sequence","","","","","","","","",""
"","","","","","html-keyboard-response","166","1007401","0.0-166.0","B86C296EC8EE4E2E9D9FA13F7F937AC9","019cf009-f872-754f-bb48-b9386ebe3b76","019ceff9-9f67-7034-9722-02cda2445e09","","null","
                <div class=""stimulus-container"">
                    <img src=""images/causal_sequence/the_performance_causal/the_performance_causal_2.png"" class=""exp-image"">
                    <div class=""question-area""></div> 
                </div>","null","","","","","","","","","","","","",""
"","","","","","html-button-response","167","1008399","0.0-167.0","B86C296EC8EE4E2E9D9FA13F7F937AC9","019cf009-f872-754f-bb48-b9386ebe3b76","019ceff9-9f67-7034-9722-02cda2445e09","","997","
                <div class=""stimulus-container"">
                    <img src=""images/causal_sequence/the_performance_causal/the_performance_causal_2.png"" class=""exp-image"">
                    <div class=""question-area"">
                        <p style=""font-size: 20px; font-weight: bold; margin: 0;"">Is there a person in this image?</p>
                    </div>
                </div>","0","main_experiment_trial","2","the_performance_causal","causal_sequence","","","","","","","","",""
"","","","","","html-keyboard-response","168","1013413","0.0-168.0","B86C296EC8EE4E2E9D9FA13F7F937AC9","019cf009-f872-754f-bb48-b9386ebe3b76","019ceff9-9f67-7034-9722-02cda2445e09","","null","
                <div class=""stimulus-container"">
                    <img src=""images/causal_sequence/the_performance_causal/the_performance_causal_3.png"" class=""exp-image"">
                    <div class=""question-area""></div> 
                </div>","null","","","","","","","","","","","","",""
"","","","","","html-button-response","169","1015303","0.0-169.0","B86C296EC8EE4E2E9D9FA13F7F937AC9","019cf009-f872-754f-bb48-b9386ebe3b76","019ceff9-9f67-7034-9722-02cda2445e09","","1888","
                <div class=""stimulus-container"">
                    <img src=""images/causal_sequence/the_performance_causal/the_performance_causal_3.png"" class=""exp-image"">
                    <div class=""question-area"">
                        <p style=""font-size: 20px; font-weight: bold; margin: 0;"">Is there a person in this image?</p>
                    </div>
                </div>","0","main_experiment_trial","3","the_performance_causal","causal_sequence","","","","","","","","",""
"","","","","","html-keyboard-response","170","1020319","0.0-170.0","B86C296EC8EE4E2E9D9FA13F7F937AC9","019cf009-f872-754f-bb48-b9386ebe3b76","019ceff9-9f67-7034-9722-02cda2445e09","","null","
                <div class=""stimulus-container"">
                    <img src=""images/causal_sequence/the_performance_causal/the_performance_causal_4.png"" class=""exp-image"">
                    <div class=""question-area""></div> 
                </div>","null","","","","","","","","","","","","",""
"","","","","","html-button-response","171","1022487","0.0-171.0","B86C296EC8EE4E2E9D9FA13F7F937AC9","019cf009-f872-754f-bb48-b9386ebe3b76","019ceff9-9f67-7034-9722-02cda2445e09","","2166","
                <div class=""stimulus-container"">
                    <img src=""images/causal_sequence/the_performance_causal/the_performance_causal_4.png"" class=""exp-image"">
                    <div class=""question-area"">
                        <p style=""font-size: 20px; font-weight: bold; margin: 0;"">Is there a person in this image?</p>
                    </div>
                </div>","0","main_experiment_trial","4","the_performance_causal","causal_sequence","","","","","","","","",""
"","","","","","html-keyboard-response","172","1027489","0.0-172.0","B86C296EC8EE4E2E9D9FA13F7F937AC9","019cf009-f872-754f-bb48-b9386ebe3b76","019ceff9-9f67-7034-9722-02cda2445e09","","null","
                <div class=""stimulus-container"">
                    <img src=""images/causal_sequence/the_performance_causal/the_performance_causal_5.png"" class=""exp-image"">
                    <div class=""question-area""></div> 
                </div>","null","","","","","","","","","","","","",""
"","","","","","html-button-response","173","1029087","0.0-173.0","B86C296EC8EE4E2E9D9FA13F7F937AC9","019cf009-f872-754f-bb48-b9386ebe3b76","019ceff9-9f67-7034-9722-02cda2445e09","","1597","
                <div class=""stimulus-container"">
                    <img src=""images/causal_sequence/the_performance_causal/the_performance_causal_5.png"" class=""exp-image"">
                    <div class=""question-area"">
                        <p style=""font-size: 20px; font-weight: bold; margin: 0;"">Is there a person in this image?</p>
                    </div>
                </div>","0","main_experiment_trial","5","the_performance_causal","causal_sequence","","","","","","","","",""
"","","","","","html-keyboard-response","174","1034089","0.0-174.0","B86C296EC8EE4E2E9D9FA13F7F937AC9","019cf009-f872-754f-bb48-b9386ebe3b76","019ceff9-9f67-7034-9722-02cda2445e09","","null","
                <div class=""stimulus-container"">
                    <img src=""images/causal_sequence/the_performance_causal/the_performance_causal_6.png"" class=""exp-image"">
                    <div class=""question-area""></div> 
                </div>","null","","","","","","","","","","","","",""
"","","","","","html-button-response","175","1035831","0.0-175.0","B86C296EC8EE4E2E9D9FA13F7F937AC9","019cf009-f872-754f-bb48-b9386ebe3b76","019ceff9-9f67-7034-9722-02cda2445e09","","1740","
                <div class=""stimulus-container"">
                    <img src=""images/causal_sequence/the_performance_causal/the_performance_causal_6.png"" class=""exp-image"">
                    <div class=""question-area"">
                        <p style=""font-size: 20px; font-weight: bold; margin: 0;"">Is there a person in this image?</p>
                    </div>
                </div>","0","main_experiment_trial","6","the_performance_causal","causal_sequence","","","","","","","","",""
"","","","","","html-keyboard-response","176","1040847","0.0-176.0","B86C296EC8EE4E2E9D9FA13F7F937AC9","019cf009-f872-754f-bb48-b9386ebe3b76","019ceff9-9f67-7034-9722-02cda2445e09","","null","
                <div class=""stimulus-container"">
                    <img src=""images/causal_sequence/the_performance_causal/the_performance_causal_7.png"" class=""exp-image"">
                    <div class=""question-area""></div> 
                </div>","null","","","","","","","","","","","","",""
"","","","","","html-button-response","177","1042847","0.0-177.0","B86C296EC8EE4E2E9D9FA13F7F937AC9","019cf009-f872-754f-bb48-b9386ebe3b76","019ceff9-9f67-7034-9722-02cda2445e09","","1999","
                <div class=""stimulus-container"">
                    <img src=""images/causal_sequence/the_performance_causal/the_performance_causal_7.png"" class=""exp-image"">
                    <div class=""question-area"">
                        <p style=""font-size: 20px; font-weight: bold; margin: 0;"">Is there a person in this image?</p>
                    </div>
                </div>","0","main_experiment_trial","7","the_performance_causal","causal_sequence","","","","","","","","",""
"","","","","","html-keyboard-response","178","1047849","0.0-178.0","B86C296EC8EE4E2E9D9FA13F7F937AC9","019cf009-f872-754f-bb48-b9386ebe3b76","019ceff9-9f67-7034-9722-02cda2445e09","","null","
                <div class=""stimulus-container"">
                    <img src=""images/causal_sequence/the_performance_causal/the_performance_causal_8.png"" class=""exp-image"">
                    <div class=""question-area""></div> 
                </div>","null","","","","","","","","","","","","",""
