"success","timeout","failed_images","failed_audio","failed_video","trial_type","trial_index","time_elapsed","internal_node_id","subject_id","study_id","session_id","view_history","rt","stimulus","response","task","image_index","folder","sequence_type","valuable_image_index","reward_type","correct_choice","chosen_image_index","target_X"
"true","false","[]","[]","[]","preload","0","5499","0.0-0.0","E6096E19A1D3423385C6491332946926","019cf865-ec43-7c55-88bc-ea9c9095498a","019cf855-66fc-7d76-a612-8313d2c5c123","","","","","","","","","","","","",""
"","","","","","instructions","1","6829","0.0-1.0","E6096E19A1D3423385C6491332946926","019cf865-ec43-7c55-88bc-ea9c9095498a","019cf855-66fc-7d76-a612-8313d2c5c123","[{""page_index"":0,""viewing_time"":1330}]","1331","","","","","","","","","","",""
"","","","","","instructions","2","9025","0.0-2.0","E6096E19A1D3423385C6491332946926","019cf865-ec43-7c55-88bc-ea9c9095498a","019cf855-66fc-7d76-a612-8313d2c5c123","[{""page_index"":0,""viewing_time"":2195}]","2195","","","","","","","","","","",""
"true","","","","","fullscreen","3","11465","0.0-3.0","E6096E19A1D3423385C6491332946926","019cf865-ec43-7c55-88bc-ea9c9095498a","019cf855-66fc-7d76-a612-8313d2c5c123","","1436","","","","","","","","","","",""
"","","","","","instructions","4","16333","0.0-4.0","E6096E19A1D3423385C6491332946926","019cf865-ec43-7c55-88bc-ea9c9095498a","019cf855-66fc-7d76-a612-8313d2c5c123","[{""page_index"":0,""viewing_time"":4867}]","4867","","","","","","","","","","",""
"","","","","","instructions","5","79399","0.0-5.0","E6096E19A1D3423385C6491332946926","019cf865-ec43-7c55-88bc-ea9c9095498a","019cf855-66fc-7d76-a612-8313d2c5c123","[{""page_index"":0,""viewing_time"":63065}]","63066","","","","","","","","","","",""
"","","","","","html-keyboard-response","6","83403","0.0-6.0","E6096E19A1D3423385C6491332946926","019cf865-ec43-7c55-88bc-ea9c9095498a","019cf855-66fc-7d76-a612-8313d2c5c123","","null","
                <div class=""stimulus-container"">
                    <img src=""images/instructions/movie_1.png"" class=""exp-image"">
                    <div class=""question-area""></div> 
                </div>","null","","","","","","","","",""
"","","","","","html-button-response","7","85908","0.0-7.0","E6096E19A1D3423385C6491332946926","019cf865-ec43-7c55-88bc-ea9c9095498a","019cf855-66fc-7d76-a612-8313d2c5c123","","2505","
                <div class=""stimulus-container"">
                    <img src=""images/instructions/movie_1.png"" class=""exp-image"">
                    <div class=""question-area"">
                        <p style=""font-size: 20px; font-weight: bold; margin: 0;"">Was there a person in this image?</p>
                    </div>
                </div>","0","example_question","1","","","","","","",""
"","","","","","html-keyboard-response","8","89917","0.0-8.0","E6096E19A1D3423385C6491332946926","019cf865-ec43-7c55-88bc-ea9c9095498a","019cf855-66fc-7d76-a612-8313d2c5c123","","null","
                <div class=""stimulus-container"">
                    <img src=""images/instructions/movie_2.png"" class=""exp-image"">
                    <div class=""question-area""></div> 
                </div>","null","","","","","","","","",""
"","","","","","html-button-response","9","92923","0.0-9.0","E6096E19A1D3423385C6491332946926","019cf865-ec43-7c55-88bc-ea9c9095498a","019cf855-66fc-7d76-a612-8313d2c5c123","","null","
                <div class=""stimulus-container"">
                    <img src=""images/instructions/movie_2.png"" class=""exp-image"">
                    <div class=""question-area"">
                        <p style=""font-size: 20px; font-weight: bold; margin: 0;"">Was there a person in this image?</p>
                    </div>
                </div>","null","example_question","2","","","","","","",""
"","","","","","html-keyboard-response","10","96937","0.0-10.0","E6096E19A1D3423385C6491332946926","019cf865-ec43-7c55-88bc-ea9c9095498a","019cf855-66fc-7d76-a612-8313d2c5c123","","null","
                <div class=""stimulus-container"">
                    <img src=""images/instructions/movie_3.png"" class=""exp-image"">
                    <div class=""question-area""></div> 
                </div>","null","","","","","","","","",""
"","","","","","html-button-response","11","97658","0.0-11.0","E6096E19A1D3423385C6491332946926","019cf865-ec43-7c55-88bc-ea9c9095498a","019cf855-66fc-7d76-a612-8313d2c5c123","","720","
                <div class=""stimulus-container"">
                    <img src=""images/instructions/movie_3.png"" class=""exp-image"">
                    <div class=""question-area"">
                        <p style=""font-size: 20px; font-weight: bold; margin: 0;"">Was there a person in this image?</p>
                    </div>
                </div>","0","example_question","3","","","","","","",""
"","","","","","html-keyboard-response","12","101671","0.0-12.0","E6096E19A1D3423385C6491332946926","019cf865-ec43-7c55-88bc-ea9c9095498a","019cf855-66fc-7d76-a612-8313d2c5c123","","null","
                <div class=""stimulus-container"">
                    <img src=""images/instructions/movie_4.png"" class=""exp-image"">
                    <div class=""question-area""></div> 
                </div>","null","","","","","","","","",""
"","","","","","html-button-response","13","102108","0.0-13.0","E6096E19A1D3423385C6491332946926","019cf865-ec43-7c55-88bc-ea9c9095498a","019cf855-66fc-7d76-a612-8313d2c5c123","","436","
                <div class=""stimulus-container"">
                    <img src=""images/instructions/movie_4.png"" class=""exp-image"">
                    <div class=""question-area"">
                        <p style=""font-size: 20px; font-weight: bold; margin: 0;"">Was there a person in this image?</p>
                    </div>
                </div>","0","example_question","4","","","","","","",""
"","","","","","instructions","14","103767","0.0-14.0","E6096E19A1D3423385C6491332946926","019cf865-ec43-7c55-88bc-ea9c9095498a","019cf855-66fc-7d76-a612-8313d2c5c123","[{""page_index"":0,""viewing_time"":1658}]","1658","","","","","","","","","","",""
"","","","","","instructions","15","111154","0.0-15.0","E6096E19A1D3423385C6491332946926","019cf865-ec43-7c55-88bc-ea9c9095498a","019cf855-66fc-7d76-a612-8313d2c5c123","[{""page_index"":0,""viewing_time"":7387}]","7387","","","","","","","","","","",""
"","","","","","html-keyboard-response","16","112166","0.0-16.0","E6096E19A1D3423385C6491332946926","019cf865-ec43-7c55-88bc-ea9c9095498a","019cf855-66fc-7d76-a612-8313d2c5c123","","null","<div style=""background-color: white; width: 100vw; height: 100vh;""></div>","null","","","","","","","","",""
"","","","","","html-keyboard-response","17","117167","0.0-17.0","E6096E19A1D3423385C6491332946926","019cf865-ec43-7c55-88bc-ea9c9095498a","019cf855-66fc-7d76-a612-8313d2c5c123","","null","
                <div class=""stimulus-container"">
                    <img src=""images/schematic_sequence/restaurant_scheme/restaurant_scheme_1.png"" class=""exp-image"">
                    <div class=""question-area""></div> 
                </div>","null","","","","","","","","",""
"","","","","","html-button-response","18","117865","0.0-18.0","E6096E19A1D3423385C6491332946926","019cf865-ec43-7c55-88bc-ea9c9095498a","019cf855-66fc-7d76-a612-8313d2c5c123","","697","
                <div class=""stimulus-container"">
                    <img src=""images/schematic_sequence/restaurant_scheme/restaurant_scheme_1.png"" class=""exp-image"">
                    <div class=""question-area"">
                        <p style=""font-size: 20px; font-weight: bold; margin: 0;"">Is there a person in this image?</p>
                    </div>
                </div>","0","main_experiment_trial","1","restaurant_scheme","schematic_sequence","","","","",""
"","","","","","html-keyboard-response","19","122868","0.0-19.0","E6096E19A1D3423385C6491332946926","019cf865-ec43-7c55-88bc-ea9c9095498a","019cf855-66fc-7d76-a612-8313d2c5c123","","null","
                <div class=""stimulus-container"">
                    <img src=""images/schematic_sequence/restaurant_scheme/restaurant_scheme_2.png"" class=""exp-image"">
                    <div class=""question-area""></div> 
                </div>","null","","","","","","","","",""
"","","","","","html-button-response","20","123401","0.0-20.0","E6096E19A1D3423385C6491332946926","019cf865-ec43-7c55-88bc-ea9c9095498a","019cf855-66fc-7d76-a612-8313d2c5c123","","532","
                <div class=""stimulus-container"">
                    <img src=""images/schematic_sequence/restaurant_scheme/restaurant_scheme_2.png"" class=""exp-image"">
                    <div class=""question-area"">
                        <p style=""font-size: 20px; font-weight: bold; margin: 0;"">Is there a person in this image?</p>
                    </div>
                </div>","1","main_experiment_trial","2","restaurant_scheme","schematic_sequence","","","","",""
"","","","","","html-keyboard-response","21","128413","0.0-21.0","E6096E19A1D3423385C6491332946926","019cf865-ec43-7c55-88bc-ea9c9095498a","019cf855-66fc-7d76-a612-8313d2c5c123","","null","
                <div class=""stimulus-container"">
                    <img src=""images/schematic_sequence/restaurant_scheme/restaurant_scheme_3.png"" class=""exp-image"">
                    <div class=""question-area""></div> 
                </div>","null","","","","","","","","",""
"","","","","","html-button-response","22","128991","0.0-22.0","E6096E19A1D3423385C6491332946926","019cf865-ec43-7c55-88bc-ea9c9095498a","019cf855-66fc-7d76-a612-8313d2c5c123","","578","
                <div class=""stimulus-container"">
                    <img src=""images/schematic_sequence/restaurant_scheme/restaurant_scheme_3.png"" class=""exp-image"">
                    <div class=""question-area"">
                        <p style=""font-size: 20px; font-weight: bold; margin: 0;"">Is there a person in this image?</p>
                    </div>
                </div>","1","main_experiment_trial","3","restaurant_scheme","schematic_sequence","","","","",""
"","","","","","html-keyboard-response","23","134004","0.0-23.0","E6096E19A1D3423385C6491332946926","019cf865-ec43-7c55-88bc-ea9c9095498a","019cf855-66fc-7d76-a612-8313d2c5c123","","null","
                <div class=""stimulus-container"">
                    <img src=""images/schematic_sequence/restaurant_scheme/restaurant_scheme_4.png"" class=""exp-image"">
                    <div class=""question-area""></div> 
                </div>","null","","","","","","","","",""
"","","","","","html-button-response","24","134672","0.0-24.0","E6096E19A1D3423385C6491332946926","019cf865-ec43-7c55-88bc-ea9c9095498a","019cf855-66fc-7d76-a612-8313d2c5c123","","666","
                <div class=""stimulus-container"">
                    <img src=""images/schematic_sequence/restaurant_scheme/restaurant_scheme_4.png"" class=""exp-image"">
                    <div class=""question-area"">
                        <p style=""font-size: 20px; font-weight: bold; margin: 0;"">Is there a person in this image?</p>
                    </div>
                </div>","0","main_experiment_trial","4","restaurant_scheme","schematic_sequence","","","","",""
"","","","","","html-keyboard-response","25","139687","0.0-25.0","E6096E19A1D3423385C6491332946926","019cf865-ec43-7c55-88bc-ea9c9095498a","019cf855-66fc-7d76-a612-8313d2c5c123","","null","
                <div class=""stimulus-container"">
                    <img src=""images/schematic_sequence/restaurant_scheme/restaurant_scheme_5.png"" class=""exp-image"">
                    <div class=""question-area""></div> 
                </div>","null","","","","","","","","",""
"","","","","","html-button-response","26","140365","0.0-26.0","E6096E19A1D3423385C6491332946926","019cf865-ec43-7c55-88bc-ea9c9095498a","019cf855-66fc-7d76-a612-8313d2c5c123","","677","
                <div class=""stimulus-container"">
                    <img src=""images/schematic_sequence/restaurant_scheme/restaurant_scheme_5.png"" class=""exp-image"">
                    <div class=""question-area"">
                        <p style=""font-size: 20px; font-weight: bold; margin: 0;"">Is there a person in this image?</p>
                    </div>
                </div>","0","main_experiment_trial","5","restaurant_scheme","schematic_sequence","","","","",""
"","","","","","html-keyboard-response","27","145367","0.0-27.0","E6096E19A1D3423385C6491332946926","019cf865-ec43-7c55-88bc-ea9c9095498a","019cf855-66fc-7d76-a612-8313d2c5c123","","null","
                <div class=""stimulus-container"">
                    <img src=""images/schematic_sequence/restaurant_scheme/restaurant_scheme_6.png"" class=""exp-image"">
                    <div class=""question-area""></div> 
                </div>","null","","","","","","","","",""
"","","","","","html-button-response","28","146008","0.0-28.0","E6096E19A1D3423385C6491332946926","019cf865-ec43-7c55-88bc-ea9c9095498a","019cf855-66fc-7d76-a612-8313d2c5c123","","639","
                <div class=""stimulus-container"">
                    <img src=""images/schematic_sequence/restaurant_scheme/restaurant_scheme_6.png"" class=""exp-image"">
                    <div class=""question-area"">
                        <p style=""font-size: 20px; font-weight: bold; margin: 0;"">Is there a person in this image?</p>
                    </div>
                </div>","1","main_experiment_trial","6","restaurant_scheme","schematic_sequence","","","","",""
"","","","","","html-keyboard-response","29","151009","0.0-29.0","E6096E19A1D3423385C6491332946926","019cf865-ec43-7c55-88bc-ea9c9095498a","019cf855-66fc-7d76-a612-8313d2c5c123","","null","
                <div class=""stimulus-container"">
                    <img src=""images/schematic_sequence/restaurant_scheme/restaurant_scheme_7.png"" class=""exp-image"">
                    <div class=""question-area""></div> 
                </div>","null","","","","","","","","",""
"","","","","","html-button-response","30","152508","0.0-30.0","E6096E19A1D3423385C6491332946926","019cf865-ec43-7c55-88bc-ea9c9095498a","019cf855-66fc-7d76-a612-8313d2c5c123","","1498","
                <div class=""stimulus-container"">
                    <img src=""images/schematic_sequence/restaurant_scheme/restaurant_scheme_7.png"" class=""exp-image"">
                    <div class=""question-area"">
                        <p style=""font-size: 20px; font-weight: bold; margin: 0;"">Is there a person in this image?</p>
                    </div>
                </div>","1","main_experiment_trial","7","restaurant_scheme","schematic_sequence","","","","",""
"","","","","","html-keyboard-response","31","157513","0.0-31.0","E6096E19A1D3423385C6491332946926","019cf865-ec43-7c55-88bc-ea9c9095498a","019cf855-66fc-7d76-a612-8313d2c5c123","","null","
                <div class=""stimulus-container"">
                    <img src=""images/schematic_sequence/restaurant_scheme/restaurant_scheme_8.png"" class=""exp-image"">
                    <div class=""question-area""></div> 
                </div>","null","","","","","","","","",""
"","","","","","html-button-response","32","158554","0.0-32.0","E6096E19A1D3423385C6491332946926","019cf865-ec43-7c55-88bc-ea9c9095498a","019cf855-66fc-7d76-a612-8313d2c5c123","","1040","
                <div class=""stimulus-container"">
                    <img src=""images/schematic_sequence/restaurant_scheme/restaurant_scheme_8.png"" class=""exp-image"">
                    <div class=""question-area"">
                        <p style=""font-size: 20px; font-weight: bold; margin: 0;"">Is there a person in this image?</p>
                    </div>
                </div>","0","main_experiment_trial","8","restaurant_scheme","schematic_sequence","","","","",""
"","","","","","html-keyboard-response","33","163560","0.0-33.0","E6096E19A1D3423385C6491332946926","019cf865-ec43-7c55-88bc-ea9c9095498a","019cf855-66fc-7d76-a612-8313d2c5c123","","null","
                <div class=""stimulus-container"">
                    <img src=""images/schematic_sequence/restaurant_scheme/restaurant_scheme_9.png"" class=""exp-image"">
                    <div class=""question-area""></div> 
                </div>","null","","","","","","","","",""
"","","","","","html-button-response","34","164149","0.0-34.0","E6096E19A1D3423385C6491332946926","019cf865-ec43-7c55-88bc-ea9c9095498a","019cf855-66fc-7d76-a612-8313d2c5c123","","589","
                <div class=""stimulus-container"">
                    <img src=""images/schematic_sequence/restaurant_scheme/restaurant_scheme_9.png"" class=""exp-image"">
                    <div class=""question-area"">
                        <p style=""font-size: 20px; font-weight: bold; margin: 0;"">Is there a person in this image?</p>
                    </div>
                </div>","0","main_experiment_trial","9","restaurant_scheme","schematic_sequence","","","","",""
"","","","","","html-keyboard-response","35","169160","0.0-35.0","E6096E19A1D3423385C6491332946926","019cf865-ec43-7c55-88bc-ea9c9095498a","019cf855-66fc-7d76-a612-8313d2c5c123","","null","
                <div class=""stimulus-container"">
                    <img src=""images/schematic_sequence/restaurant_scheme/restaurant_scheme_ten.png"" class=""exp-image"">
                    <div class=""question-area""></div> 
                </div>","null","","","","","","","","",""
"","","","","","html-button-response","36","169641","0.0-36.0","E6096E19A1D3423385C6491332946926","019cf865-ec43-7c55-88bc-ea9c9095498a","019cf855-66fc-7d76-a612-8313d2c5c123","","479","
                <div class=""stimulus-container"">
                    <img src=""images/schematic_sequence/restaurant_scheme/restaurant_scheme_ten.png"" class=""exp-image"">
                    <div class=""question-area"">
                        <p style=""font-size: 20px; font-weight: bold; margin: 0;"">Is there a person in this image?</p>
                    </div>
                </div>","0","main_experiment_trial","ten","restaurant_scheme","schematic_sequence","","","","",""
"","","","","","html-keyboard-response","37","170648","0.0-37.0","E6096E19A1D3423385C6491332946926","019cf865-ec43-7c55-88bc-ea9c9095498a","019cf855-66fc-7d76-a612-8313d2c5c123","","null","<div style=""background-color: white; width: 100vw; height: 100vh;""></div>","null","","","","","","","","",""
"","","","","","html-keyboard-response","38","175657","0.0-38.0","E6096E19A1D3423385C6491332946926","019cf865-ec43-7c55-88bc-ea9c9095498a","019cf855-66fc-7d76-a612-8313d2c5c123","","null","
                <div class=""stimulus-container"">
                    <img src=""images/schematic_sequence/dinner_party_scheme/dinner_party_scheme_1.png"" class=""exp-image"">
                    <div class=""question-area""></div> 
                </div>","null","","","","","","","","",""
"","","","","","html-button-response","39","176351","0.0-39.0","E6096E19A1D3423385C6491332946926","019cf865-ec43-7c55-88bc-ea9c9095498a","019cf855-66fc-7d76-a612-8313d2c5c123","","694","
                <div class=""stimulus-container"">
                    <img src=""images/schematic_sequence/dinner_party_scheme/dinner_party_scheme_1.png"" class=""exp-image"">
                    <div class=""question-area"">
                        <p style=""font-size: 20px; font-weight: bold; margin: 0;"">Is there a person in this image?</p>
                    </div>
                </div>","0","main_experiment_trial","1","dinner_party_scheme","schematic_sequence","","","","",""
"","","","","","html-keyboard-response","40","181356","0.0-40.0","E6096E19A1D3423385C6491332946926","019cf865-ec43-7c55-88bc-ea9c9095498a","019cf855-66fc-7d76-a612-8313d2c5c123","","null","
                <div class=""stimulus-container"">
                    <img src=""images/schematic_sequence/dinner_party_scheme/dinner_party_scheme_2.png"" class=""exp-image"">
                    <div class=""question-area""></div> 
                </div>","null","","","","","","","","",""
"","","","","","html-button-response","41","184138","0.0-41.0","E6096E19A1D3423385C6491332946926","019cf865-ec43-7c55-88bc-ea9c9095498a","019cf855-66fc-7d76-a612-8313d2c5c123","","2781","
                <div class=""stimulus-container"">
                    <img src=""images/schematic_sequence/dinner_party_scheme/dinner_party_scheme_2.png"" class=""exp-image"">
                    <div class=""question-area"">
                        <p style=""font-size: 20px; font-weight: bold; margin: 0;"">Is there a person in this image?</p>
                    </div>
                </div>","0","main_experiment_trial","2","dinner_party_scheme","schematic_sequence","","","","",""
"","","","","","html-keyboard-response","42","189140","0.0-42.0","E6096E19A1D3423385C6491332946926","019cf865-ec43-7c55-88bc-ea9c9095498a","019cf855-66fc-7d76-a612-8313d2c5c123","","null","
                <div class=""stimulus-container"">
                    <img src=""images/schematic_sequence/dinner_party_scheme/dinner_party_scheme_3.png"" class=""exp-image"">
                    <div class=""question-area""></div> 
                </div>","null","","","","","","","","",""
"","","","","","html-button-response","43","189658","0.0-43.0","E6096E19A1D3423385C6491332946926","019cf865-ec43-7c55-88bc-ea9c9095498a","019cf855-66fc-7d76-a612-8313d2c5c123","","518","
                <div class=""stimulus-container"">
                    <img src=""images/schematic_sequence/dinner_party_scheme/dinner_party_scheme_3.png"" class=""exp-image"">
                    <div class=""question-area"">
                        <p style=""font-size: 20px; font-weight: bold; margin: 0;"">Is there a person in this image?</p>
                    </div>
                </div>","0","main_experiment_trial","3","dinner_party_scheme","schematic_sequence","","","","",""
"","","","","","html-keyboard-response","44","194673","0.0-44.0","E6096E19A1D3423385C6491332946926","019cf865-ec43-7c55-88bc-ea9c9095498a","019cf855-66fc-7d76-a612-8313d2c5c123","","null","
                <div class=""stimulus-container"">
                    <img src=""images/schematic_sequence/dinner_party_scheme/dinner_party_scheme_4.png"" class=""exp-image"">
                    <div class=""question-area""></div> 
                </div>","null","","","","","","","","",""
"","","","","","html-button-response","45","195185","0.0-45.0","E6096E19A1D3423385C6491332946926","019cf865-ec43-7c55-88bc-ea9c9095498a","019cf855-66fc-7d76-a612-8313d2c5c123","","511","
                <div class=""stimulus-container"">
                    <img src=""images/schematic_sequence/dinner_party_scheme/dinner_party_scheme_4.png"" class=""exp-image"">
                    <div class=""question-area"">
                        <p style=""font-size: 20px; font-weight: bold; margin: 0;"">Is there a person in this image?</p>
                    </div>
                </div>","0","main_experiment_trial","4","dinner_party_scheme","schematic_sequence","","","","",""
"","","","","","html-keyboard-response","46","200189","0.0-46.0","E6096E19A1D3423385C6491332946926","019cf865-ec43-7c55-88bc-ea9c9095498a","019cf855-66fc-7d76-a612-8313d2c5c123","","null","
                <div class=""stimulus-container"">
                    <img src=""images/schematic_sequence/dinner_party_scheme/dinner_party_scheme_5.png"" class=""exp-image"">
                    <div class=""question-area""></div> 
                </div>","null","","","","","","","","",""
"","","","","","html-button-response","47","200650","0.0-47.0","E6096E19A1D3423385C6491332946926","019cf865-ec43-7c55-88bc-ea9c9095498a","019cf855-66fc-7d76-a612-8313d2c5c123","","461","
                <div class=""stimulus-container"">
                    <img src=""images/schematic_sequence/dinner_party_scheme/dinner_party_scheme_5.png"" class=""exp-image"">
                    <div class=""question-area"">
                        <p style=""font-size: 20px; font-weight: bold; margin: 0;"">Is there a person in this image?</p>
                    </div>
                </div>","0","main_experiment_trial","5","dinner_party_scheme","schematic_sequence","","","","",""
"","","","","","html-keyboard-response","48","205657","0.0-48.0","E6096E19A1D3423385C6491332946926","019cf865-ec43-7c55-88bc-ea9c9095498a","019cf855-66fc-7d76-a612-8313d2c5c123","","null","
                <div class=""stimulus-container"">
                    <img src=""images/schematic_sequence/dinner_party_scheme/dinner_party_scheme_6.png"" class=""exp-image"">
                    <div class=""question-area""></div> 
                </div>","null","","","","","","","","",""
"","","","","","html-button-response","49","206076","0.0-49.0","E6096E19A1D3423385C6491332946926","019cf865-ec43-7c55-88bc-ea9c9095498a","019cf855-66fc-7d76-a612-8313d2c5c123","","419","
                <div class=""stimulus-container"">
                    <img src=""images/schematic_sequence/dinner_party_scheme/dinner_party_scheme_6.png"" class=""exp-image"">
                    <div class=""question-area"">
                        <p style=""font-size: 20px; font-weight: bold; margin: 0;"">Is there a person in this image?</p>
                    </div>
                </div>","0","main_experiment_trial","6","dinner_party_scheme","schematic_sequence","","","","",""
"","","","","","html-keyboard-response","50","211078","0.0-50.0","E6096E19A1D3423385C6491332946926","019cf865-ec43-7c55-88bc-ea9c9095498a","019cf855-66fc-7d76-a612-8313d2c5c123","","null","
                <div class=""stimulus-container"">
                    <img src=""images/schematic_sequence/dinner_party_scheme/dinner_party_scheme_7.png"" class=""exp-image"">
                    <div class=""question-area""></div> 
                </div>","null","","","","","","","","",""
"","","","","","html-button-response","51","211450","0.0-51.0","E6096E19A1D3423385C6491332946926","019cf865-ec43-7c55-88bc-ea9c9095498a","019cf855-66fc-7d76-a612-8313d2c5c123","","372","
                <div class=""stimulus-container"">
                    <img src=""images/schematic_sequence/dinner_party_scheme/dinner_party_scheme_7.png"" class=""exp-image"">
                    <div class=""question-area"">
                        <p style=""font-size: 20px; font-weight: bold; margin: 0;"">Is there a person in this image?</p>
                    </div>
                </div>","0","main_experiment_trial","7","dinner_party_scheme","schematic_sequence","","","","",""
"","","","","","html-keyboard-response","52","216463","0.0-52.0","E6096E19A1D3423385C6491332946926","019cf865-ec43-7c55-88bc-ea9c9095498a","019cf855-66fc-7d76-a612-8313d2c5c123","","null","
                <div class=""stimulus-container"">
                    <img src=""images/schematic_sequence/dinner_party_scheme/dinner_party_scheme_8.png"" class=""exp-image"">
                    <div class=""question-area""></div> 
                </div>","null","","","","","","","","",""
"","","","","","html-button-response","53","217247","0.0-53.0","E6096E19A1D3423385C6491332946926","019cf865-ec43-7c55-88bc-ea9c9095498a","019cf855-66fc-7d76-a612-8313d2c5c123","","784","
                <div class=""stimulus-container"">
                    <img src=""images/schematic_sequence/dinner_party_scheme/dinner_party_scheme_8.png"" class=""exp-image"">
                    <div class=""question-area"">
                        <p style=""font-size: 20px; font-weight: bold; margin: 0;"">Is there a person in this image?</p>
                    </div>
                </div>","0","main_experiment_trial","8","dinner_party_scheme","schematic_sequence","","","","",""
"","","","","","html-keyboard-response","54","222249","0.0-54.0","E6096E19A1D3423385C6491332946926","019cf865-ec43-7c55-88bc-ea9c9095498a","019cf855-66fc-7d76-a612-8313d2c5c123","","null","
                <div class=""stimulus-container"">
                    <img src=""images/schematic_sequence/dinner_party_scheme/dinner_party_scheme_9.png"" class=""exp-image"">
                    <div class=""question-area""></div> 
                </div>","null","","","","","","","","",""
"","","","","","html-button-response","55","222644","0.0-55.0","E6096E19A1D3423385C6491332946926","019cf865-ec43-7c55-88bc-ea9c9095498a","019cf855-66fc-7d76-a612-8313d2c5c123","","394","
                <div class=""stimulus-container"">
                    <img src=""images/schematic_sequence/dinner_party_scheme/dinner_party_scheme_9.png"" class=""exp-image"">
                    <div class=""question-area"">
                        <p style=""font-size: 20px; font-weight: bold; margin: 0;"">Is there a person in this image?</p>
                    </div>
                </div>","0","main_experiment_trial","9","dinner_party_scheme","schematic_sequence","","","","",""
"","","","","","html-keyboard-response","56","227653","0.0-56.0","E6096E19A1D3423385C6491332946926","019cf865-ec43-7c55-88bc-ea9c9095498a","019cf855-66fc-7d76-a612-8313d2c5c123","","null","
                <div class=""stimulus-container"">
                    <img src=""images/schematic_sequence/dinner_party_scheme/dinner_party_scheme_ten.png"" class=""exp-image"">
                    <div class=""question-area""></div> 
                </div>","null","","","","","","","","",""
"","","","","","html-button-response","57","228339","0.0-57.0","E6096E19A1D3423385C6491332946926","019cf865-ec43-7c55-88bc-ea9c9095498a","019cf855-66fc-7d76-a612-8313d2c5c123","","686","
                <div class=""stimulus-container"">
                    <img src=""images/schematic_sequence/dinner_party_scheme/dinner_party_scheme_ten.png"" class=""exp-image"">
                    <div class=""question-area"">
                        <p style=""font-size: 20px; font-weight: bold; margin: 0;"">Is there a person in this image?</p>
                    </div>
                </div>","0","main_experiment_trial","ten","dinner_party_scheme","schematic_sequence","","","","",""
"","","","","","html-keyboard-response","58","229347","0.0-58.0","E6096E19A1D3423385C6491332946926","019cf865-ec43-7c55-88bc-ea9c9095498a","019cf855-66fc-7d76-a612-8313d2c5c123","","null","<div style=""background-color: white; width: 100vw; height: 100vh;""></div>","null","","","","","","","","",""
"","","","","","html-keyboard-response","59","234351","0.0-59.0","E6096E19A1D3423385C6491332946926","019cf865-ec43-7c55-88bc-ea9c9095498a","019cf855-66fc-7d76-a612-8313d2c5c123","","null","
                <div class=""stimulus-container"">
                    <img src=""images/semantic_sequence/redecorating_a_house_semantic/redecorating_a_house_semantic_1.png"" class=""exp-image"">
                    <div class=""question-area""></div> 
                </div>","null","","","","","","","","",""
"","","","","","html-button-response","60","235062","0.0-60.0","E6096E19A1D3423385C6491332946926","019cf865-ec43-7c55-88bc-ea9c9095498a","019cf855-66fc-7d76-a612-8313d2c5c123","","710","
                <div class=""stimulus-container"">
                    <img src=""images/semantic_sequence/redecorating_a_house_semantic/redecorating_a_house_semantic_1.png"" class=""exp-image"">
                    <div class=""question-area"">
                        <p style=""font-size: 20px; font-weight: bold; margin: 0;"">Is there a person in this image?</p>
                    </div>
                </div>","0","main_experiment_trial","1","redecorating_a_house_semantic","semantic_sequence","","","","",""
"","","","","","html-keyboard-response","61","240070","0.0-61.0","E6096E19A1D3423385C6491332946926","019cf865-ec43-7c55-88bc-ea9c9095498a","019cf855-66fc-7d76-a612-8313d2c5c123","","null","
                <div class=""stimulus-container"">
                    <img src=""images/semantic_sequence/redecorating_a_house_semantic/redecorating_a_house_semantic_2.png"" class=""exp-image"">
                    <div class=""question-area""></div> 
                </div>","null","","","","","","","","",""
"","","","","","html-button-response","62","240455","0.0-62.0","E6096E19A1D3423385C6491332946926","019cf865-ec43-7c55-88bc-ea9c9095498a","019cf855-66fc-7d76-a612-8313d2c5c123","","384","
                <div class=""stimulus-container"">
                    <img src=""images/semantic_sequence/redecorating_a_house_semantic/redecorating_a_house_semantic_2.png"" class=""exp-image"">
                    <div class=""question-area"">
                        <p style=""font-size: 20px; font-weight: bold; margin: 0;"">Is there a person in this image?</p>
                    </div>
                </div>","0","main_experiment_trial","2","redecorating_a_house_semantic","semantic_sequence","","","","",""
"","","","","","html-keyboard-response","63","245462","0.0-63.0","E6096E19A1D3423385C6491332946926","019cf865-ec43-7c55-88bc-ea9c9095498a","019cf855-66fc-7d76-a612-8313d2c5c123","","null","
                <div class=""stimulus-container"">
                    <img src=""images/semantic_sequence/redecorating_a_house_semantic/redecorating_a_house_semantic_3.png"" class=""exp-image"">
                    <div class=""question-area""></div> 
                </div>","null","","","","","","","","",""
"","","","","","html-button-response","64","245940","0.0-64.0","E6096E19A1D3423385C6491332946926","019cf865-ec43-7c55-88bc-ea9c9095498a","019cf855-66fc-7d76-a612-8313d2c5c123","","476","
                <div class=""stimulus-container"">
                    <img src=""images/semantic_sequence/redecorating_a_house_semantic/redecorating_a_house_semantic_3.png"" class=""exp-image"">
                    <div class=""question-area"">
                        <p style=""font-size: 20px; font-weight: bold; margin: 0;"">Is there a person in this image?</p>
                    </div>
                </div>","0","main_experiment_trial","3","redecorating_a_house_semantic","semantic_sequence","","","","",""
"","","","","","html-keyboard-response","65","250945","0.0-65.0","E6096E19A1D3423385C6491332946926","019cf865-ec43-7c55-88bc-ea9c9095498a","019cf855-66fc-7d76-a612-8313d2c5c123","","null","
                <div class=""stimulus-container"">
                    <img src=""images/semantic_sequence/redecorating_a_house_semantic/redecorating_a_house_semantic_4.png"" class=""exp-image"">
                    <div class=""question-area""></div> 
                </div>","null","","","","","","","","",""
"","","","","","html-button-response","66","251348","0.0-66.0","E6096E19A1D3423385C6491332946926","019cf865-ec43-7c55-88bc-ea9c9095498a","019cf855-66fc-7d76-a612-8313d2c5c123","","402","
                <div class=""stimulus-container"">
                    <img src=""images/semantic_sequence/redecorating_a_house_semantic/redecorating_a_house_semantic_4.png"" class=""exp-image"">
                    <div class=""question-area"">
                        <p style=""font-size: 20px; font-weight: bold; margin: 0;"">Is there a person in this image?</p>
                    </div>
                </div>","0","main_experiment_trial","4","redecorating_a_house_semantic","semantic_sequence","","","","",""
"","","","","","html-keyboard-response","67","256364","0.0-67.0","E6096E19A1D3423385C6491332946926","019cf865-ec43-7c55-88bc-ea9c9095498a","019cf855-66fc-7d76-a612-8313d2c5c123","","null","
                <div class=""stimulus-container"">
                    <img src=""images/semantic_sequence/redecorating_a_house_semantic/redecorating_a_house_semantic_5.png"" class=""exp-image"">
                    <div class=""question-area""></div> 
                </div>","null","","","","","","","","",""
"","","","","","html-button-response","68","256713","0.0-68.0","E6096E19A1D3423385C6491332946926","019cf865-ec43-7c55-88bc-ea9c9095498a","019cf855-66fc-7d76-a612-8313d2c5c123","","348","
                <div class=""stimulus-container"">
                    <img src=""images/semantic_sequence/redecorating_a_house_semantic/redecorating_a_house_semantic_5.png"" class=""exp-image"">
                    <div class=""question-area"">
                        <p style=""font-size: 20px; font-weight: bold; margin: 0;"">Is there a person in this image?</p>
                    </div>
                </div>","0","main_experiment_trial","5","redecorating_a_house_semantic","semantic_sequence","","","","",""
"","","","","","html-keyboard-response","69","261720","0.0-69.0","E6096E19A1D3423385C6491332946926","019cf865-ec43-7c55-88bc-ea9c9095498a","019cf855-66fc-7d76-a612-8313d2c5c123","","null","
                <div class=""stimulus-container"">
                    <img src=""images/semantic_sequence/redecorating_a_house_semantic/redecorating_a_house_semantic_6.png"" class=""exp-image"">
                    <div class=""question-area""></div> 
                </div>","null","","","","","","","","",""
"","","","","","html-button-response","70","262105","0.0-70.0","E6096E19A1D3423385C6491332946926","019cf865-ec43-7c55-88bc-ea9c9095498a","019cf855-66fc-7d76-a612-8313d2c5c123","","385","
                <div class=""stimulus-container"">
                    <img src=""images/semantic_sequence/redecorating_a_house_semantic/redecorating_a_house_semantic_6.png"" class=""exp-image"">
                    <div class=""question-area"">
                        <p style=""font-size: 20px; font-weight: bold; margin: 0;"">Is there a person in this image?</p>
                    </div>
                </div>","0","main_experiment_trial","6","redecorating_a_house_semantic","semantic_sequence","","","","",""
"","","","","","html-keyboard-response","71","267111","0.0-71.0","E6096E19A1D3423385C6491332946926","019cf865-ec43-7c55-88bc-ea9c9095498a","019cf855-66fc-7d76-a612-8313d2c5c123","","null","
                <div class=""stimulus-container"">
                    <img src=""images/semantic_sequence/redecorating_a_house_semantic/redecorating_a_house_semantic_7.png"" class=""exp-image"">
                    <div class=""question-area""></div> 
                </div>","null","","","","","","","","",""
"","","","","","html-button-response","72","267425","0.0-72.0","E6096E19A1D3423385C6491332946926","019cf865-ec43-7c55-88bc-ea9c9095498a","019cf855-66fc-7d76-a612-8313d2c5c123","","314","
                <div class=""stimulus-container"">
                    <img src=""images/semantic_sequence/redecorating_a_house_semantic/redecorating_a_house_semantic_7.png"" class=""exp-image"">
                    <div class=""question-area"">
                        <p style=""font-size: 20px; font-weight: bold; margin: 0;"">Is there a person in this image?</p>
                    </div>
                </div>","0","main_experiment_trial","7","redecorating_a_house_semantic","semantic_sequence","","","","",""
"","","","","","html-keyboard-response","73","272430","0.0-73.0","E6096E19A1D3423385C6491332946926","019cf865-ec43-7c55-88bc-ea9c9095498a","019cf855-66fc-7d76-a612-8313d2c5c123","","null","
                <div class=""stimulus-container"">
                    <img src=""images/semantic_sequence/redecorating_a_house_semantic/redecorating_a_house_semantic_8.png"" class=""exp-image"">
                    <div class=""question-area""></div> 
                </div>","null","","","","","","","","",""
"","","","","","html-button-response","74","272762","0.0-74.0","E6096E19A1D3423385C6491332946926","019cf865-ec43-7c55-88bc-ea9c9095498a","019cf855-66fc-7d76-a612-8313d2c5c123","","331","
                <div class=""stimulus-container"">
                    <img src=""images/semantic_sequence/redecorating_a_house_semantic/redecorating_a_house_semantic_8.png"" class=""exp-image"">
                    <div class=""question-area"">
                        <p style=""font-size: 20px; font-weight: bold; margin: 0;"">Is there a person in this image?</p>
                    </div>
                </div>","0","main_experiment_trial","8","redecorating_a_house_semantic","semantic_sequence","","","","",""
"","","","","","html-keyboard-response","75","277774","0.0-75.0","E6096E19A1D3423385C6491332946926","019cf865-ec43-7c55-88bc-ea9c9095498a","019cf855-66fc-7d76-a612-8313d2c5c123","","null","
                <div class=""stimulus-container"">
                    <img src=""images/semantic_sequence/redecorating_a_house_semantic/redecorating_a_house_semantic_9.png"" class=""exp-image"">
                    <div class=""question-area""></div> 
                </div>","null","","","","","","","","",""
"","","","","","html-button-response","76","278097","0.0-76.0","E6096E19A1D3423385C6491332946926","019cf865-ec43-7c55-88bc-ea9c9095498a","019cf855-66fc-7d76-a612-8313d2c5c123","","322","
                <div class=""stimulus-container"">
                    <img src=""images/semantic_sequence/redecorating_a_house_semantic/redecorating_a_house_semantic_9.png"" class=""exp-image"">
                    <div class=""question-area"">
                        <p style=""font-size: 20px; font-weight: bold; margin: 0;"">Is there a person in this image?</p>
                    </div>
                </div>","0","main_experiment_trial","9","redecorating_a_house_semantic","semantic_sequence","","","","",""
"","","","","","html-keyboard-response","77","283098","0.0-77.0","E6096E19A1D3423385C6491332946926","019cf865-ec43-7c55-88bc-ea9c9095498a","019cf855-66fc-7d76-a612-8313d2c5c123","","null","
                <div class=""stimulus-container"">
                    <img src=""images/semantic_sequence/redecorating_a_house_semantic/redecorating_a_house_semantic_ten.png"" class=""exp-image"">
                    <div class=""question-area""></div> 
                </div>","null","","","","","","","","",""
"","","","","","html-button-response","78","283473","0.0-78.0","E6096E19A1D3423385C6491332946926","019cf865-ec43-7c55-88bc-ea9c9095498a","019cf855-66fc-7d76-a612-8313d2c5c123","","374","
                <div class=""stimulus-container"">
                    <img src=""images/semantic_sequence/redecorating_a_house_semantic/redecorating_a_house_semantic_ten.png"" class=""exp-image"">
                    <div class=""question-area"">
                        <p style=""font-size: 20px; font-weight: bold; margin: 0;"">Is there a person in this image?</p>
                    </div>
                </div>","0","main_experiment_trial","ten","redecorating_a_house_semantic","semantic_sequence","","","","",""
"","","","","","html-keyboard-response","79","284485","0.0-79.0","E6096E19A1D3423385C6491332946926","019cf865-ec43-7c55-88bc-ea9c9095498a","019cf855-66fc-7d76-a612-8313d2c5c123","","null","<div style=""background-color: white; width: 100vw; height: 100vh;""></div>","null","","","","","","","","",""
"","","","","","html-keyboard-response","80","289487","0.0-80.0","E6096E19A1D3423385C6491332946926","019cf865-ec43-7c55-88bc-ea9c9095498a","019cf855-66fc-7d76-a612-8313d2c5c123","","null","
                <div class=""stimulus-container"">
                    <img src=""images/schematic_sequence/interview_scheme/interview_scheme_1.png"" class=""exp-image"">
                    <div class=""question-area""></div> 
                </div>","null","","","","","","","","",""
"","","","","","html-button-response","81","290234","0.0-81.0","E6096E19A1D3423385C6491332946926","019cf865-ec43-7c55-88bc-ea9c9095498a","019cf855-66fc-7d76-a612-8313d2c5c123","","745","
                <div class=""stimulus-container"">
                    <img src=""images/schematic_sequence/interview_scheme/interview_scheme_1.png"" class=""exp-image"">
                    <div class=""question-area"">
                        <p style=""font-size: 20px; font-weight: bold; margin: 0;"">Is there a person in this image?</p>
                    </div>
                </div>","1","main_experiment_trial","1","interview_scheme","schematic_sequence","","","","",""
"","","","","","html-keyboard-response","82","295243","0.0-82.0","E6096E19A1D3423385C6491332946926","019cf865-ec43-7c55-88bc-ea9c9095498a","019cf855-66fc-7d76-a612-8313d2c5c123","","null","
                <div class=""stimulus-container"">
                    <img src=""images/schematic_sequence/interview_scheme/interview_scheme_2.png"" class=""exp-image"">
                    <div class=""question-area""></div> 
                </div>","null","","","","","","","","",""
"","","","","","html-button-response","83","295962","0.0-83.0","E6096E19A1D3423385C6491332946926","019cf865-ec43-7c55-88bc-ea9c9095498a","019cf855-66fc-7d76-a612-8313d2c5c123","","718","
                <div class=""stimulus-container"">
                    <img src=""images/schematic_sequence/interview_scheme/interview_scheme_2.png"" class=""exp-image"">
                    <div class=""question-area"">
                        <p style=""font-size: 20px; font-weight: bold; margin: 0;"">Is there a person in this image?</p>
                    </div>
                </div>","0","main_experiment_trial","2","interview_scheme","schematic_sequence","","","","",""
"","","","","","html-keyboard-response","84","300973","0.0-84.0","E6096E19A1D3423385C6491332946926","019cf865-ec43-7c55-88bc-ea9c9095498a","019cf855-66fc-7d76-a612-8313d2c5c123","","null","
                <div class=""stimulus-container"">
                    <img src=""images/schematic_sequence/interview_scheme/interview_scheme_3.png"" class=""exp-image"">
                    <div class=""question-area""></div> 
                </div>","null","","","","","","","","",""
"","","","","","html-button-response","85","301541","0.0-85.0","E6096E19A1D3423385C6491332946926","019cf865-ec43-7c55-88bc-ea9c9095498a","019cf855-66fc-7d76-a612-8313d2c5c123","","568","
                <div class=""stimulus-container"">
                    <img src=""images/schematic_sequence/interview_scheme/interview_scheme_3.png"" class=""exp-image"">
                    <div class=""question-area"">
                        <p style=""font-size: 20px; font-weight: bold; margin: 0;"">Is there a person in this image?</p>
                    </div>
                </div>","1","main_experiment_trial","3","interview_scheme","schematic_sequence","","","","",""
"","","","","","html-keyboard-response","86","306545","0.0-86.0","E6096E19A1D3423385C6491332946926","019cf865-ec43-7c55-88bc-ea9c9095498a","019cf855-66fc-7d76-a612-8313d2c5c123","","null","
                <div class=""stimulus-container"">
                    <img src=""images/schematic_sequence/interview_scheme/interview_scheme_4.png"" class=""exp-image"">
                    <div class=""question-area""></div> 
                </div>","null","","","","","","","","",""
"","","","","","html-button-response","87","306895","0.0-87.0","E6096E19A1D3423385C6491332946926","019cf865-ec43-7c55-88bc-ea9c9095498a","019cf855-66fc-7d76-a612-8313d2c5c123","","349","
                <div class=""stimulus-container"">
                    <img src=""images/schematic_sequence/interview_scheme/interview_scheme_4.png"" class=""exp-image"">
                    <div class=""question-area"">
                        <p style=""font-size: 20px; font-weight: bold; margin: 0;"">Is there a person in this image?</p>
                    </div>
                </div>","1","main_experiment_trial","4","interview_scheme","schematic_sequence","","","","",""
"","","","","","html-keyboard-response","88","311900","0.0-88.0","E6096E19A1D3423385C6491332946926","019cf865-ec43-7c55-88bc-ea9c9095498a","019cf855-66fc-7d76-a612-8313d2c5c123","","null","
                <div class=""stimulus-container"">
                    <img src=""images/schematic_sequence/interview_scheme/interview_scheme_5.png"" class=""exp-image"">
                    <div class=""question-area""></div> 
                </div>","null","","","","","","","","",""
"","","","","","html-button-response","89","312204","0.0-89.0","E6096E19A1D3423385C6491332946926","019cf865-ec43-7c55-88bc-ea9c9095498a","019cf855-66fc-7d76-a612-8313d2c5c123","","303","
                <div class=""stimulus-container"">
                    <img src=""images/schematic_sequence/interview_scheme/interview_scheme_5.png"" class=""exp-image"">
                    <div class=""question-area"">
                        <p style=""font-size: 20px; font-weight: bold; margin: 0;"">Is there a person in this image?</p>
                    </div>
                </div>","0","main_experiment_trial","5","interview_scheme","schematic_sequence","","","","",""
"","","","","","html-keyboard-response","90","317220","0.0-90.0","E6096E19A1D3423385C6491332946926","019cf865-ec43-7c55-88bc-ea9c9095498a","019cf855-66fc-7d76-a612-8313d2c5c123","","null","
                <div class=""stimulus-container"">
                    <img src=""images/schematic_sequence/interview_scheme/interview_scheme_6.png"" class=""exp-image"">
                    <div class=""question-area""></div> 
                </div>","null","","","","","","","","",""
"","","","","","html-button-response","91","317633","0.0-91.0","E6096E19A1D3423385C6491332946926","019cf865-ec43-7c55-88bc-ea9c9095498a","019cf855-66fc-7d76-a612-8313d2c5c123","","413","
                <div class=""stimulus-container"">
                    <img src=""images/schematic_sequence/interview_scheme/interview_scheme_6.png"" class=""exp-image"">
                    <div class=""question-area"">
                        <p style=""font-size: 20px; font-weight: bold; margin: 0;"">Is there a person in this image?</p>
                    </div>
                </div>","0","main_experiment_trial","6","interview_scheme","schematic_sequence","","","","",""
"","","","","","html-keyboard-response","92","322638","0.0-92.0","E6096E19A1D3423385C6491332946926","019cf865-ec43-7c55-88bc-ea9c9095498a","019cf855-66fc-7d76-a612-8313d2c5c123","","null","
                <div class=""stimulus-container"">
                    <img src=""images/schematic_sequence/interview_scheme/interview_scheme_7.png"" class=""exp-image"">
                    <div class=""question-area""></div> 
                </div>","null","","","","","","","","",""
"","","","","","html-button-response","93","323089","0.0-93.0","E6096E19A1D3423385C6491332946926","019cf865-ec43-7c55-88bc-ea9c9095498a","019cf855-66fc-7d76-a612-8313d2c5c123","","450","
                <div class=""stimulus-container"">
                    <img src=""images/schematic_sequence/interview_scheme/interview_scheme_7.png"" class=""exp-image"">
                    <div class=""question-area"">
                        <p style=""font-size: 20px; font-weight: bold; margin: 0;"">Is there a person in this image?</p>
                    </div>
                </div>","0","main_experiment_trial","7","interview_scheme","schematic_sequence","","","","",""
"","","","","","html-keyboard-response","94","328094","0.0-94.0","E6096E19A1D3423385C6491332946926","019cf865-ec43-7c55-88bc-ea9c9095498a","019cf855-66fc-7d76-a612-8313d2c5c123","","null","
                <div class=""stimulus-container"">
                    <img src=""images/schematic_sequence/interview_scheme/interview_scheme_8.png"" class=""exp-image"">
                    <div class=""question-area""></div> 
                </div>","null","","","","","","","","",""
"","","","","","html-button-response","95","328510","0.0-95.0","E6096E19A1D3423385C6491332946926","019cf865-ec43-7c55-88bc-ea9c9095498a","019cf855-66fc-7d76-a612-8313d2c5c123","","416","
                <div class=""stimulus-container"">
                    <img src=""images/schematic_sequence/interview_scheme/interview_scheme_8.png"" class=""exp-image"">
                    <div class=""question-area"">
                        <p style=""font-size: 20px; font-weight: bold; margin: 0;"">Is there a person in this image?</p>
                    </div>
                </div>","0","main_experiment_trial","8","interview_scheme","schematic_sequence","","","","",""
"","","","","","html-keyboard-response","96","333524","0.0-96.0","E6096E19A1D3423385C6491332946926","019cf865-ec43-7c55-88bc-ea9c9095498a","019cf855-66fc-7d76-a612-8313d2c5c123","","null","
                <div class=""stimulus-container"">
                    <img src=""images/schematic_sequence/interview_scheme/interview_scheme_9.png"" class=""exp-image"">
                    <div class=""question-area""></div> 
                </div>","null","","","","","","","","",""
"","","","","","html-button-response","97","333853","0.0-97.0","E6096E19A1D3423385C6491332946926","019cf865-ec43-7c55-88bc-ea9c9095498a","019cf855-66fc-7d76-a612-8313d2c5c123","","328","
                <div class=""stimulus-container"">
                    <img src=""images/schematic_sequence/interview_scheme/interview_scheme_9.png"" class=""exp-image"">
                    <div class=""question-area"">
                        <p style=""font-size: 20px; font-weight: bold; margin: 0;"">Is there a person in this image?</p>
                    </div>
                </div>","0","main_experiment_trial","9","interview_scheme","schematic_sequence","","","","",""
"","","","","","html-keyboard-response","98","338864","0.0-98.0","E6096E19A1D3423385C6491332946926","019cf865-ec43-7c55-88bc-ea9c9095498a","019cf855-66fc-7d76-a612-8313d2c5c123","","null","
                <div class=""stimulus-container"">
                    <img src=""images/schematic_sequence/interview_scheme/interview_scheme_ten.png"" class=""exp-image"">
                    <div class=""question-area""></div> 
                </div>","null","","","","","","","","",""
"","","","","","html-button-response","99","339193","0.0-99.0","E6096E19A1D3423385C6491332946926","019cf865-ec43-7c55-88bc-ea9c9095498a","019cf855-66fc-7d76-a612-8313d2c5c123","","328","
                <div class=""stimulus-container"">
                    <img src=""images/schematic_sequence/interview_scheme/interview_scheme_ten.png"" class=""exp-image"">
                    <div class=""question-area"">
                        <p style=""font-size: 20px; font-weight: bold; margin: 0;"">Is there a person in this image?</p>
                    </div>
                </div>","0","main_experiment_trial","ten","interview_scheme","schematic_sequence","","","","",""
"","","","","","html-keyboard-response","100","340199","0.0-100.0","E6096E19A1D3423385C6491332946926","019cf865-ec43-7c55-88bc-ea9c9095498a","019cf855-66fc-7d76-a612-8313d2c5c123","","null","<div style=""background-color: white; width: 100vw; height: 100vh;""></div>","null","","","","","","","","",""
"","","","","","html-keyboard-response","101","345203","0.0-101.0","E6096E19A1D3423385C6491332946926","019cf865-ec43-7c55-88bc-ea9c9095498a","019cf855-66fc-7d76-a612-8313d2c5c123","","null","
                <div class=""stimulus-container"">
                    <img src=""images/schematic_sequence/supermarket_scheme/supermarket_scheme_1.png"" class=""exp-image"">
                    <div class=""question-area""></div> 
                </div>","null","","","","","","","","",""
"","","","","","html-button-response","102","345735","0.0-102.0","E6096E19A1D3423385C6491332946926","019cf865-ec43-7c55-88bc-ea9c9095498a","019cf855-66fc-7d76-a612-8313d2c5c123","","532","
                <div class=""stimulus-container"">
                    <img src=""images/schematic_sequence/supermarket_scheme/supermarket_scheme_1.png"" class=""exp-image"">
                    <div class=""question-area"">
                        <p style=""font-size: 20px; font-weight: bold; margin: 0;"">Is there a person in this image?</p>
                    </div>
                </div>","1","main_experiment_trial","1","supermarket_scheme","schematic_sequence","","","","",""
"","","","","","html-keyboard-response","103","350750","0.0-103.0","E6096E19A1D3423385C6491332946926","019cf865-ec43-7c55-88bc-ea9c9095498a","019cf855-66fc-7d76-a612-8313d2c5c123","","null","
                <div class=""stimulus-container"">
                    <img src=""images/schematic_sequence/supermarket_scheme/supermarket_scheme_2.png"" class=""exp-image"">
                    <div class=""question-area""></div> 
                </div>","null","","","","","","","","",""
"","","","","","html-button-response","104","351107","0.0-104.0","E6096E19A1D3423385C6491332946926","019cf865-ec43-7c55-88bc-ea9c9095498a","019cf855-66fc-7d76-a612-8313d2c5c123","","356","
                <div class=""stimulus-container"">
                    <img src=""images/schematic_sequence/supermarket_scheme/supermarket_scheme_2.png"" class=""exp-image"">
                    <div class=""question-area"">
                        <p style=""font-size: 20px; font-weight: bold; margin: 0;"">Is there a person in this image?</p>
                    </div>
                </div>","1","main_experiment_trial","2","supermarket_scheme","schematic_sequence","","","","",""
"","","","","","html-keyboard-response","105","356108","0.0-105.0","E6096E19A1D3423385C6491332946926","019cf865-ec43-7c55-88bc-ea9c9095498a","019cf855-66fc-7d76-a612-8313d2c5c123","","null","
                <div class=""stimulus-container"">
                    <img src=""images/schematic_sequence/supermarket_scheme/supermarket_scheme_3.png"" class=""exp-image"">
                    <div class=""question-area""></div> 
                </div>","null","","","","","","","","",""
"","","","","","html-button-response","106","356410","0.0-106.0","E6096E19A1D3423385C6491332946926","019cf865-ec43-7c55-88bc-ea9c9095498a","019cf855-66fc-7d76-a612-8313d2c5c123","","301","
                <div class=""stimulus-container"">
                    <img src=""images/schematic_sequence/supermarket_scheme/supermarket_scheme_3.png"" class=""exp-image"">
                    <div class=""question-area"">
                        <p style=""font-size: 20px; font-weight: bold; margin: 0;"">Is there a person in this image?</p>
                    </div>
                </div>","1","main_experiment_trial","3","supermarket_scheme","schematic_sequence","","","","",""
"","","","","","html-keyboard-response","107","361420","0.0-107.0","E6096E19A1D3423385C6491332946926","019cf865-ec43-7c55-88bc-ea9c9095498a","019cf855-66fc-7d76-a612-8313d2c5c123","","null","
                <div class=""stimulus-container"">
                    <img src=""images/schematic_sequence/supermarket_scheme/supermarket_scheme_4.png"" class=""exp-image"">
                    <div class=""question-area""></div> 
                </div>","null","","","","","","","","",""
"","","","","","html-button-response","108","361743","0.0-108.0","E6096E19A1D3423385C6491332946926","019cf865-ec43-7c55-88bc-ea9c9095498a","019cf855-66fc-7d76-a612-8313d2c5c123","","322","
                <div class=""stimulus-container"">
                    <img src=""images/schematic_sequence/supermarket_scheme/supermarket_scheme_4.png"" class=""exp-image"">
                    <div class=""question-area"">
                        <p style=""font-size: 20px; font-weight: bold; margin: 0;"">Is there a person in this image?</p>
                    </div>
                </div>","0","main_experiment_trial","4","supermarket_scheme","schematic_sequence","","","","",""
"","","","","","html-keyboard-response","109","366755","0.0-109.0","E6096E19A1D3423385C6491332946926","019cf865-ec43-7c55-88bc-ea9c9095498a","019cf855-66fc-7d76-a612-8313d2c5c123","","null","
                <div class=""stimulus-container"">
                    <img src=""images/schematic_sequence/supermarket_scheme/supermarket_scheme_5.png"" class=""exp-image"">
                    <div class=""question-area""></div> 
                </div>","null","","","","","","","","",""
"","","","","","html-button-response","110","367423","0.0-110.0","E6096E19A1D3423385C6491332946926","019cf865-ec43-7c55-88bc-ea9c9095498a","019cf855-66fc-7d76-a612-8313d2c5c123","","667","
                <div class=""stimulus-container"">
                    <img src=""images/schematic_sequence/supermarket_scheme/supermarket_scheme_5.png"" class=""exp-image"">
                    <div class=""question-area"">
                        <p style=""font-size: 20px; font-weight: bold; margin: 0;"">Is there a person in this image?</p>
                    </div>
                </div>","1","main_experiment_trial","5","supermarket_scheme","schematic_sequence","","","","",""
"","","","","","html-keyboard-response","111","372429","0.0-111.0","E6096E19A1D3423385C6491332946926","019cf865-ec43-7c55-88bc-ea9c9095498a","019cf855-66fc-7d76-a612-8313d2c5c123","","null","
                <div class=""stimulus-container"">
                    <img src=""images/schematic_sequence/supermarket_scheme/supermarket_scheme_6.png"" class=""exp-image"">
                    <div class=""question-area""></div> 
                </div>","null","","","","","","","","",""
"","","","","","html-button-response","112","372793","0.0-112.0","E6096E19A1D3423385C6491332946926","019cf865-ec43-7c55-88bc-ea9c9095498a","019cf855-66fc-7d76-a612-8313d2c5c123","","364","
                <div class=""stimulus-container"">
                    <img src=""images/schematic_sequence/supermarket_scheme/supermarket_scheme_6.png"" class=""exp-image"">
                    <div class=""question-area"">
                        <p style=""font-size: 20px; font-weight: bold; margin: 0;"">Is there a person in this image?</p>
                    </div>
                </div>","0","main_experiment_trial","6","supermarket_scheme","schematic_sequence","","","","",""
"","","","","","html-keyboard-response","113","377809","0.0-113.0","E6096E19A1D3423385C6491332946926","019cf865-ec43-7c55-88bc-ea9c9095498a","019cf855-66fc-7d76-a612-8313d2c5c123","","null","
                <div class=""stimulus-container"">
                    <img src=""images/schematic_sequence/supermarket_scheme/supermarket_scheme_7.png"" class=""exp-image"">
                    <div class=""question-area""></div> 
                </div>","null","","","","","","","","",""
"","","","","","html-button-response","114","378137","0.0-114.0","E6096E19A1D3423385C6491332946926","019cf865-ec43-7c55-88bc-ea9c9095498a","019cf855-66fc-7d76-a612-8313d2c5c123","","328","
                <div class=""stimulus-container"">
                    <img src=""images/schematic_sequence/supermarket_scheme/supermarket_scheme_7.png"" class=""exp-image"">
                    <div class=""question-area"">
                        <p style=""font-size: 20px; font-weight: bold; margin: 0;"">Is there a person in this image?</p>
                    </div>
                </div>","0","main_experiment_trial","7","supermarket_scheme","schematic_sequence","","","","",""
"","","","","","html-keyboard-response","115","383152","0.0-115.0","E6096E19A1D3423385C6491332946926","019cf865-ec43-7c55-88bc-ea9c9095498a","019cf855-66fc-7d76-a612-8313d2c5c123","","null","
                <div class=""stimulus-container"">
                    <img src=""images/schematic_sequence/supermarket_scheme/supermarket_scheme_8.png"" class=""exp-image"">
                    <div class=""question-area""></div> 
                </div>","null","","","","","","","","",""
"","","","","","html-button-response","116","383500","0.0-116.0","E6096E19A1D3423385C6491332946926","019cf865-ec43-7c55-88bc-ea9c9095498a","019cf855-66fc-7d76-a612-8313d2c5c123","","346","
                <div class=""stimulus-container"">
                    <img src=""images/schematic_sequence/supermarket_scheme/supermarket_scheme_8.png"" class=""exp-image"">
                    <div class=""question-area"">
                        <p style=""font-size: 20px; font-weight: bold; margin: 0;"">Is there a person in this image?</p>
                    </div>
                </div>","0","main_experiment_trial","8","supermarket_scheme","schematic_sequence","","","","",""
"","","","","","html-keyboard-response","117","388510","0.0-117.0","E6096E19A1D3423385C6491332946926","019cf865-ec43-7c55-88bc-ea9c9095498a","019cf855-66fc-7d76-a612-8313d2c5c123","","null","
                <div class=""stimulus-container"">
                    <img src=""images/schematic_sequence/supermarket_scheme/supermarket_scheme_9.png"" class=""exp-image"">
                    <div class=""question-area""></div> 
                </div>","null","","","","","","","","",""
"","","","","","html-button-response","118","388900","0.0-118.0","E6096E19A1D3423385C6491332946926","019cf865-ec43-7c55-88bc-ea9c9095498a","019cf855-66fc-7d76-a612-8313d2c5c123","","389","
                <div class=""stimulus-container"">
                    <img src=""images/schematic_sequence/supermarket_scheme/supermarket_scheme_9.png"" class=""exp-image"">
                    <div class=""question-area"">
                        <p style=""font-size: 20px; font-weight: bold; margin: 0;"">Is there a person in this image?</p>
                    </div>
                </div>","0","main_experiment_trial","9","supermarket_scheme","schematic_sequence","","","","",""
"","","","","","html-keyboard-response","119","393905","0.0-119.0","E6096E19A1D3423385C6491332946926","019cf865-ec43-7c55-88bc-ea9c9095498a","019cf855-66fc-7d76-a612-8313d2c5c123","","null","
                <div class=""stimulus-container"">
                    <img src=""images/schematic_sequence/supermarket_scheme/supermarket_scheme_ten.png"" class=""exp-image"">
                    <div class=""question-area""></div> 
                </div>","null","","","","","","","","",""
"","","","","","html-button-response","120","394445","0.0-120.0","E6096E19A1D3423385C6491332946926","019cf865-ec43-7c55-88bc-ea9c9095498a","019cf855-66fc-7d76-a612-8313d2c5c123","","539","
                <div class=""stimulus-container"">
                    <img src=""images/schematic_sequence/supermarket_scheme/supermarket_scheme_ten.png"" class=""exp-image"">
                    <div class=""question-area"">
                        <p style=""font-size: 20px; font-weight: bold; margin: 0;"">Is there a person in this image?</p>
                    </div>
                </div>","1","main_experiment_trial","ten","supermarket_scheme","schematic_sequence","","","","",""
"","","","","","html-keyboard-response","121","395449","0.0-121.0","E6096E19A1D3423385C6491332946926","019cf865-ec43-7c55-88bc-ea9c9095498a","019cf855-66fc-7d76-a612-8313d2c5c123","","null","<div style=""background-color: white; width: 100vw; height: 100vh;""></div>","null","","","","","","","","",""
"","","","","","html-keyboard-response","122","400452","0.0-122.0","E6096E19A1D3423385C6491332946926","019cf865-ec43-7c55-88bc-ea9c9095498a","019cf855-66fc-7d76-a612-8313d2c5c123","","null","
                <div class=""stimulus-container"">
                    <img src=""images/semantic_sequence/maintaining_a_car_semantic/maintaining_a_car_semantic_1.png"" class=""exp-image"">
                    <div class=""question-area""></div> 
                </div>","null","","","","","","","","",""
"","","","","","html-button-response","123","401471","0.0-123.0","E6096E19A1D3423385C6491332946926","019cf865-ec43-7c55-88bc-ea9c9095498a","019cf855-66fc-7d76-a612-8313d2c5c123","","1018","
                <div class=""stimulus-container"">
                    <img src=""images/semantic_sequence/maintaining_a_car_semantic/maintaining_a_car_semantic_1.png"" class=""exp-image"">
                    <div class=""question-area"">
                        <p style=""font-size: 20px; font-weight: bold; margin: 0;"">Is there a person in this image?</p>
                    </div>
                </div>","0","main_experiment_trial","1","maintaining_a_car_semantic","semantic_sequence","","","","",""
"","","","","","html-keyboard-response","124","406484","0.0-124.0","E6096E19A1D3423385C6491332946926","019cf865-ec43-7c55-88bc-ea9c9095498a","019cf855-66fc-7d76-a612-8313d2c5c123","","null","
                <div class=""stimulus-container"">
                    <img src=""images/semantic_sequence/maintaining_a_car_semantic/maintaining_a_car_semantic_2.png"" class=""exp-image"">
                    <div class=""question-area""></div> 
                </div>","null","","","","","","","","",""
"","","","","","html-button-response","125","406897","0.0-125.0","E6096E19A1D3423385C6491332946926","019cf865-ec43-7c55-88bc-ea9c9095498a","019cf855-66fc-7d76-a612-8313d2c5c123","","412","
                <div class=""stimulus-container"">
                    <img src=""images/semantic_sequence/maintaining_a_car_semantic/maintaining_a_car_semantic_2.png"" class=""exp-image"">
                    <div class=""question-area"">
                        <p style=""font-size: 20px; font-weight: bold; margin: 0;"">Is there a person in this image?</p>
                    </div>
                </div>","0","main_experiment_trial","2","maintaining_a_car_semantic","semantic_sequence","","","","",""
"","","","","","html-keyboard-response","126","411906","0.0-126.0","E6096E19A1D3423385C6491332946926","019cf865-ec43-7c55-88bc-ea9c9095498a","019cf855-66fc-7d76-a612-8313d2c5c123","","null","
                <div class=""stimulus-container"">
                    <img src=""images/semantic_sequence/maintaining_a_car_semantic/maintaining_a_car_semantic_3.png"" class=""exp-image"">
                    <div class=""question-area""></div> 
                </div>","null","","","","","","","","",""
"","","","","","html-button-response","127","412384","0.0-127.0","E6096E19A1D3423385C6491332946926","019cf865-ec43-7c55-88bc-ea9c9095498a","019cf855-66fc-7d76-a612-8313d2c5c123","","478","
                <div class=""stimulus-container"">
                    <img src=""images/semantic_sequence/maintaining_a_car_semantic/maintaining_a_car_semantic_3.png"" class=""exp-image"">
                    <div class=""question-area"">
                        <p style=""font-size: 20px; font-weight: bold; margin: 0;"">Is there a person in this image?</p>
                    </div>
                </div>","0","main_experiment_trial","3","maintaining_a_car_semantic","semantic_sequence","","","","",""
"","","","","","html-keyboard-response","128","417397","0.0-128.0","E6096E19A1D3423385C6491332946926","019cf865-ec43-7c55-88bc-ea9c9095498a","019cf855-66fc-7d76-a612-8313d2c5c123","","null","
                <div class=""stimulus-container"">
                    <img src=""images/semantic_sequence/maintaining_a_car_semantic/maintaining_a_car_semantic_4.png"" class=""exp-image"">
                    <div class=""question-area""></div> 
                </div>","null","","","","","","","","",""
"","","","","","html-button-response","129","418091","0.0-129.0","E6096E19A1D3423385C6491332946926","019cf865-ec43-7c55-88bc-ea9c9095498a","019cf855-66fc-7d76-a612-8313d2c5c123","","693","
                <div class=""stimulus-container"">
                    <img src=""images/semantic_sequence/maintaining_a_car_semantic/maintaining_a_car_semantic_4.png"" class=""exp-image"">
                    <div class=""question-area"">
                        <p style=""font-size: 20px; font-weight: bold; margin: 0;"">Is there a person in this image?</p>
                    </div>
                </div>","0","main_experiment_trial","4","maintaining_a_car_semantic","semantic_sequence","","","","",""
"","","","","","html-keyboard-response","130","423103","0.0-130.0","E6096E19A1D3423385C6491332946926","019cf865-ec43-7c55-88bc-ea9c9095498a","019cf855-66fc-7d76-a612-8313d2c5c123","","null","
                <div class=""stimulus-container"">
                    <img src=""images/semantic_sequence/maintaining_a_car_semantic/maintaining_a_car_semantic_5.png"" class=""exp-image"">
                    <div class=""question-area""></div> 
                </div>","null","","","","","","","","",""
"","","","","","html-button-response","131","423531","0.0-131.0","E6096E19A1D3423385C6491332946926","019cf865-ec43-7c55-88bc-ea9c9095498a","019cf855-66fc-7d76-a612-8313d2c5c123","","428","
                <div class=""stimulus-container"">
                    <img src=""images/semantic_sequence/maintaining_a_car_semantic/maintaining_a_car_semantic_5.png"" class=""exp-image"">
                    <div class=""question-area"">
                        <p style=""font-size: 20px; font-weight: bold; margin: 0;"">Is there a person in this image?</p>
                    </div>
                </div>","0","main_experiment_trial","5","maintaining_a_car_semantic","semantic_sequence","","","","",""
"","","","","","html-keyboard-response","132","428542","0.0-132.0","E6096E19A1D3423385C6491332946926","019cf865-ec43-7c55-88bc-ea9c9095498a","019cf855-66fc-7d76-a612-8313d2c5c123","","null","
                <div class=""stimulus-container"">
                    <img src=""images/semantic_sequence/maintaining_a_car_semantic/maintaining_a_car_semantic_6.png"" class=""exp-image"">
                    <div class=""question-area""></div> 
                </div>","null","","","","","","","","",""
"","","","","","html-button-response","133","429331","0.0-133.0","E6096E19A1D3423385C6491332946926","019cf865-ec43-7c55-88bc-ea9c9095498a","019cf855-66fc-7d76-a612-8313d2c5c123","","789","
                <div class=""stimulus-container"">
                    <img src=""images/semantic_sequence/maintaining_a_car_semantic/maintaining_a_car_semantic_6.png"" class=""exp-image"">
                    <div class=""question-area"">
                        <p style=""font-size: 20px; font-weight: bold; margin: 0;"">Is there a person in this image?</p>
                    </div>
                </div>","0","main_experiment_trial","6","maintaining_a_car_semantic","semantic_sequence","","","","",""
"","","","","","html-keyboard-response","134","434339","0.0-134.0","E6096E19A1D3423385C6491332946926","019cf865-ec43-7c55-88bc-ea9c9095498a","019cf855-66fc-7d76-a612-8313d2c5c123","","null","
                <div class=""stimulus-container"">
                    <img src=""images/semantic_sequence/maintaining_a_car_semantic/maintaining_a_car_semantic_7.png"" class=""exp-image"">
                    <div class=""question-area""></div> 
                </div>","null","","","","","","","","",""
"","","","","","html-button-response","135","437271","0.0-135.0","E6096E19A1D3423385C6491332946926","019cf865-ec43-7c55-88bc-ea9c9095498a","019cf855-66fc-7d76-a612-8313d2c5c123","","2931","
                <div class=""stimulus-container"">
                    <img src=""images/semantic_sequence/maintaining_a_car_semantic/maintaining_a_car_semantic_7.png"" class=""exp-image"">
                    <div class=""question-area"">
                        <p style=""font-size: 20px; font-weight: bold; margin: 0;"">Is there a person in this image?</p>
                    </div>
                </div>","0","main_experiment_trial","7","maintaining_a_car_semantic","semantic_sequence","","","","",""
"","","","","","html-keyboard-response","136","442277","0.0-136.0","E6096E19A1D3423385C6491332946926","019cf865-ec43-7c55-88bc-ea9c9095498a","019cf855-66fc-7d76-a612-8313d2c5c123","","null","
                <div class=""stimulus-container"">
                    <img src=""images/semantic_sequence/maintaining_a_car_semantic/maintaining_a_car_semantic_8.png"" class=""exp-image"">
                    <div class=""question-area""></div> 
                </div>","null","","","","","","","","",""
"","","","","","html-button-response","137","442935","0.0-137.0","E6096E19A1D3423385C6491332946926","019cf865-ec43-7c55-88bc-ea9c9095498a","019cf855-66fc-7d76-a612-8313d2c5c123","","657","
                <div class=""stimulus-container"">
                    <img src=""images/semantic_sequence/maintaining_a_car_semantic/maintaining_a_car_semantic_8.png"" class=""exp-image"">
                    <div class=""question-area"">
                        <p style=""font-size: 20px; font-weight: bold; margin: 0;"">Is there a person in this image?</p>
                    </div>
                </div>","0","main_experiment_trial","8","maintaining_a_car_semantic","semantic_sequence","","","","",""
"","","","","","html-keyboard-response","138","447940","0.0-138.0","E6096E19A1D3423385C6491332946926","019cf865-ec43-7c55-88bc-ea9c9095498a","019cf855-66fc-7d76-a612-8313d2c5c123","","null","
                <div class=""stimulus-container"">
                    <img src=""images/semantic_sequence/maintaining_a_car_semantic/maintaining_a_car_semantic_9.png"" class=""exp-image"">
                    <div class=""question-area""></div> 
                </div>","null","","","","","","","","",""
"","","","","","html-button-response","139","448909","0.0-139.0","E6096E19A1D3423385C6491332946926","019cf865-ec43-7c55-88bc-ea9c9095498a","019cf855-66fc-7d76-a612-8313d2c5c123","","969","
                <div class=""stimulus-container"">
                    <img src=""images/semantic_sequence/maintaining_a_car_semantic/maintaining_a_car_semantic_9.png"" class=""exp-image"">
                    <div class=""question-area"">
                        <p style=""font-size: 20px; font-weight: bold; margin: 0;"">Is there a person in this image?</p>
                    </div>
                </div>","0","main_experiment_trial","9","maintaining_a_car_semantic","semantic_sequence","","","","",""
"","","","","","html-keyboard-response","140","453911","0.0-140.0","E6096E19A1D3423385C6491332946926","019cf865-ec43-7c55-88bc-ea9c9095498a","019cf855-66fc-7d76-a612-8313d2c5c123","","null","
                <div class=""stimulus-container"">
                    <img src=""images/semantic_sequence/maintaining_a_car_semantic/maintaining_a_car_semantic_ten.png"" class=""exp-image"">
                    <div class=""question-area""></div> 
                </div>","null","","","","","","","","",""
"","","","","","html-button-response","141","454502","0.0-141.0","E6096E19A1D3423385C6491332946926","019cf865-ec43-7c55-88bc-ea9c9095498a","019cf855-66fc-7d76-a612-8313d2c5c123","","589","
                <div class=""stimulus-container"">
                    <img src=""images/semantic_sequence/maintaining_a_car_semantic/maintaining_a_car_semantic_ten.png"" class=""exp-image"">
                    <div class=""question-area"">
                        <p style=""font-size: 20px; font-weight: bold; margin: 0;"">Is there a person in this image?</p>
                    </div>
                </div>","0","main_experiment_trial","ten","maintaining_a_car_semantic","semantic_sequence","","","","",""
"","","","","","html-keyboard-response","142","455509","0.0-142.0","E6096E19A1D3423385C6491332946926","019cf865-ec43-7c55-88bc-ea9c9095498a","019cf855-66fc-7d76-a612-8313d2c5c123","","null","<div style=""background-color: white; width: 100vw; height: 100vh;""></div>","null","","","","","","","","",""
"","","","","","html-keyboard-response","143","460522","0.0-143.0","E6096E19A1D3423385C6491332946926","019cf865-ec43-7c55-88bc-ea9c9095498a","019cf855-66fc-7d76-a612-8313d2c5c123","","null","
                <div class=""stimulus-container"">
                    <img src=""images/semantic_sequence/physical_activity_semantic/physical_activity_semantic_1.png"" class=""exp-image"">
                    <div class=""question-area""></div> 
                </div>","null","","","","","","","","",""
"","","","","","html-button-response","144","460951","0.0-144.0","E6096E19A1D3423385C6491332946926","019cf865-ec43-7c55-88bc-ea9c9095498a","019cf855-66fc-7d76-a612-8313d2c5c123","","427","
                <div class=""stimulus-container"">
                    <img src=""images/semantic_sequence/physical_activity_semantic/physical_activity_semantic_1.png"" class=""exp-image"">
                    <div class=""question-area"">
                        <p style=""font-size: 20px; font-weight: bold; margin: 0;"">Is there a person in this image?</p>
                    </div>
                </div>","0","main_experiment_trial","1","physical_activity_semantic","semantic_sequence","","","","",""
"","","","","","html-keyboard-response","145","465958","0.0-145.0","E6096E19A1D3423385C6491332946926","019cf865-ec43-7c55-88bc-ea9c9095498a","019cf855-66fc-7d76-a612-8313d2c5c123","","null","
                <div class=""stimulus-container"">
                    <img src=""images/semantic_sequence/physical_activity_semantic/physical_activity_semantic_2.png"" class=""exp-image"">
                    <div class=""question-area""></div> 
                </div>","null","","","","","","","","",""
"","","","","","html-button-response","146","466587","0.0-146.0","E6096E19A1D3423385C6491332946926","019cf865-ec43-7c55-88bc-ea9c9095498a","019cf855-66fc-7d76-a612-8313d2c5c123","","629","
                <div class=""stimulus-container"">
                    <img src=""images/semantic_sequence/physical_activity_semantic/physical_activity_semantic_2.png"" class=""exp-image"">
                    <div class=""question-area"">
                        <p style=""font-size: 20px; font-weight: bold; margin: 0;"">Is there a person in this image?</p>
                    </div>
                </div>","0","main_experiment_trial","2","physical_activity_semantic","semantic_sequence","","","","",""
"","","","","","html-keyboard-response","147","471598","0.0-147.0","E6096E19A1D3423385C6491332946926","019cf865-ec43-7c55-88bc-ea9c9095498a","019cf855-66fc-7d76-a612-8313d2c5c123","","null","
                <div class=""stimulus-container"">
                    <img src=""images/semantic_sequence/physical_activity_semantic/physical_activity_semantic_3.png"" class=""exp-image"">
                    <div class=""question-area""></div> 
                </div>","null","","","","","","","","",""
"","","","","","html-button-response","148","471989","0.0-148.0","E6096E19A1D3423385C6491332946926","019cf865-ec43-7c55-88bc-ea9c9095498a","019cf855-66fc-7d76-a612-8313d2c5c123","","390","
                <div class=""stimulus-container"">
                    <img src=""images/semantic_sequence/physical_activity_semantic/physical_activity_semantic_3.png"" class=""exp-image"">
                    <div class=""question-area"">
                        <p style=""font-size: 20px; font-weight: bold; margin: 0;"">Is there a person in this image?</p>
                    </div>
                </div>","0","main_experiment_trial","3","physical_activity_semantic","semantic_sequence","","","","",""
"","","","","","html-keyboard-response","149","476991","0.0-149.0","E6096E19A1D3423385C6491332946926","019cf865-ec43-7c55-88bc-ea9c9095498a","019cf855-66fc-7d76-a612-8313d2c5c123","","null","
                <div class=""stimulus-container"">
                    <img src=""images/semantic_sequence/physical_activity_semantic/physical_activity_semantic_4.png"" class=""exp-image"">
                    <div class=""question-area""></div> 
                </div>","null","","","","","","","","",""
"","","","","","html-button-response","150","477339","0.0-150.0","E6096E19A1D3423385C6491332946926","019cf865-ec43-7c55-88bc-ea9c9095498a","019cf855-66fc-7d76-a612-8313d2c5c123","","347","
                <div class=""stimulus-container"">
                    <img src=""images/semantic_sequence/physical_activity_semantic/physical_activity_semantic_4.png"" class=""exp-image"">
                    <div class=""question-area"">
                        <p style=""font-size: 20px; font-weight: bold; margin: 0;"">Is there a person in this image?</p>
                    </div>
                </div>","0","main_experiment_trial","4","physical_activity_semantic","semantic_sequence","","","","",""
"","","","","","html-keyboard-response","151","482343","0.0-151.0","E6096E19A1D3423385C6491332946926","019cf865-ec43-7c55-88bc-ea9c9095498a","019cf855-66fc-7d76-a612-8313d2c5c123","","null","
                <div class=""stimulus-container"">
                    <img src=""images/semantic_sequence/physical_activity_semantic/physical_activity_semantic_5.png"" class=""exp-image"">
                    <div class=""question-area""></div> 
                </div>","null","","","","","","","","",""
"","","","","","html-button-response","152","482839","0.0-152.0","E6096E19A1D3423385C6491332946926","019cf865-ec43-7c55-88bc-ea9c9095498a","019cf855-66fc-7d76-a612-8313d2c5c123","","495","
                <div class=""stimulus-container"">
                    <img src=""images/semantic_sequence/physical_activity_semantic/physical_activity_semantic_5.png"" class=""exp-image"">
                    <div class=""question-area"">
                        <p style=""font-size: 20px; font-weight: bold; margin: 0;"">Is there a person in this image?</p>
                    </div>
                </div>","0","main_experiment_trial","5","physical_activity_semantic","semantic_sequence","","","","",""
"","","","","","html-keyboard-response","153","487852","0.0-153.0","E6096E19A1D3423385C6491332946926","019cf865-ec43-7c55-88bc-ea9c9095498a","019cf855-66fc-7d76-a612-8313d2c5c123","","null","
                <div class=""stimulus-container"">
                    <img src=""images/semantic_sequence/physical_activity_semantic/physical_activity_semantic_6.png"" class=""exp-image"">
                    <div class=""question-area""></div> 
                </div>","null","","","","","","","","",""
"","","","","","html-button-response","154","489399","0.0-154.0","E6096E19A1D3423385C6491332946926","019cf865-ec43-7c55-88bc-ea9c9095498a","019cf855-66fc-7d76-a612-8313d2c5c123","","1546","
                <div class=""stimulus-container"">
                    <img src=""images/semantic_sequence/physical_activity_semantic/physical_activity_semantic_6.png"" class=""exp-image"">
                    <div class=""question-area"">
                        <p style=""font-size: 20px; font-weight: bold; margin: 0;"">Is there a person in this image?</p>
                    </div>
                </div>","0","main_experiment_trial","6","physical_activity_semantic","semantic_sequence","","","","",""
"","","","","","html-keyboard-response","155","494410","0.0-155.0","E6096E19A1D3423385C6491332946926","019cf865-ec43-7c55-88bc-ea9c9095498a","019cf855-66fc-7d76-a612-8313d2c5c123","","null","
                <div class=""stimulus-container"">
                    <img src=""images/semantic_sequence/physical_activity_semantic/physical_activity_semantic_7.png"" class=""exp-image"">
                    <div class=""question-area""></div> 
                </div>","null","","","","","","","","",""
"","","","","","html-button-response","156","495306","0.0-156.0","E6096E19A1D3423385C6491332946926","019cf865-ec43-7c55-88bc-ea9c9095498a","019cf855-66fc-7d76-a612-8313d2c5c123","","895","
                <div class=""stimulus-container"">
                    <img src=""images/semantic_sequence/physical_activity_semantic/physical_activity_semantic_7.png"" class=""exp-image"">
                    <div class=""question-area"">
                        <p style=""font-size: 20px; font-weight: bold; margin: 0;"">Is there a person in this image?</p>
                    </div>
                </div>","0","main_experiment_trial","7","physical_activity_semantic","semantic_sequence","","","","",""
"","","","","","html-keyboard-response","157","500320","0.0-157.0","E6096E19A1D3423385C6491332946926","019cf865-ec43-7c55-88bc-ea9c9095498a","019cf855-66fc-7d76-a612-8313d2c5c123","","null","
                <div class=""stimulus-container"">
                    <img src=""images/semantic_sequence/physical_activity_semantic/physical_activity_semantic_8.png"" class=""exp-image"">
                    <div class=""question-area""></div> 
                </div>","null","","","","","","","","",""
"","","","","","html-button-response","158","500906","0.0-158.0","E6096E19A1D3423385C6491332946926","019cf865-ec43-7c55-88bc-ea9c9095498a","019cf855-66fc-7d76-a612-8313d2c5c123","","585","
                <div class=""stimulus-container"">
                    <img src=""images/semantic_sequence/physical_activity_semantic/physical_activity_semantic_8.png"" class=""exp-image"">
                    <div class=""question-area"">
                        <p style=""font-size: 20px; font-weight: bold; margin: 0;"">Is there a person in this image?</p>
                    </div>
                </div>","0","main_experiment_trial","8","physical_activity_semantic","semantic_sequence","","","","",""
"","","","","","html-keyboard-response","159","505909","0.0-159.0","E6096E19A1D3423385C6491332946926","019cf865-ec43-7c55-88bc-ea9c9095498a","019cf855-66fc-7d76-a612-8313d2c5c123","","null","
                <div class=""stimulus-container"">
                    <img src=""images/semantic_sequence/physical_activity_semantic/physical_activity_semantic_9.png"" class=""exp-image"">
                    <div class=""question-area""></div> 
                </div>","null","","","","","","","","",""
"","","","","","html-button-response","160","506314","0.0-160.0","E6096E19A1D3423385C6491332946926","019cf865-ec43-7c55-88bc-ea9c9095498a","019cf855-66fc-7d76-a612-8313d2c5c123","","405","
                <div class=""stimulus-container"">
                    <img src=""images/semantic_sequence/physical_activity_semantic/physical_activity_semantic_9.png"" class=""exp-image"">
                    <div class=""question-area"">
                        <p style=""font-size: 20px; font-weight: bold; margin: 0;"">Is there a person in this image?</p>
                    </div>
                </div>","0","main_experiment_trial","9","physical_activity_semantic","semantic_sequence","","","","",""
"","","","","","html-keyboard-response","161","511323","0.0-161.0","E6096E19A1D3423385C6491332946926","019cf865-ec43-7c55-88bc-ea9c9095498a","019cf855-66fc-7d76-a612-8313d2c5c123","","null","
                <div class=""stimulus-container"">
                    <img src=""images/semantic_sequence/physical_activity_semantic/physical_activity_semantic_ten.png"" class=""exp-image"">
                    <div class=""question-area""></div> 
                </div>","null","","","","","","","","",""
"","","","","","html-button-response","162","511919","0.0-162.0","E6096E19A1D3423385C6491332946926","019cf865-ec43-7c55-88bc-ea9c9095498a","019cf855-66fc-7d76-a612-8313d2c5c123","","596","
                <div class=""stimulus-container"">
                    <img src=""images/semantic_sequence/physical_activity_semantic/physical_activity_semantic_ten.png"" class=""exp-image"">
                    <div class=""question-area"">
                        <p style=""font-size: 20px; font-weight: bold; margin: 0;"">Is there a person in this image?</p>
                    </div>
                </div>","0","main_experiment_trial","ten","physical_activity_semantic","semantic_sequence","","","","",""
"","","","","","html-keyboard-response","163","512923","0.0-163.0","E6096E19A1D3423385C6491332946926","019cf865-ec43-7c55-88bc-ea9c9095498a","019cf855-66fc-7d76-a612-8313d2c5c123","","null","<div style=""background-color: white; width: 100vw; height: 100vh;""></div>","null","","","","","","","","",""
"","","","","","html-keyboard-response","164","517924","0.0-164.0","E6096E19A1D3423385C6491332946926","019cf865-ec43-7c55-88bc-ea9c9095498a","019cf855-66fc-7d76-a612-8313d2c5c123","","null","
                <div class=""stimulus-container"">
                    <img src=""images/schematic_sequence/hotel_scheme/hotel_scheme_1.png"" class=""exp-image"">
                    <div class=""question-area""></div> 
                </div>","null","","","","","","","","",""
"","","","","","html-button-response","165","518511","0.0-165.0","E6096E19A1D3423385C6491332946926","019cf865-ec43-7c55-88bc-ea9c9095498a","019cf855-66fc-7d76-a612-8313d2c5c123","","586","
                <div class=""stimulus-container"">
                    <img src=""images/schematic_sequence/hotel_scheme/hotel_scheme_1.png"" class=""exp-image"">
                    <div class=""question-area"">
                        <p style=""font-size: 20px; font-weight: bold; margin: 0;"">Is there a person in this image?</p>
                    </div>
                </div>","1","main_experiment_trial","1","hotel_scheme","schematic_sequence","","","","",""
"","","","","","html-keyboard-response","166","523520","0.0-166.0","E6096E19A1D3423385C6491332946926","019cf865-ec43-7c55-88bc-ea9c9095498a","019cf855-66fc-7d76-a612-8313d2c5c123","","null","
                <div class=""stimulus-container"">
                    <img src=""images/schematic_sequence/hotel_scheme/hotel_scheme_2.png"" class=""exp-image"">
                    <div class=""question-area""></div> 
                </div>","null","","","","","","","","",""
"","","","","","html-button-response","167","523880","0.0-167.0","E6096E19A1D3423385C6491332946926","019cf865-ec43-7c55-88bc-ea9c9095498a","019cf855-66fc-7d76-a612-8313d2c5c123","","360","
                <div class=""stimulus-container"">
                    <img src=""images/schematic_sequence/hotel_scheme/hotel_scheme_2.png"" class=""exp-image"">
                    <div class=""question-area"">
                        <p style=""font-size: 20px; font-weight: bold; margin: 0;"">Is there a person in this image?</p>
                    </div>
                </div>","0","main_experiment_trial","2","hotel_scheme","schematic_sequence","","","","",""
"","","","","","html-keyboard-response","168","528889","0.0-168.0","E6096E19A1D3423385C6491332946926","019cf865-ec43-7c55-88bc-ea9c9095498a","019cf855-66fc-7d76-a612-8313d2c5c123","","null","
                <div class=""stimulus-container"">
                    <img src=""images/schematic_sequence/hotel_scheme/hotel_scheme_3.png"" class=""exp-image"">
                    <div class=""question-area""></div> 
                </div>","null","","","","","","","","",""
"","","","","","html-button-response","169","529300","0.0-169.0","E6096E19A1D3423385C6491332946926","019cf865-ec43-7c55-88bc-ea9c9095498a","019cf855-66fc-7d76-a612-8313d2c5c123","","410","
                <div class=""stimulus-container"">
                    <img src=""images/schematic_sequence/hotel_scheme/hotel_scheme_3.png"" class=""exp-image"">
                    <div class=""question-area"">
                        <p style=""font-size: 20px; font-weight: bold; margin: 0;"">Is there a person in this image?</p>
                    </div>
                </div>","0","main_experiment_trial","3","hotel_scheme","schematic_sequence","","","","",""
"","","","","","html-keyboard-response","170","534303","0.0-170.0","E6096E19A1D3423385C6491332946926","019cf865-ec43-7c55-88bc-ea9c9095498a","019cf855-66fc-7d76-a612-8313d2c5c123","","null","
                <div class=""stimulus-container"">
                    <img src=""images/schematic_sequence/hotel_scheme/hotel_scheme_4.png"" class=""exp-image"">
                    <div class=""question-area""></div> 
                </div>","null","","","","","","","","",""
"","","","","","html-button-response","171","534840","0.0-171.0","E6096E19A1D3423385C6491332946926","019cf865-ec43-7c55-88bc-ea9c9095498a","019cf855-66fc-7d76-a612-8313d2c5c123","","536","
                <div class=""stimulus-container"">
                    <img src=""images/schematic_sequence/hotel_scheme/hotel_scheme_4.png"" class=""exp-image"">
                    <div class=""question-area"">
                        <p style=""font-size: 20px; font-weight: bold; margin: 0;"">Is there a person in this image?</p>
                    </div>
                </div>","1","main_experiment_trial","4","hotel_scheme","schematic_sequence","","","","",""
"","","","","","html-keyboard-response","172","539844","0.0-172.0","E6096E19A1D3423385C6491332946926","019cf865-ec43-7c55-88bc-ea9c9095498a","019cf855-66fc-7d76-a612-8313d2c5c123","","null","
                <div class=""stimulus-container"">
                    <img src=""images/schematic_sequence/hotel_scheme/hotel_scheme_5.png"" class=""exp-image"">
                    <div class=""question-area""></div> 
                </div>","null","","","","","","","","",""
"","","","","","html-button-response","173","540222","0.0-173.0","E6096E19A1D3423385C6491332946926","019cf865-ec43-7c55-88bc-ea9c9095498a","019cf855-66fc-7d76-a612-8313d2c5c123","","377","
                <div class=""stimulus-container"">
                    <img src=""images/schematic_sequence/hotel_scheme/hotel_scheme_5.png"" class=""exp-image"">
                    <div class=""question-area"">
                        <p style=""font-size: 20px; font-weight: bold; margin: 0;"">Is there a person in this image?</p>
                    </div>
                </div>","0","main_experiment_trial","5","hotel_scheme","schematic_sequence","","","","",""
"","","","","","html-keyboard-response","174","545223","0.0-174.0","E6096E19A1D3423385C6491332946926","019cf865-ec43-7c55-88bc-ea9c9095498a","019cf855-66fc-7d76-a612-8313d2c5c123","","null","
                <div class=""stimulus-container"">
                    <img src=""images/schematic_sequence/hotel_scheme/hotel_scheme_6.png"" class=""exp-image"">
                    <div class=""question-area""></div> 
                </div>","null","","","","","","","","",""
"","","","","","html-button-response","175","545856","0.0-175.0","E6096E19A1D3423385C6491332946926","019cf865-ec43-7c55-88bc-ea9c9095498a","019cf855-66fc-7d76-a612-8313d2c5c123","","632","
                <div class=""stimulus-container"">
                    <img src=""images/schematic_sequence/hotel_scheme/hotel_scheme_6.png"" class=""exp-image"">
                    <div class=""question-area"">
                        <p style=""font-size: 20px; font-weight: bold; margin: 0;"">Is there a person in this image?</p>
                    </div>
                </div>","0","main_experiment_trial","6","hotel_scheme","schematic_sequence","","","","",""
"","","","","","html-keyboard-response","176","550861","0.0-176.0","E6096E19A1D3423385C6491332946926","019cf865-ec43-7c55-88bc-ea9c9095498a","019cf855-66fc-7d76-a612-8313d2c5c123","","null","
                <div class=""stimulus-container"">
                    <img src=""images/schematic_sequence/hotel_scheme/hotel_scheme_7.png"" class=""exp-image"">
                    <div class=""question-area""></div> 
                </div>","null","","","","","","","","",""
"","","","","","html-button-response","177","552850","0.0-177.0","E6096E19A1D3423385C6491332946926","019cf865-ec43-7c55-88bc-ea9c9095498a","019cf855-66fc-7d76-a612-8313d2c5c123","","1988","
                <div class=""stimulus-container"">
                    <img src=""images/schematic_sequence/hotel_scheme/hotel_scheme_7.png"" class=""exp-image"">
                    <div class=""question-area"">
                        <p style=""font-size: 20px; font-weight: bold; margin: 0;"">Is there a person in this image?</p>
                    </div>
                </div>","0","main_experiment_trial","7","hotel_scheme","schematic_sequence","","","","",""
"","","","","","html-keyboard-response","178","557865","0.0-178.0","E6096E19A1D3423385C6491332946926","019cf865-ec43-7c55-88bc-ea9c9095498a","019cf855-66fc-7d76-a612-8313d2c5c123","","null","
                <div class=""stimulus-container"">
                    <img src=""images/schematic_sequence/hotel_scheme/hotel_scheme_8.png"" class=""exp-image"">
                    <div class=""question-area""></div> 
                </div>","null","","","","","","","","",""
"","","","","","html-button-response","179","558725","0.0-179.0","E6096E19A1D3423385C6491332946926","019cf865-ec43-7c55-88bc-ea9c9095498a","019cf855-66fc-7d76-a612-8313d2c5c123","","860","
                <div class=""stimulus-container"">
                    <img src=""images/schematic_sequence/hotel_scheme/hotel_scheme_8.png"" class=""exp-image"">
                    <div class=""question-area"">
                        <p style=""font-size: 20px; font-weight: bold; margin: 0;"">Is there a person in this image?</p>
                    </div>
