"success","timeout","failed_images","failed_audio","failed_video","trial_type","trial_index","time_elapsed","internal_node_id","subject_id","study_id","session_id","view_history","rt","stimulus","response","task","image_index","folder","sequence_type","presentation_order","valuable_image_index","reward_type","distance_from_x","target_X","chosen_image_index","is_x_plus_dist","correct_choice"
"true","false","[]","[]","[]","preload","0","25891","0.0-0.0","A80B1E4F00AF48FCBF78C54040FAD5C7","019cfc5f-d324-7b09-b37e-8c18c1ad7d4a","019cfc28-2143-7934-89cc-ce6402563331","","","","","","","","","","","","","","","",""
"","","","","","instructions","1","28475","0.0-1.0","A80B1E4F00AF48FCBF78C54040FAD5C7","019cfc5f-d324-7b09-b37e-8c18c1ad7d4a","019cfc28-2143-7934-89cc-ce6402563331","[{""page_index"":0,""viewing_time"":2580}]","2583","","","","","","","","","","","","","",""
"","","","","","instructions","2","33152","0.0-2.0","A80B1E4F00AF48FCBF78C54040FAD5C7","019cfc5f-d324-7b09-b37e-8c18c1ad7d4a","019cfc28-2143-7934-89cc-ce6402563331","[{""page_index"":0,""viewing_time"":4676}]","4677","","","","","","","","","","","","","",""
"true","","","","","fullscreen","3","36436","0.0-3.0","A80B1E4F00AF48FCBF78C54040FAD5C7","019cfc5f-d324-7b09-b37e-8c18c1ad7d4a","019cfc28-2143-7934-89cc-ce6402563331","","2129","","","","","","","","","","","","","",""
"","","","","","instructions","4","42358","0.0-4.0","A80B1E4F00AF48FCBF78C54040FAD5C7","019cfc5f-d324-7b09-b37e-8c18c1ad7d4a","019cfc28-2143-7934-89cc-ce6402563331","[{""page_index"":0,""viewing_time"":5920}]","5921","","","","","","","","","","","","","",""
"","","","","","instructions","5","46280","0.0-5.0","A80B1E4F00AF48FCBF78C54040FAD5C7","019cfc5f-d324-7b09-b37e-8c18c1ad7d4a","019cfc28-2143-7934-89cc-ce6402563331","[{""page_index"":0,""viewing_time"":3921}]","3921","","","","","","","","","","","","","",""
"","","","","","html-keyboard-response","6","50292","0.0-6.0","A80B1E4F00AF48FCBF78C54040FAD5C7","019cfc5f-d324-7b09-b37e-8c18c1ad7d4a","019cfc28-2143-7934-89cc-ce6402563331","","null","
                <div class=""stimulus-container"">
                    <img src=""images/instructions/movie_1.png"" class=""exp-image"">
                    <div class=""question-area""></div> 
                </div>","null","","","","","","","","","","","",""
"","","","","","html-button-response","7","53009","0.0-7.0","A80B1E4F00AF48FCBF78C54040FAD5C7","019cfc5f-d324-7b09-b37e-8c18c1ad7d4a","019cfc28-2143-7934-89cc-ce6402563331","","2711","
                <div class=""stimulus-container"">
                    <img src=""images/instructions/movie_1.png"" class=""exp-image"">
                    <div class=""question-area"">
                        <p style=""font-size: 20px; font-weight: bold; margin: 0;"">Was there a person in this image?</p>
                    </div>
                </div>","0","example_question","1","","","","","","","","","",""
"","","","","","html-keyboard-response","8","57021","0.0-8.0","A80B1E4F00AF48FCBF78C54040FAD5C7","019cfc5f-d324-7b09-b37e-8c18c1ad7d4a","019cfc28-2143-7934-89cc-ce6402563331","","null","
                <div class=""stimulus-container"">
                    <img src=""images/instructions/movie_2.png"" class=""exp-image"">
                    <div class=""question-area""></div> 
                </div>","null","","","","","","","","","","","",""
"","","","","","html-button-response","9","58845","0.0-9.0","A80B1E4F00AF48FCBF78C54040FAD5C7","019cfc5f-d324-7b09-b37e-8c18c1ad7d4a","019cfc28-2143-7934-89cc-ce6402563331","","1823","
                <div class=""stimulus-container"">
                    <img src=""images/instructions/movie_2.png"" class=""exp-image"">
                    <div class=""question-area"">
                        <p style=""font-size: 20px; font-weight: bold; margin: 0;"">Was there a person in this image?</p>
                    </div>
                </div>","0","example_question","2","","","","","","","","","",""
"","","","","","html-keyboard-response","10","62852","0.0-10.0","A80B1E4F00AF48FCBF78C54040FAD5C7","019cfc5f-d324-7b09-b37e-8c18c1ad7d4a","019cfc28-2143-7934-89cc-ce6402563331","","null","
                <div class=""stimulus-container"">
                    <img src=""images/instructions/movie_3.png"" class=""exp-image"">
                    <div class=""question-area""></div> 
                </div>","null","","","","","","","","","","","",""
"","","","","","html-button-response","11","64729","0.0-11.0","A80B1E4F00AF48FCBF78C54040FAD5C7","019cfc5f-d324-7b09-b37e-8c18c1ad7d4a","019cfc28-2143-7934-89cc-ce6402563331","","1876","
                <div class=""stimulus-container"">
                    <img src=""images/instructions/movie_3.png"" class=""exp-image"">
                    <div class=""question-area"">
                        <p style=""font-size: 20px; font-weight: bold; margin: 0;"">Was there a person in this image?</p>
                    </div>
                </div>","0","example_question","3","","","","","","","","","",""
"","","","","","html-keyboard-response","12","68737","0.0-12.0","A80B1E4F00AF48FCBF78C54040FAD5C7","019cfc5f-d324-7b09-b37e-8c18c1ad7d4a","019cfc28-2143-7934-89cc-ce6402563331","","null","
                <div class=""stimulus-container"">
                    <img src=""images/instructions/movie_4.png"" class=""exp-image"">
                    <div class=""question-area""></div> 
                </div>","null","","","","","","","","","","","",""
"","","","","","html-button-response","13","70381","0.0-13.0","A80B1E4F00AF48FCBF78C54040FAD5C7","019cfc5f-d324-7b09-b37e-8c18c1ad7d4a","019cfc28-2143-7934-89cc-ce6402563331","","1643","
                <div class=""stimulus-container"">
                    <img src=""images/instructions/movie_4.png"" class=""exp-image"">
                    <div class=""question-area"">
                        <p style=""font-size: 20px; font-weight: bold; margin: 0;"">Was there a person in this image?</p>
                    </div>
                </div>","0","example_question","4","","","","","","","","","",""
"","","","","","instructions","14","72760","0.0-14.0","A80B1E4F00AF48FCBF78C54040FAD5C7","019cfc5f-d324-7b09-b37e-8c18c1ad7d4a","019cfc28-2143-7934-89cc-ce6402563331","[{""page_index"":0,""viewing_time"":2378}]","2378","","","","","","","","","","","","","",""
"","","","","","instructions","15","96088","0.0-15.0","A80B1E4F00AF48FCBF78C54040FAD5C7","019cfc5f-d324-7b09-b37e-8c18c1ad7d4a","019cfc28-2143-7934-89cc-ce6402563331","[{""page_index"":0,""viewing_time"":23327}]","23327","","","","","","","","","","","","","",""
"","","","","","html-keyboard-response","16","101096","0.0-16.0","A80B1E4F00AF48FCBF78C54040FAD5C7","019cfc5f-d324-7b09-b37e-8c18c1ad7d4a","019cfc28-2143-7934-89cc-ce6402563331","","null","<div style=""background-color: white; width: 100vw; height: 100vh;""></div>","null","","","","","","","","","","","",""
"","","","","","html-keyboard-response","17","106097","0.0-17.0","A80B1E4F00AF48FCBF78C54040FAD5C7","019cfc5f-d324-7b09-b37e-8c18c1ad7d4a","019cfc28-2143-7934-89cc-ce6402563331","","null","
                <div class=""stimulus-container"">
                    <img src=""images/semantic_sequence/market_semantic/market_semantic_1.png"" class=""exp-image"">
                    <div class=""question-area""></div> 
                </div>","null","","","","","","","","","","","",""
"","","","","","html-button-response","18","108641","0.0-18.0","A80B1E4F00AF48FCBF78C54040FAD5C7","019cfc5f-d324-7b09-b37e-8c18c1ad7d4a","019cfc28-2143-7934-89cc-ce6402563331","","2542","
                <div class=""stimulus-container"">
                    <img src=""images/semantic_sequence/market_semantic/market_semantic_1.png"" class=""exp-image"">
                    <div class=""question-area"">
                        <p style=""font-size: 20px; font-weight: bold; margin: 0;"">Is there a person in this image?</p>
                    </div>
                </div>","1","main_experiment_trial","1","market_semantic","semantic_sequence","chronological","","","","","","",""
"","","","","","html-keyboard-response","19","113656","0.0-19.0","A80B1E4F00AF48FCBF78C54040FAD5C7","019cfc5f-d324-7b09-b37e-8c18c1ad7d4a","019cfc28-2143-7934-89cc-ce6402563331","","null","
                <div class=""stimulus-container"">
                    <img src=""images/semantic_sequence/market_semantic/market_semantic_2.png"" class=""exp-image"">
                    <div class=""question-area""></div> 
                </div>","null","","","","","","","","","","","",""
"","","","","","html-button-response","20","116677","0.0-20.0","A80B1E4F00AF48FCBF78C54040FAD5C7","019cfc5f-d324-7b09-b37e-8c18c1ad7d4a","019cfc28-2143-7934-89cc-ce6402563331","","null","
                <div class=""stimulus-container"">
                    <img src=""images/semantic_sequence/market_semantic/market_semantic_2.png"" class=""exp-image"">
                    <div class=""question-area"">
                        <p style=""font-size: 20px; font-weight: bold; margin: 0;"">Is there a person in this image?</p>
                    </div>
                </div>","null","main_experiment_trial","2","market_semantic","semantic_sequence","chronological","","","","","","",""
"","","","","","html-keyboard-response","21","121694","0.0-21.0","A80B1E4F00AF48FCBF78C54040FAD5C7","019cfc5f-d324-7b09-b37e-8c18c1ad7d4a","019cfc28-2143-7934-89cc-ce6402563331","","null","
                <div class=""stimulus-container"">
                    <img src=""images/semantic_sequence/market_semantic/market_semantic_3.png"" class=""exp-image"">
                    <div class=""question-area""></div> 
                </div>","null","","","","","","","","","","","",""
"","","","","","html-button-response","22","123820","0.0-22.0","A80B1E4F00AF48FCBF78C54040FAD5C7","019cfc5f-d324-7b09-b37e-8c18c1ad7d4a","019cfc28-2143-7934-89cc-ce6402563331","","2125","
                <div class=""stimulus-container"">
                    <img src=""images/semantic_sequence/market_semantic/market_semantic_3.png"" class=""exp-image"">
                    <div class=""question-area"">
                        <p style=""font-size: 20px; font-weight: bold; margin: 0;"">Is there a person in this image?</p>
                    </div>
                </div>","1","main_experiment_trial","3","market_semantic","semantic_sequence","chronological","","","","","","",""
"","","","","","html-keyboard-response","23","128828","0.0-23.0","A80B1E4F00AF48FCBF78C54040FAD5C7","019cfc5f-d324-7b09-b37e-8c18c1ad7d4a","019cfc28-2143-7934-89cc-ce6402563331","","null","
                <div class=""stimulus-container"">
                    <img src=""images/semantic_sequence/market_semantic/market_semantic_4.png"" class=""exp-image"">
                    <div class=""question-area""></div> 
                </div>","null","","","","","","","","","","","",""
"","","","","","html-button-response","24","130900","0.0-24.0","A80B1E4F00AF48FCBF78C54040FAD5C7","019cfc5f-d324-7b09-b37e-8c18c1ad7d4a","019cfc28-2143-7934-89cc-ce6402563331","","2071","
                <div class=""stimulus-container"">
                    <img src=""images/semantic_sequence/market_semantic/market_semantic_4.png"" class=""exp-image"">
                    <div class=""question-area"">
                        <p style=""font-size: 20px; font-weight: bold; margin: 0;"">Is there a person in this image?</p>
                    </div>
                </div>","0","main_experiment_trial","4","market_semantic","semantic_sequence","chronological","","","","","","",""
"","","","","","html-keyboard-response","25","135908","0.0-25.0","A80B1E4F00AF48FCBF78C54040FAD5C7","019cfc5f-d324-7b09-b37e-8c18c1ad7d4a","019cfc28-2143-7934-89cc-ce6402563331","","null","
                <div class=""stimulus-container"">
                    <img src=""images/semantic_sequence/market_semantic/market_semantic_5.png"" class=""exp-image"">
                    <div class=""question-area""></div> 
                </div>","null","","","","","","","","","","","",""
"","","","","","html-button-response","26","137403","0.0-26.0","A80B1E4F00AF48FCBF78C54040FAD5C7","019cfc5f-d324-7b09-b37e-8c18c1ad7d4a","019cfc28-2143-7934-89cc-ce6402563331","","1494","
                <div class=""stimulus-container"">
                    <img src=""images/semantic_sequence/market_semantic/market_semantic_5.png"" class=""exp-image"">
                    <div class=""question-area"">
                        <p style=""font-size: 20px; font-weight: bold; margin: 0;"">Is there a person in this image?</p>
                    </div>
                </div>","1","main_experiment_trial","5","market_semantic","semantic_sequence","chronological","","","","","","",""
"","","","","","html-keyboard-response","27","142406","0.0-27.0","A80B1E4F00AF48FCBF78C54040FAD5C7","019cfc5f-d324-7b09-b37e-8c18c1ad7d4a","019cfc28-2143-7934-89cc-ce6402563331","","null","
                <div class=""stimulus-container"">
                    <img src=""images/semantic_sequence/market_semantic/market_semantic_6.png"" class=""exp-image"">
                    <div class=""question-area""></div> 
                </div>","null","","","","","","","","","","","",""
"","","","","","html-button-response","28","143866","0.0-28.0","A80B1E4F00AF48FCBF78C54040FAD5C7","019cfc5f-d324-7b09-b37e-8c18c1ad7d4a","019cfc28-2143-7934-89cc-ce6402563331","","1458","
                <div class=""stimulus-container"">
                    <img src=""images/semantic_sequence/market_semantic/market_semantic_6.png"" class=""exp-image"">
                    <div class=""question-area"">
                        <p style=""font-size: 20px; font-weight: bold; margin: 0;"">Is there a person in this image?</p>
                    </div>
                </div>","0","main_experiment_trial","6","market_semantic","semantic_sequence","chronological","","","","","","",""
"","","","","","html-keyboard-response","29","148872","0.0-29.0","A80B1E4F00AF48FCBF78C54040FAD5C7","019cfc5f-d324-7b09-b37e-8c18c1ad7d4a","019cfc28-2143-7934-89cc-ce6402563331","","null","
                <div class=""stimulus-container"">
                    <img src=""images/semantic_sequence/market_semantic/market_semantic_7.png"" class=""exp-image"">
                    <div class=""question-area""></div> 
                </div>","null","","","","","","","","","","","",""
"","","","","","html-button-response","30","150983","0.0-30.0","A80B1E4F00AF48FCBF78C54040FAD5C7","019cfc5f-d324-7b09-b37e-8c18c1ad7d4a","019cfc28-2143-7934-89cc-ce6402563331","","2110","
                <div class=""stimulus-container"">
                    <img src=""images/semantic_sequence/market_semantic/market_semantic_7.png"" class=""exp-image"">
                    <div class=""question-area"">
                        <p style=""font-size: 20px; font-weight: bold; margin: 0;"">Is there a person in this image?</p>
                    </div>
                </div>","0","main_experiment_trial","7","market_semantic","semantic_sequence","chronological","","","","","","",""
"","","","","","html-keyboard-response","31","155995","0.0-31.0","A80B1E4F00AF48FCBF78C54040FAD5C7","019cfc5f-d324-7b09-b37e-8c18c1ad7d4a","019cfc28-2143-7934-89cc-ce6402563331","","null","
                <div class=""stimulus-container"">
                    <img src=""images/semantic_sequence/market_semantic/market_semantic_8.png"" class=""exp-image"">
                    <div class=""question-area""></div> 
                </div>","null","","","","","","","","","","","",""
"","","","","","html-button-response","32","157432","0.0-32.0","A80B1E4F00AF48FCBF78C54040FAD5C7","019cfc5f-d324-7b09-b37e-8c18c1ad7d4a","019cfc28-2143-7934-89cc-ce6402563331","","1436","
                <div class=""stimulus-container"">
                    <img src=""images/semantic_sequence/market_semantic/market_semantic_8.png"" class=""exp-image"">
                    <div class=""question-area"">
                        <p style=""font-size: 20px; font-weight: bold; margin: 0;"">Is there a person in this image?</p>
                    </div>
                </div>","1","main_experiment_trial","8","market_semantic","semantic_sequence","chronological","","","","","","",""
"","","","","","html-keyboard-response","33","162436","0.0-33.0","A80B1E4F00AF48FCBF78C54040FAD5C7","019cfc5f-d324-7b09-b37e-8c18c1ad7d4a","019cfc28-2143-7934-89cc-ce6402563331","","null","
                <div class=""stimulus-container"">
                    <img src=""images/semantic_sequence/market_semantic/market_semantic_9.png"" class=""exp-image"">
                    <div class=""question-area""></div> 
                </div>","null","","","","","","","","","","","",""
"","","","","","html-button-response","34","163630","0.0-34.0","A80B1E4F00AF48FCBF78C54040FAD5C7","019cfc5f-d324-7b09-b37e-8c18c1ad7d4a","019cfc28-2143-7934-89cc-ce6402563331","","1193","
                <div class=""stimulus-container"">
                    <img src=""images/semantic_sequence/market_semantic/market_semantic_9.png"" class=""exp-image"">
                    <div class=""question-area"">
                        <p style=""font-size: 20px; font-weight: bold; margin: 0;"">Is there a person in this image?</p>
                    </div>
                </div>","1","main_experiment_trial","9","market_semantic","semantic_sequence","chronological","","","","","","",""
"","","","","","html-keyboard-response","35","168635","0.0-35.0","A80B1E4F00AF48FCBF78C54040FAD5C7","019cfc5f-d324-7b09-b37e-8c18c1ad7d4a","019cfc28-2143-7934-89cc-ce6402563331","","null","
                <div class=""stimulus-container"">
                    <img src=""images/semantic_sequence/market_semantic/market_semantic_ten.png"" class=""exp-image"">
                    <div class=""question-area""></div> 
                </div>","null","","","","","","","","","","","",""
"","","","","","html-button-response","36","171646","0.0-36.0","A80B1E4F00AF48FCBF78C54040FAD5C7","019cfc5f-d324-7b09-b37e-8c18c1ad7d4a","019cfc28-2143-7934-89cc-ce6402563331","","null","
                <div class=""stimulus-container"">
                    <img src=""images/semantic_sequence/market_semantic/market_semantic_ten.png"" class=""exp-image"">
                    <div class=""question-area"">
                        <p style=""font-size: 20px; font-weight: bold; margin: 0;"">Is there a person in this image?</p>
                    </div>
                </div>","null","main_experiment_trial","ten","market_semantic","semantic_sequence","chronological","","","","","","",""
"","","","","","html-keyboard-response","37","176655","0.0-37.0","A80B1E4F00AF48FCBF78C54040FAD5C7","019cfc5f-d324-7b09-b37e-8c18c1ad7d4a","019cfc28-2143-7934-89cc-ce6402563331","","null","<div style=""background-color: white; width: 100vw; height: 100vh;""></div>","null","","","","","","","","","","","",""
"","","","","","html-keyboard-response","38","181668","0.0-38.0","A80B1E4F00AF48FCBF78C54040FAD5C7","019cfc5f-d324-7b09-b37e-8c18c1ad7d4a","019cfc28-2143-7934-89cc-ce6402563331","","null","
                <div class=""stimulus-container"">
                    <img src=""images/schematic_sequence/restaurant_scheme/restaurant_scheme_1.png"" class=""exp-image"">
                    <div class=""question-area""></div> 
                </div>","null","","","","","","","","","","","",""
"","","","","","html-button-response","39","184683","0.0-39.0","A80B1E4F00AF48FCBF78C54040FAD5C7","019cfc5f-d324-7b09-b37e-8c18c1ad7d4a","019cfc28-2143-7934-89cc-ce6402563331","","null","
                <div class=""stimulus-container"">
                    <img src=""images/schematic_sequence/restaurant_scheme/restaurant_scheme_1.png"" class=""exp-image"">
                    <div class=""question-area"">
                        <p style=""font-size: 20px; font-weight: bold; margin: 0;"">Is there a person in this image?</p>
                    </div>
                </div>","null","main_experiment_trial","1","restaurant_scheme","schematic_sequence","chronological","","","","","","",""
"","","","","","html-keyboard-response","40","189696","0.0-40.0","A80B1E4F00AF48FCBF78C54040FAD5C7","019cfc5f-d324-7b09-b37e-8c18c1ad7d4a","019cfc28-2143-7934-89cc-ce6402563331","","null","
                <div class=""stimulus-container"">
                    <img src=""images/schematic_sequence/restaurant_scheme/restaurant_scheme_2.png"" class=""exp-image"">
                    <div class=""question-area""></div> 
                </div>","null","","","","","","","","","","","",""
"","","","","","html-button-response","41","192700","0.0-41.0","A80B1E4F00AF48FCBF78C54040FAD5C7","019cfc5f-d324-7b09-b37e-8c18c1ad7d4a","019cfc28-2143-7934-89cc-ce6402563331","","null","
                <div class=""stimulus-container"">
                    <img src=""images/schematic_sequence/restaurant_scheme/restaurant_scheme_2.png"" class=""exp-image"">
                    <div class=""question-area"">
                        <p style=""font-size: 20px; font-weight: bold; margin: 0;"">Is there a person in this image?</p>
                    </div>
                </div>","null","main_experiment_trial","2","restaurant_scheme","schematic_sequence","chronological","","","","","","",""
"","","","","","html-keyboard-response","42","197702","0.0-42.0","A80B1E4F00AF48FCBF78C54040FAD5C7","019cfc5f-d324-7b09-b37e-8c18c1ad7d4a","019cfc28-2143-7934-89cc-ce6402563331","","null","
                <div class=""stimulus-container"">
                    <img src=""images/schematic_sequence/restaurant_scheme/restaurant_scheme_3.png"" class=""exp-image"">
                    <div class=""question-area""></div> 
                </div>","null","","","","","","","","","","","",""
"","","","","","html-button-response","43","198691","0.0-43.0","A80B1E4F00AF48FCBF78C54040FAD5C7","019cfc5f-d324-7b09-b37e-8c18c1ad7d4a","019cfc28-2143-7934-89cc-ce6402563331","","988","
                <div class=""stimulus-container"">
                    <img src=""images/schematic_sequence/restaurant_scheme/restaurant_scheme_3.png"" class=""exp-image"">
                    <div class=""question-area"">
                        <p style=""font-size: 20px; font-weight: bold; margin: 0;"">Is there a person in this image?</p>
                    </div>
                </div>","1","main_experiment_trial","3","restaurant_scheme","schematic_sequence","chronological","","","","","","",""
"","","","","","html-keyboard-response","44","203705","0.0-44.0","A80B1E4F00AF48FCBF78C54040FAD5C7","019cfc5f-d324-7b09-b37e-8c18c1ad7d4a","019cfc28-2143-7934-89cc-ce6402563331","","null","
                <div class=""stimulus-container"">
                    <img src=""images/schematic_sequence/restaurant_scheme/restaurant_scheme_4.png"" class=""exp-image"">
                    <div class=""question-area""></div> 
                </div>","null","","","","","","","","","","","",""
"","","","","","html-button-response","45","205104","0.0-45.0","A80B1E4F00AF48FCBF78C54040FAD5C7","019cfc5f-d324-7b09-b37e-8c18c1ad7d4a","019cfc28-2143-7934-89cc-ce6402563331","","1397","
                <div class=""stimulus-container"">
                    <img src=""images/schematic_sequence/restaurant_scheme/restaurant_scheme_4.png"" class=""exp-image"">
                    <div class=""question-area"">
                        <p style=""font-size: 20px; font-weight: bold; margin: 0;"">Is there a person in this image?</p>
                    </div>
                </div>","0","main_experiment_trial","4","restaurant_scheme","schematic_sequence","chronological","","","","","","",""
"","","","","","html-keyboard-response","46","210111","0.0-46.0","A80B1E4F00AF48FCBF78C54040FAD5C7","019cfc5f-d324-7b09-b37e-8c18c1ad7d4a","019cfc28-2143-7934-89cc-ce6402563331","","null","
                <div class=""stimulus-container"">
                    <img src=""images/schematic_sequence/restaurant_scheme/restaurant_scheme_5.png"" class=""exp-image"">
                    <div class=""question-area""></div> 
                </div>","null","","","","","","","","","","","",""
"","","","","","html-button-response","47","211155","0.0-47.0","A80B1E4F00AF48FCBF78C54040FAD5C7","019cfc5f-d324-7b09-b37e-8c18c1ad7d4a","019cfc28-2143-7934-89cc-ce6402563331","","1042","
                <div class=""stimulus-container"">
                    <img src=""images/schematic_sequence/restaurant_scheme/restaurant_scheme_5.png"" class=""exp-image"">
                    <div class=""question-area"">
                        <p style=""font-size: 20px; font-weight: bold; margin: 0;"">Is there a person in this image?</p>
                    </div>
                </div>","0","main_experiment_trial","5","restaurant_scheme","schematic_sequence","chronological","","","","","","",""
"","","","","","html-keyboard-response","48","216168","0.0-48.0","A80B1E4F00AF48FCBF78C54040FAD5C7","019cfc5f-d324-7b09-b37e-8c18c1ad7d4a","019cfc28-2143-7934-89cc-ce6402563331","","null","
                <div class=""stimulus-container"">
                    <img src=""images/schematic_sequence/restaurant_scheme/restaurant_scheme_6.png"" class=""exp-image"">
                    <div class=""question-area""></div> 
                </div>","null","","","","","","","","","","","",""
"","","","","","html-button-response","49","217049","0.0-49.0","A80B1E4F00AF48FCBF78C54040FAD5C7","019cfc5f-d324-7b09-b37e-8c18c1ad7d4a","019cfc28-2143-7934-89cc-ce6402563331","","881","
                <div class=""stimulus-container"">
                    <img src=""images/schematic_sequence/restaurant_scheme/restaurant_scheme_6.png"" class=""exp-image"">
                    <div class=""question-area"">
                        <p style=""font-size: 20px; font-weight: bold; margin: 0;"">Is there a person in this image?</p>
                    </div>
                </div>","1","main_experiment_trial","6","restaurant_scheme","schematic_sequence","chronological","","","","","","",""
"","","","","","html-keyboard-response","50","222064","0.0-50.0","A80B1E4F00AF48FCBF78C54040FAD5C7","019cfc5f-d324-7b09-b37e-8c18c1ad7d4a","019cfc28-2143-7934-89cc-ce6402563331","","null","
                <div class=""stimulus-container"">
                    <img src=""images/schematic_sequence/restaurant_scheme/restaurant_scheme_7.png"" class=""exp-image"">
                    <div class=""question-area""></div> 
                </div>","null","","","","","","","","","","","",""
"","","","","","html-button-response","51","223814","0.0-51.0","A80B1E4F00AF48FCBF78C54040FAD5C7","019cfc5f-d324-7b09-b37e-8c18c1ad7d4a","019cfc28-2143-7934-89cc-ce6402563331","","1749","
                <div class=""stimulus-container"">
                    <img src=""images/schematic_sequence/restaurant_scheme/restaurant_scheme_7.png"" class=""exp-image"">
                    <div class=""question-area"">
                        <p style=""font-size: 20px; font-weight: bold; margin: 0;"">Is there a person in this image?</p>
                    </div>
                </div>","1","main_experiment_trial","7","restaurant_scheme","schematic_sequence","chronological","","","","","","",""
"","","","","","html-keyboard-response","52","228826","0.0-52.0","A80B1E4F00AF48FCBF78C54040FAD5C7","019cfc5f-d324-7b09-b37e-8c18c1ad7d4a","019cfc28-2143-7934-89cc-ce6402563331","","null","
                <div class=""stimulus-container"">
                    <img src=""images/schematic_sequence/restaurant_scheme/restaurant_scheme_8.png"" class=""exp-image"">
                    <div class=""question-area""></div> 
                </div>","null","","","","","","","","","","","",""
"","","","","","html-button-response","53","229612","0.0-53.0","A80B1E4F00AF48FCBF78C54040FAD5C7","019cfc5f-d324-7b09-b37e-8c18c1ad7d4a","019cfc28-2143-7934-89cc-ce6402563331","","784","
                <div class=""stimulus-container"">
                    <img src=""images/schematic_sequence/restaurant_scheme/restaurant_scheme_8.png"" class=""exp-image"">
                    <div class=""question-area"">
                        <p style=""font-size: 20px; font-weight: bold; margin: 0;"">Is there a person in this image?</p>
                    </div>
                </div>","1","main_experiment_trial","8","restaurant_scheme","schematic_sequence","chronological","","","","","","",""
"","","","","","html-keyboard-response","54","234622","0.0-54.0","A80B1E4F00AF48FCBF78C54040FAD5C7","019cfc5f-d324-7b09-b37e-8c18c1ad7d4a","019cfc28-2143-7934-89cc-ce6402563331","","null","
                <div class=""stimulus-container"">
                    <img src=""images/schematic_sequence/restaurant_scheme/restaurant_scheme_9.png"" class=""exp-image"">
                    <div class=""question-area""></div> 
                </div>","null","","","","","","","","","","","",""
"","","","","","html-button-response","55","235767","0.0-55.0","A80B1E4F00AF48FCBF78C54040FAD5C7","019cfc5f-d324-7b09-b37e-8c18c1ad7d4a","019cfc28-2143-7934-89cc-ce6402563331","","1143","
                <div class=""stimulus-container"">
                    <img src=""images/schematic_sequence/restaurant_scheme/restaurant_scheme_9.png"" class=""exp-image"">
                    <div class=""question-area"">
                        <p style=""font-size: 20px; font-weight: bold; margin: 0;"">Is there a person in this image?</p>
                    </div>
                </div>","1","main_experiment_trial","9","restaurant_scheme","schematic_sequence","chronological","","","","","","",""
"","","","","","html-keyboard-response","56","240777","0.0-56.0","A80B1E4F00AF48FCBF78C54040FAD5C7","019cfc5f-d324-7b09-b37e-8c18c1ad7d4a","019cfc28-2143-7934-89cc-ce6402563331","","null","
                <div class=""stimulus-container"">
                    <img src=""images/schematic_sequence/restaurant_scheme/restaurant_scheme_ten.png"" class=""exp-image"">
                    <div class=""question-area""></div> 
                </div>","null","","","","","","","","","","","",""
"","","","","","html-button-response","57","242381","0.0-57.0","A80B1E4F00AF48FCBF78C54040FAD5C7","019cfc5f-d324-7b09-b37e-8c18c1ad7d4a","019cfc28-2143-7934-89cc-ce6402563331","","1603","
                <div class=""stimulus-container"">
                    <img src=""images/schematic_sequence/restaurant_scheme/restaurant_scheme_ten.png"" class=""exp-image"">
                    <div class=""question-area"">
                        <p style=""font-size: 20px; font-weight: bold; margin: 0;"">Is there a person in this image?</p>
                    </div>
                </div>","0","main_experiment_trial","ten","restaurant_scheme","schematic_sequence","chronological","","","","","","",""
"","","","","","html-keyboard-response","58","247386","0.0-58.0","A80B1E4F00AF48FCBF78C54040FAD5C7","019cfc5f-d324-7b09-b37e-8c18c1ad7d4a","019cfc28-2143-7934-89cc-ce6402563331","","null","<div style=""background-color: white; width: 100vw; height: 100vh;""></div>","null","","","","","","","","","","","",""
"","","","","","html-keyboard-response","59","252391","0.0-59.0","A80B1E4F00AF48FCBF78C54040FAD5C7","019cfc5f-d324-7b09-b37e-8c18c1ad7d4a","019cfc28-2143-7934-89cc-ce6402563331","","null","
                <div class=""stimulus-container"">
                    <img src=""images/semantic_sequence/cat_care_semantic/cat_care_semantic_1.png"" class=""exp-image"">
                    <div class=""question-area""></div> 
                </div>","null","","","","","","","","","","","",""
"","","","","","html-button-response","60","253812","0.0-60.0","A80B1E4F00AF48FCBF78C54040FAD5C7","019cfc5f-d324-7b09-b37e-8c18c1ad7d4a","019cfc28-2143-7934-89cc-ce6402563331","","1420","
                <div class=""stimulus-container"">
                    <img src=""images/semantic_sequence/cat_care_semantic/cat_care_semantic_1.png"" class=""exp-image"">
                    <div class=""question-area"">
                        <p style=""font-size: 20px; font-weight: bold; margin: 0;"">Is there a person in this image?</p>
                    </div>
                </div>","0","main_experiment_trial","1","cat_care_semantic","semantic_sequence","chronological","","","","","","",""
"","","","","","html-keyboard-response","61","258816","0.0-61.0","A80B1E4F00AF48FCBF78C54040FAD5C7","019cfc5f-d324-7b09-b37e-8c18c1ad7d4a","019cfc28-2143-7934-89cc-ce6402563331","","null","
                <div class=""stimulus-container"">
                    <img src=""images/semantic_sequence/cat_care_semantic/cat_care_semantic_2.png"" class=""exp-image"">
                    <div class=""question-area""></div> 
                </div>","null","","","","","","","","","","","",""
"","","","","","html-button-response","62","259923","0.0-62.0","A80B1E4F00AF48FCBF78C54040FAD5C7","019cfc5f-d324-7b09-b37e-8c18c1ad7d4a","019cfc28-2143-7934-89cc-ce6402563331","","1105","
                <div class=""stimulus-container"">
                    <img src=""images/semantic_sequence/cat_care_semantic/cat_care_semantic_2.png"" class=""exp-image"">
                    <div class=""question-area"">
                        <p style=""font-size: 20px; font-weight: bold; margin: 0;"">Is there a person in this image?</p>
                    </div>
                </div>","1","main_experiment_trial","2","cat_care_semantic","semantic_sequence","chronological","","","","","","",""
"","","","","","html-keyboard-response","63","264936","0.0-63.0","A80B1E4F00AF48FCBF78C54040FAD5C7","019cfc5f-d324-7b09-b37e-8c18c1ad7d4a","019cfc28-2143-7934-89cc-ce6402563331","","null","
                <div class=""stimulus-container"">
                    <img src=""images/semantic_sequence/cat_care_semantic/cat_care_semantic_3.png"" class=""exp-image"">
                    <div class=""question-area""></div> 
                </div>","null","","","","","","","","","","","",""
"","","","","","html-button-response","64","265977","0.0-64.0","A80B1E4F00AF48FCBF78C54040FAD5C7","019cfc5f-d324-7b09-b37e-8c18c1ad7d4a","019cfc28-2143-7934-89cc-ce6402563331","","1039","
                <div class=""stimulus-container"">
                    <img src=""images/semantic_sequence/cat_care_semantic/cat_care_semantic_3.png"" class=""exp-image"">
                    <div class=""question-area"">
                        <p style=""font-size: 20px; font-weight: bold; margin: 0;"">Is there a person in this image?</p>
                    </div>
                </div>","1","main_experiment_trial","3","cat_care_semantic","semantic_sequence","chronological","","","","","","",""
"","","","","","html-keyboard-response","65","270990","0.0-65.0","A80B1E4F00AF48FCBF78C54040FAD5C7","019cfc5f-d324-7b09-b37e-8c18c1ad7d4a","019cfc28-2143-7934-89cc-ce6402563331","","null","
                <div class=""stimulus-container"">
                    <img src=""images/semantic_sequence/cat_care_semantic/cat_care_semantic_4.png"" class=""exp-image"">
                    <div class=""question-area""></div> 
                </div>","null","","","","","","","","","","","",""
"","","","","","html-button-response","66","272336","0.0-66.0","A80B1E4F00AF48FCBF78C54040FAD5C7","019cfc5f-d324-7b09-b37e-8c18c1ad7d4a","019cfc28-2143-7934-89cc-ce6402563331","","1345","
                <div class=""stimulus-container"">
                    <img src=""images/semantic_sequence/cat_care_semantic/cat_care_semantic_4.png"" class=""exp-image"">
                    <div class=""question-area"">
                        <p style=""font-size: 20px; font-weight: bold; margin: 0;"">Is there a person in this image?</p>
                    </div>
                </div>","0","main_experiment_trial","4","cat_care_semantic","semantic_sequence","chronological","","","","","","",""
"","","","","","html-keyboard-response","67","277351","0.0-67.0","A80B1E4F00AF48FCBF78C54040FAD5C7","019cfc5f-d324-7b09-b37e-8c18c1ad7d4a","019cfc28-2143-7934-89cc-ce6402563331","","null","
                <div class=""stimulus-container"">
                    <img src=""images/semantic_sequence/cat_care_semantic/cat_care_semantic_5.png"" class=""exp-image"">
                    <div class=""question-area""></div> 
                </div>","null","","","","","","","","","","","",""
"","","","","","html-button-response","68","278238","0.0-68.0","A80B1E4F00AF48FCBF78C54040FAD5C7","019cfc5f-d324-7b09-b37e-8c18c1ad7d4a","019cfc28-2143-7934-89cc-ce6402563331","","886","
                <div class=""stimulus-container"">
                    <img src=""images/semantic_sequence/cat_care_semantic/cat_care_semantic_5.png"" class=""exp-image"">
                    <div class=""question-area"">
                        <p style=""font-size: 20px; font-weight: bold; margin: 0;"">Is there a person in this image?</p>
                    </div>
                </div>","0","main_experiment_trial","5","cat_care_semantic","semantic_sequence","chronological","","","","","","",""
"","","","","","html-keyboard-response","69","283249","0.0-69.0","A80B1E4F00AF48FCBF78C54040FAD5C7","019cfc5f-d324-7b09-b37e-8c18c1ad7d4a","019cfc28-2143-7934-89cc-ce6402563331","","null","
                <div class=""stimulus-container"">
                    <img src=""images/semantic_sequence/cat_care_semantic/cat_care_semantic_6.png"" class=""exp-image"">
                    <div class=""question-area""></div> 
                </div>","null","","","","","","","","","","","",""
"","","","","","html-button-response","70","284135","0.0-70.0","A80B1E4F00AF48FCBF78C54040FAD5C7","019cfc5f-d324-7b09-b37e-8c18c1ad7d4a","019cfc28-2143-7934-89cc-ce6402563331","","885","
                <div class=""stimulus-container"">
                    <img src=""images/semantic_sequence/cat_care_semantic/cat_care_semantic_6.png"" class=""exp-image"">
                    <div class=""question-area"">
                        <p style=""font-size: 20px; font-weight: bold; margin: 0;"">Is there a person in this image?</p>
                    </div>
                </div>","0","main_experiment_trial","6","cat_care_semantic","semantic_sequence","chronological","","","","","","",""
"","","","","","html-keyboard-response","71","289139","0.0-71.0","A80B1E4F00AF48FCBF78C54040FAD5C7","019cfc5f-d324-7b09-b37e-8c18c1ad7d4a","019cfc28-2143-7934-89cc-ce6402563331","","null","
                <div class=""stimulus-container"">
                    <img src=""images/semantic_sequence/cat_care_semantic/cat_care_semantic_7.png"" class=""exp-image"">
                    <div class=""question-area""></div> 
                </div>","null","","","","","","","","","","","",""
"","","","","","html-button-response","72","289850","0.0-72.0","A80B1E4F00AF48FCBF78C54040FAD5C7","019cfc5f-d324-7b09-b37e-8c18c1ad7d4a","019cfc28-2143-7934-89cc-ce6402563331","","710","
                <div class=""stimulus-container"">
                    <img src=""images/semantic_sequence/cat_care_semantic/cat_care_semantic_7.png"" class=""exp-image"">
                    <div class=""question-area"">
                        <p style=""font-size: 20px; font-weight: bold; margin: 0;"">Is there a person in this image?</p>
                    </div>
                </div>","0","main_experiment_trial","7","cat_care_semantic","semantic_sequence","chronological","","","","","","",""
"","","","","","html-keyboard-response","73","294856","0.0-73.0","A80B1E4F00AF48FCBF78C54040FAD5C7","019cfc5f-d324-7b09-b37e-8c18c1ad7d4a","019cfc28-2143-7934-89cc-ce6402563331","","null","
                <div class=""stimulus-container"">
                    <img src=""images/semantic_sequence/cat_care_semantic/cat_care_semantic_8.png"" class=""exp-image"">
                    <div class=""question-area""></div> 
                </div>","null","","","","","","","","","","","",""
"","","","","","html-button-response","74","297859","0.0-74.0","A80B1E4F00AF48FCBF78C54040FAD5C7","019cfc5f-d324-7b09-b37e-8c18c1ad7d4a","019cfc28-2143-7934-89cc-ce6402563331","","null","
                <div class=""stimulus-container"">
                    <img src=""images/semantic_sequence/cat_care_semantic/cat_care_semantic_8.png"" class=""exp-image"">
                    <div class=""question-area"">
                        <p style=""font-size: 20px; font-weight: bold; margin: 0;"">Is there a person in this image?</p>
                    </div>
                </div>","null","main_experiment_trial","8","cat_care_semantic","semantic_sequence","chronological","","","","","","",""
"","","","","","html-keyboard-response","75","302863","0.0-75.0","A80B1E4F00AF48FCBF78C54040FAD5C7","019cfc5f-d324-7b09-b37e-8c18c1ad7d4a","019cfc28-2143-7934-89cc-ce6402563331","","null","
                <div class=""stimulus-container"">
                    <img src=""images/semantic_sequence/cat_care_semantic/cat_care_semantic_9.png"" class=""exp-image"">
                    <div class=""question-area""></div> 
                </div>","null","","","","","","","","","","","",""
"","","","","","html-button-response","76","304136","0.0-76.0","A80B1E4F00AF48FCBF78C54040FAD5C7","019cfc5f-d324-7b09-b37e-8c18c1ad7d4a","019cfc28-2143-7934-89cc-ce6402563331","","1272","
                <div class=""stimulus-container"">
                    <img src=""images/semantic_sequence/cat_care_semantic/cat_care_semantic_9.png"" class=""exp-image"">
                    <div class=""question-area"">
                        <p style=""font-size: 20px; font-weight: bold; margin: 0;"">Is there a person in this image?</p>
                    </div>
                </div>","0","main_experiment_trial","9","cat_care_semantic","semantic_sequence","chronological","","","","","","",""
"","","","","","html-keyboard-response","77","309152","0.0-77.0","A80B1E4F00AF48FCBF78C54040FAD5C7","019cfc5f-d324-7b09-b37e-8c18c1ad7d4a","019cfc28-2143-7934-89cc-ce6402563331","","null","
                <div class=""stimulus-container"">
                    <img src=""images/semantic_sequence/cat_care_semantic/cat_care_semantic_ten.png"" class=""exp-image"">
                    <div class=""question-area""></div> 
                </div>","null","","","","","","","","","","","",""
"","","","","","html-button-response","78","310416","0.0-78.0","A80B1E4F00AF48FCBF78C54040FAD5C7","019cfc5f-d324-7b09-b37e-8c18c1ad7d4a","019cfc28-2143-7934-89cc-ce6402563331","","1263","
                <div class=""stimulus-container"">
                    <img src=""images/semantic_sequence/cat_care_semantic/cat_care_semantic_ten.png"" class=""exp-image"">
                    <div class=""question-area"">
                        <p style=""font-size: 20px; font-weight: bold; margin: 0;"">Is there a person in this image?</p>
                    </div>
                </div>","1","main_experiment_trial","ten","cat_care_semantic","semantic_sequence","chronological","","","","","","",""
"","","","","","html-keyboard-response","79","315423","0.0-79.0","A80B1E4F00AF48FCBF78C54040FAD5C7","019cfc5f-d324-7b09-b37e-8c18c1ad7d4a","019cfc28-2143-7934-89cc-ce6402563331","","null","<div style=""background-color: white; width: 100vw; height: 100vh;""></div>","null","","","","","","","","","","","",""
"","","","","","html-keyboard-response","80","320426","0.0-80.0","A80B1E4F00AF48FCBF78C54040FAD5C7","019cfc5f-d324-7b09-b37e-8c18c1ad7d4a","019cfc28-2143-7934-89cc-ce6402563331","","null","
                <div class=""stimulus-container"">
                    <img src=""images/schematic_sequence/supermarket_scheme/supermarket_scheme_1.png"" class=""exp-image"">
                    <div class=""question-area""></div> 
                </div>","null","","","","","","","","","","","",""
"","","","","","html-button-response","81","322384","0.0-81.0","A80B1E4F00AF48FCBF78C54040FAD5C7","019cfc5f-d324-7b09-b37e-8c18c1ad7d4a","019cfc28-2143-7934-89cc-ce6402563331","","1957","
                <div class=""stimulus-container"">
                    <img src=""images/schematic_sequence/supermarket_scheme/supermarket_scheme_1.png"" class=""exp-image"">
                    <div class=""question-area"">
                        <p style=""font-size: 20px; font-weight: bold; margin: 0;"">Is there a person in this image?</p>
                    </div>
                </div>","1","main_experiment_trial","1","supermarket_scheme","schematic_sequence","chronological","","","","","","",""
"","","","","","html-keyboard-response","82","327397","0.0-82.0","A80B1E4F00AF48FCBF78C54040FAD5C7","019cfc5f-d324-7b09-b37e-8c18c1ad7d4a","019cfc28-2143-7934-89cc-ce6402563331","","null","
                <div class=""stimulus-container"">
                    <img src=""images/schematic_sequence/supermarket_scheme/supermarket_scheme_2.png"" class=""exp-image"">
                    <div class=""question-area""></div> 
                </div>","null","","","","","","","","","","","",""
"","","","","","html-button-response","83","329884","0.0-83.0","A80B1E4F00AF48FCBF78C54040FAD5C7","019cfc5f-d324-7b09-b37e-8c18c1ad7d4a","019cfc28-2143-7934-89cc-ce6402563331","","2485","
                <div class=""stimulus-container"">
                    <img src=""images/schematic_sequence/supermarket_scheme/supermarket_scheme_2.png"" class=""exp-image"">
                    <div class=""question-area"">
                        <p style=""font-size: 20px; font-weight: bold; margin: 0;"">Is there a person in this image?</p>
                    </div>
                </div>","1","main_experiment_trial","2","supermarket_scheme","schematic_sequence","chronological","","","","","","",""
"","","","","","html-keyboard-response","84","334894","0.0-84.0","A80B1E4F00AF48FCBF78C54040FAD5C7","019cfc5f-d324-7b09-b37e-8c18c1ad7d4a","019cfc28-2143-7934-89cc-ce6402563331","","null","
                <div class=""stimulus-container"">
                    <img src=""images/schematic_sequence/supermarket_scheme/supermarket_scheme_3.png"" class=""exp-image"">
                    <div class=""question-area""></div> 
                </div>","null","","","","","","","","","","","",""
"","","","","","html-button-response","85","336233","0.0-85.0","A80B1E4F00AF48FCBF78C54040FAD5C7","019cfc5f-d324-7b09-b37e-8c18c1ad7d4a","019cfc28-2143-7934-89cc-ce6402563331","","1338","
                <div class=""stimulus-container"">
                    <img src=""images/schematic_sequence/supermarket_scheme/supermarket_scheme_3.png"" class=""exp-image"">
                    <div class=""question-area"">
                        <p style=""font-size: 20px; font-weight: bold; margin: 0;"">Is there a person in this image?</p>
                    </div>
                </div>","1","main_experiment_trial","3","supermarket_scheme","schematic_sequence","chronological","","","","","","",""
"","","","","","html-keyboard-response","86","341244","0.0-86.0","A80B1E4F00AF48FCBF78C54040FAD5C7","019cfc5f-d324-7b09-b37e-8c18c1ad7d4a","019cfc28-2143-7934-89cc-ce6402563331","","null","
                <div class=""stimulus-container"">
                    <img src=""images/schematic_sequence/supermarket_scheme/supermarket_scheme_4.png"" class=""exp-image"">
                    <div class=""question-area""></div> 
                </div>","null","","","","","","","","","","","",""
"","","","","","html-button-response","87","342691","0.0-87.0","A80B1E4F00AF48FCBF78C54040FAD5C7","019cfc5f-d324-7b09-b37e-8c18c1ad7d4a","019cfc28-2143-7934-89cc-ce6402563331","","1445","
                <div class=""stimulus-container"">
                    <img src=""images/schematic_sequence/supermarket_scheme/supermarket_scheme_4.png"" class=""exp-image"">
                    <div class=""question-area"">
                        <p style=""font-size: 20px; font-weight: bold; margin: 0;"">Is there a person in this image?</p>
                    </div>
                </div>","0","main_experiment_trial","4","supermarket_scheme","schematic_sequence","chronological","","","","","","",""
"","","","","","html-keyboard-response","88","347707","0.0-88.0","A80B1E4F00AF48FCBF78C54040FAD5C7","019cfc5f-d324-7b09-b37e-8c18c1ad7d4a","019cfc28-2143-7934-89cc-ce6402563331","","null","
                <div class=""stimulus-container"">
                    <img src=""images/schematic_sequence/supermarket_scheme/supermarket_scheme_5.png"" class=""exp-image"">
                    <div class=""question-area""></div> 
                </div>","null","","","","","","","","","","","",""
"","","","","","html-button-response","89","350710","0.0-89.0","A80B1E4F00AF48FCBF78C54040FAD5C7","019cfc5f-d324-7b09-b37e-8c18c1ad7d4a","019cfc28-2143-7934-89cc-ce6402563331","","null","
                <div class=""stimulus-container"">
                    <img src=""images/schematic_sequence/supermarket_scheme/supermarket_scheme_5.png"" class=""exp-image"">
                    <div class=""question-area"">
                        <p style=""font-size: 20px; font-weight: bold; margin: 0;"">Is there a person in this image?</p>
                    </div>
                </div>","null","main_experiment_trial","5","supermarket_scheme","schematic_sequence","chronological","","","","","","",""
"","","","","","html-keyboard-response","90","355712","0.0-90.0","A80B1E4F00AF48FCBF78C54040FAD5C7","019cfc5f-d324-7b09-b37e-8c18c1ad7d4a","019cfc28-2143-7934-89cc-ce6402563331","","null","
                <div class=""stimulus-container"">
                    <img src=""images/schematic_sequence/supermarket_scheme/supermarket_scheme_6.png"" class=""exp-image"">
                    <div class=""question-area""></div> 
                </div>","null","","","","","","","","","","","",""
"","","","","","html-button-response","91","357555","0.0-91.0","A80B1E4F00AF48FCBF78C54040FAD5C7","019cfc5f-d324-7b09-b37e-8c18c1ad7d4a","019cfc28-2143-7934-89cc-ce6402563331","","1841","
                <div class=""stimulus-container"">
                    <img src=""images/schematic_sequence/supermarket_scheme/supermarket_scheme_6.png"" class=""exp-image"">
                    <div class=""question-area"">
                        <p style=""font-size: 20px; font-weight: bold; margin: 0;"">Is there a person in this image?</p>
                    </div>
                </div>","0","main_experiment_trial","6","supermarket_scheme","schematic_sequence","chronological","","","","","","",""
"","","","","","html-keyboard-response","92","362568","0.0-92.0","A80B1E4F00AF48FCBF78C54040FAD5C7","019cfc5f-d324-7b09-b37e-8c18c1ad7d4a","019cfc28-2143-7934-89cc-ce6402563331","","null","
                <div class=""stimulus-container"">
                    <img src=""images/schematic_sequence/supermarket_scheme/supermarket_scheme_7.png"" class=""exp-image"">
                    <div class=""question-area""></div> 
                </div>","null","","","","","","","","","","","",""
"","","","","","html-button-response","93","364224","0.0-93.0","A80B1E4F00AF48FCBF78C54040FAD5C7","019cfc5f-d324-7b09-b37e-8c18c1ad7d4a","019cfc28-2143-7934-89cc-ce6402563331","","1656","
                <div class=""stimulus-container"">
                    <img src=""images/schematic_sequence/supermarket_scheme/supermarket_scheme_7.png"" class=""exp-image"">
                    <div class=""question-area"">
                        <p style=""font-size: 20px; font-weight: bold; margin: 0;"">Is there a person in this image?</p>
                    </div>
                </div>","0","main_experiment_trial","7","supermarket_scheme","schematic_sequence","chronological","","","","","","",""
"","","","","","html-keyboard-response","94","369234","0.0-94.0","A80B1E4F00AF48FCBF78C54040FAD5C7","019cfc5f-d324-7b09-b37e-8c18c1ad7d4a","019cfc28-2143-7934-89cc-ce6402563331","","null","
                <div class=""stimulus-container"">
                    <img src=""images/schematic_sequence/supermarket_scheme/supermarket_scheme_8.png"" class=""exp-image"">
                    <div class=""question-area""></div> 
                </div>","null","","","","","","","","","","","",""
"","","","","","html-button-response","95","370273","0.0-95.0","A80B1E4F00AF48FCBF78C54040FAD5C7","019cfc5f-d324-7b09-b37e-8c18c1ad7d4a","019cfc28-2143-7934-89cc-ce6402563331","","1038","
                <div class=""stimulus-container"">
                    <img src=""images/schematic_sequence/supermarket_scheme/supermarket_scheme_8.png"" class=""exp-image"">
                    <div class=""question-area"">
                        <p style=""font-size: 20px; font-weight: bold; margin: 0;"">Is there a person in this image?</p>
                    </div>
                </div>","0","main_experiment_trial","8","supermarket_scheme","schematic_sequence","chronological","","","","","","",""
"","","","","","html-keyboard-response","96","375284","0.0-96.0","A80B1E4F00AF48FCBF78C54040FAD5C7","019cfc5f-d324-7b09-b37e-8c18c1ad7d4a","019cfc28-2143-7934-89cc-ce6402563331","","null","
                <div class=""stimulus-container"">
                    <img src=""images/schematic_sequence/supermarket_scheme/supermarket_scheme_9.png"" class=""exp-image"">
                    <div class=""question-area""></div> 
                </div>","null","","","","","","","","","","","",""
"","","","","","html-button-response","97","378298","0.0-97.0","A80B1E4F00AF48FCBF78C54040FAD5C7","019cfc5f-d324-7b09-b37e-8c18c1ad7d4a","019cfc28-2143-7934-89cc-ce6402563331","","null","
                <div class=""stimulus-container"">
                    <img src=""images/schematic_sequence/supermarket_scheme/supermarket_scheme_9.png"" class=""exp-image"">
                    <div class=""question-area"">
                        <p style=""font-size: 20px; font-weight: bold; margin: 0;"">Is there a person in this image?</p>
                    </div>
                </div>","null","main_experiment_trial","9","supermarket_scheme","schematic_sequence","chronological","","","","","","",""
"","","","","","html-keyboard-response","98","383302","0.0-98.0","A80B1E4F00AF48FCBF78C54040FAD5C7","019cfc5f-d324-7b09-b37e-8c18c1ad7d4a","019cfc28-2143-7934-89cc-ce6402563331","","null","
                <div class=""stimulus-container"">
                    <img src=""images/schematic_sequence/supermarket_scheme/supermarket_scheme_ten.png"" class=""exp-image"">
                    <div class=""question-area""></div> 
                </div>","null","","","","","","","","","","","",""
"","","","","","html-button-response","99","385720","0.0-99.0","A80B1E4F00AF48FCBF78C54040FAD5C7","019cfc5f-d324-7b09-b37e-8c18c1ad7d4a","019cfc28-2143-7934-89cc-ce6402563331","","2416","
                <div class=""stimulus-container"">
                    <img src=""images/schematic_sequence/supermarket_scheme/supermarket_scheme_ten.png"" class=""exp-image"">
                    <div class=""question-area"">
                        <p style=""font-size: 20px; font-weight: bold; margin: 0;"">Is there a person in this image?</p>
                    </div>
                </div>","1","main_experiment_trial","ten","supermarket_scheme","schematic_sequence","chronological","","","","","","",""
"","","","","","html-keyboard-response","100","390726","0.0-100.0","A80B1E4F00AF48FCBF78C54040FAD5C7","019cfc5f-d324-7b09-b37e-8c18c1ad7d4a","019cfc28-2143-7934-89cc-ce6402563331","","null","<div style=""background-color: white; width: 100vw; height: 100vh;""></div>","null","","","","","","","","","","","",""
"","","","","","html-keyboard-response","101","395740","0.0-101.0","A80B1E4F00AF48FCBF78C54040FAD5C7","019cfc5f-d324-7b09-b37e-8c18c1ad7d4a","019cfc28-2143-7934-89cc-ce6402563331","","null","
                <div class=""stimulus-container"">
                    <img src=""images/semantic_sequence/housework_semantic/housework_semantic_1.png"" class=""exp-image"">
                    <div class=""question-area""></div> 
                </div>","null","","","","","","","","","","","",""
"","","","","","html-button-response","102","398118","0.0-102.0","A80B1E4F00AF48FCBF78C54040FAD5C7","019cfc5f-d324-7b09-b37e-8c18c1ad7d4a","019cfc28-2143-7934-89cc-ce6402563331","","2377","
                <div class=""stimulus-container"">
                    <img src=""images/semantic_sequence/housework_semantic/housework_semantic_1.png"" class=""exp-image"">
                    <div class=""question-area"">
                        <p style=""font-size: 20px; font-weight: bold; margin: 0;"">Is there a person in this image?</p>
                    </div>
                </div>","0","main_experiment_trial","1","housework_semantic","semantic_sequence","chronological","","","","","","",""
"","","","","","html-keyboard-response","103","403125","0.0-103.0","A80B1E4F00AF48FCBF78C54040FAD5C7","019cfc5f-d324-7b09-b37e-8c18c1ad7d4a","019cfc28-2143-7934-89cc-ce6402563331","","null","
                <div class=""stimulus-container"">
                    <img src=""images/semantic_sequence/housework_semantic/housework_semantic_2.png"" class=""exp-image"">
                    <div class=""question-area""></div> 
                </div>","null","","","","","","","","","","","",""
"","","","","","html-button-response","104","405665","0.0-104.0","A80B1E4F00AF48FCBF78C54040FAD5C7","019cfc5f-d324-7b09-b37e-8c18c1ad7d4a","019cfc28-2143-7934-89cc-ce6402563331","","2538","
                <div class=""stimulus-container"">
                    <img src=""images/semantic_sequence/housework_semantic/housework_semantic_2.png"" class=""exp-image"">
                    <div class=""question-area"">
                        <p style=""font-size: 20px; font-weight: bold; margin: 0;"">Is there a person in this image?</p>
                    </div>
                </div>","0","main_experiment_trial","2","housework_semantic","semantic_sequence","chronological","","","","","","",""
"","","","","","html-keyboard-response","105","410673","0.0-105.0","A80B1E4F00AF48FCBF78C54040FAD5C7","019cfc5f-d324-7b09-b37e-8c18c1ad7d4a","019cfc28-2143-7934-89cc-ce6402563331","","null","
                <div class=""stimulus-container"">
                    <img src=""images/semantic_sequence/housework_semantic/housework_semantic_3.png"" class=""exp-image"">
                    <div class=""question-area""></div> 
                </div>","null","","","","","","","","","","","",""
"","","","","","html-button-response","106","411483","0.0-106.0","A80B1E4F00AF48FCBF78C54040FAD5C7","019cfc5f-d324-7b09-b37e-8c18c1ad7d4a","019cfc28-2143-7934-89cc-ce6402563331","","809","
                <div class=""stimulus-container"">
                    <img src=""images/semantic_sequence/housework_semantic/housework_semantic_3.png"" class=""exp-image"">
                    <div class=""question-area"">
                        <p style=""font-size: 20px; font-weight: bold; margin: 0;"">Is there a person in this image?</p>
                    </div>
                </div>","0","main_experiment_trial","3","housework_semantic","semantic_sequence","chronological","","","","","","",""
"","","","","","html-keyboard-response","107","416498","0.0-107.0","A80B1E4F00AF48FCBF78C54040FAD5C7","019cfc5f-d324-7b09-b37e-8c18c1ad7d4a","019cfc28-2143-7934-89cc-ce6402563331","","null","
                <div class=""stimulus-container"">
                    <img src=""images/semantic_sequence/housework_semantic/housework_semantic_4.png"" class=""exp-image"">
                    <div class=""question-area""></div> 
                </div>","null","","","","","","","","","","","",""
"","","","","","html-button-response","108","417660","0.0-108.0","A80B1E4F00AF48FCBF78C54040FAD5C7","019cfc5f-d324-7b09-b37e-8c18c1ad7d4a","019cfc28-2143-7934-89cc-ce6402563331","","1161","
                <div class=""stimulus-container"">
                    <img src=""images/semantic_sequence/housework_semantic/housework_semantic_4.png"" class=""exp-image"">
                    <div class=""question-area"">
                        <p style=""font-size: 20px; font-weight: bold; margin: 0;"">Is there a person in this image?</p>
                    </div>
                </div>","0","main_experiment_trial","4","housework_semantic","semantic_sequence","chronological","","","","","","",""
"","","","","","html-keyboard-response","109","422673","0.0-109.0","A80B1E4F00AF48FCBF78C54040FAD5C7","019cfc5f-d324-7b09-b37e-8c18c1ad7d4a","019cfc28-2143-7934-89cc-ce6402563331","","null","
                <div class=""stimulus-container"">
                    <img src=""images/semantic_sequence/housework_semantic/housework_semantic_5.png"" class=""exp-image"">
                    <div class=""question-area""></div> 
                </div>","null","","","","","","","","","","","",""
"","","","","","html-button-response","110","423578","0.0-110.0","A80B1E4F00AF48FCBF78C54040FAD5C7","019cfc5f-d324-7b09-b37e-8c18c1ad7d4a","019cfc28-2143-7934-89cc-ce6402563331","","904","
                <div class=""stimulus-container"">
                    <img src=""images/semantic_sequence/housework_semantic/housework_semantic_5.png"" class=""exp-image"">
                    <div class=""question-area"">
                        <p style=""font-size: 20px; font-weight: bold; margin: 0;"">Is there a person in this image?</p>
                    </div>
                </div>","0","main_experiment_trial","5","housework_semantic","semantic_sequence","chronological","","","","","","",""
"","","","","","html-keyboard-response","111","428590","0.0-111.0","A80B1E4F00AF48FCBF78C54040FAD5C7","019cfc5f-d324-7b09-b37e-8c18c1ad7d4a","019cfc28-2143-7934-89cc-ce6402563331","","null","
                <div class=""stimulus-container"">
                    <img src=""images/semantic_sequence/housework_semantic/housework_semantic_6.png"" class=""exp-image"">
                    <div class=""question-area""></div> 
                </div>","null","","","","","","","","","","","",""
"","","","","","html-button-response","112","429774","0.0-112.0","A80B1E4F00AF48FCBF78C54040FAD5C7","019cfc5f-d324-7b09-b37e-8c18c1ad7d4a","019cfc28-2143-7934-89cc-ce6402563331","","1183","
                <div class=""stimulus-container"">
                    <img src=""images/semantic_sequence/housework_semantic/housework_semantic_6.png"" class=""exp-image"">
                    <div class=""question-area"">
                        <p style=""font-size: 20px; font-weight: bold; margin: 0;"">Is there a person in this image?</p>
                    </div>
                </div>","0","main_experiment_trial","6","housework_semantic","semantic_sequence","chronological","","","","","","",""
"","","","","","html-keyboard-response","113","434790","0.0-113.0","A80B1E4F00AF48FCBF78C54040FAD5C7","019cfc5f-d324-7b09-b37e-8c18c1ad7d4a","019cfc28-2143-7934-89cc-ce6402563331","","null","
                <div class=""stimulus-container"">
                    <img src=""images/semantic_sequence/housework_semantic/housework_semantic_7.png"" class=""exp-image"">
                    <div class=""question-area""></div> 
                </div>","null","","","","","","","","","","","",""
"","","","","","html-button-response","114","436878","0.0-114.0","A80B1E4F00AF48FCBF78C54040FAD5C7","019cfc5f-d324-7b09-b37e-8c18c1ad7d4a","019cfc28-2143-7934-89cc-ce6402563331","","2087","
                <div class=""stimulus-container"">
                    <img src=""images/semantic_sequence/housework_semantic/housework_semantic_7.png"" class=""exp-image"">
                    <div class=""question-area"">
                        <p style=""font-size: 20px; font-weight: bold; margin: 0;"">Is there a person in this image?</p>
                    </div>
                </div>","0","main_experiment_trial","7","housework_semantic","semantic_sequence","chronological","","","","","","",""
"","","","","","html-keyboard-response","115","441887","0.0-115.0","A80B1E4F00AF48FCBF78C54040FAD5C7","019cfc5f-d324-7b09-b37e-8c18c1ad7d4a","019cfc28-2143-7934-89cc-ce6402563331","","null","
                <div class=""stimulus-container"">
                    <img src=""images/semantic_sequence/housework_semantic/housework_semantic_8.png"" class=""exp-image"">
                    <div class=""question-area""></div> 
                </div>","null","","","","","","","","","","","",""
"","","","","","html-button-response","116","442923","0.0-116.0","A80B1E4F00AF48FCBF78C54040FAD5C7","019cfc5f-d324-7b09-b37e-8c18c1ad7d4a","019cfc28-2143-7934-89cc-ce6402563331","","1035","
                <div class=""stimulus-container"">
                    <img src=""images/semantic_sequence/housework_semantic/housework_semantic_8.png"" class=""exp-image"">
                    <div class=""question-area"">
                        <p style=""font-size: 20px; font-weight: bold; margin: 0;"">Is there a person in this image?</p>
                    </div>
                </div>","0","main_experiment_trial","8","housework_semantic","semantic_sequence","chronological","","","","","","",""
"","","","","","html-keyboard-response","117","447932","0.0-117.0","A80B1E4F00AF48FCBF78C54040FAD5C7","019cfc5f-d324-7b09-b37e-8c18c1ad7d4a","019cfc28-2143-7934-89cc-ce6402563331","","null","
                <div class=""stimulus-container"">
                    <img src=""images/semantic_sequence/housework_semantic/housework_semantic_9.png"" class=""exp-image"">
                    <div class=""question-area""></div> 
                </div>","null","","","","","","","","","","","",""
"","","","","","html-button-response","118","450941","0.0-118.0","A80B1E4F00AF48FCBF78C54040FAD5C7","019cfc5f-d324-7b09-b37e-8c18c1ad7d4a","019cfc28-2143-7934-89cc-ce6402563331","","null","
                <div class=""stimulus-container"">
                    <img src=""images/semantic_sequence/housework_semantic/housework_semantic_9.png"" class=""exp-image"">
                    <div class=""question-area"">
                        <p style=""font-size: 20px; font-weight: bold; margin: 0;"">Is there a person in this image?</p>
                    </div>
                </div>","null","main_experiment_trial","9","housework_semantic","semantic_sequence","chronological","","","","","","",""
"","","","","","html-keyboard-response","119","455953","0.0-119.0","A80B1E4F00AF48FCBF78C54040FAD5C7","019cfc5f-d324-7b09-b37e-8c18c1ad7d4a","019cfc28-2143-7934-89cc-ce6402563331","","null","
                <div class=""stimulus-container"">
                    <img src=""images/semantic_sequence/housework_semantic/housework_semantic_ten.png"" class=""exp-image"">
                    <div class=""question-area""></div> 
                </div>","null","","","","","","","","","","","",""
"","","","","","html-button-response","120","457324","0.0-120.0","A80B1E4F00AF48FCBF78C54040FAD5C7","019cfc5f-d324-7b09-b37e-8c18c1ad7d4a","019cfc28-2143-7934-89cc-ce6402563331","","1371","
                <div class=""stimulus-container"">
                    <img src=""images/semantic_sequence/housework_semantic/housework_semantic_ten.png"" class=""exp-image"">
                    <div class=""question-area"">
                        <p style=""font-size: 20px; font-weight: bold; margin: 0;"">Is there a person in this image?</p>
                    </div>
                </div>","0","main_experiment_trial","ten","housework_semantic","semantic_sequence","chronological","","","","","","",""
"","","","","","html-keyboard-response","121","462328","0.0-121.0","A80B1E4F00AF48FCBF78C54040FAD5C7","019cfc5f-d324-7b09-b37e-8c18c1ad7d4a","019cfc28-2143-7934-89cc-ce6402563331","","null","<div style=""background-color: white; width: 100vw; height: 100vh;""></div>","null","","","","","","","","","","","",""
"","","","","","html-keyboard-response","122","467331","0.0-122.0","A80B1E4F00AF48FCBF78C54040FAD5C7","019cfc5f-d324-7b09-b37e-8c18c1ad7d4a","019cfc28-2143-7934-89cc-ce6402563331","","null","
                <div class=""stimulus-container"">
                    <img src=""images/schematic_sequence/dinner_party_scheme/dinner_party_scheme_1.png"" class=""exp-image"">
                    <div class=""question-area""></div> 
                </div>","null","","","","","","","","","","","",""
"","","","","","html-button-response","123","468318","0.0-123.0","A80B1E4F00AF48FCBF78C54040FAD5C7","019cfc5f-d324-7b09-b37e-8c18c1ad7d4a","019cfc28-2143-7934-89cc-ce6402563331","","986","
                <div class=""stimulus-container"">
                    <img src=""images/schematic_sequence/dinner_party_scheme/dinner_party_scheme_1.png"" class=""exp-image"">
                    <div class=""question-area"">
                        <p style=""font-size: 20px; font-weight: bold; margin: 0;"">Is there a person in this image?</p>
                    </div>
                </div>","0","main_experiment_trial","1","dinner_party_scheme","schematic_sequence","chronological","","","","","","",""
"","","","","","html-keyboard-response","124","473331","0.0-124.0","A80B1E4F00AF48FCBF78C54040FAD5C7","019cfc5f-d324-7b09-b37e-8c18c1ad7d4a","019cfc28-2143-7934-89cc-ce6402563331","","null","
                <div class=""stimulus-container"">
                    <img src=""images/schematic_sequence/dinner_party_scheme/dinner_party_scheme_2.png"" class=""exp-image"">
                    <div class=""question-area""></div> 
                </div>","null","","","","","","","","","","","",""
"","","","","","html-button-response","125","475738","0.0-125.0","A80B1E4F00AF48FCBF78C54040FAD5C7","019cfc5f-d324-7b09-b37e-8c18c1ad7d4a","019cfc28-2143-7934-89cc-ce6402563331","","2406","
                <div class=""stimulus-container"">
                    <img src=""images/schematic_sequence/dinner_party_scheme/dinner_party_scheme_2.png"" class=""exp-image"">
                    <div class=""question-area"">
                        <p style=""font-size: 20px; font-weight: bold; margin: 0;"">Is there a person in this image?</p>
                    </div>
                </div>","0","main_experiment_trial","2","dinner_party_scheme","schematic_sequence","chronological","","","","","","",""
"","","","","","html-keyboard-response","126","480746","0.0-126.0","A80B1E4F00AF48FCBF78C54040FAD5C7","019cfc5f-d324-7b09-b37e-8c18c1ad7d4a","019cfc28-2143-7934-89cc-ce6402563331","","null","
                <div class=""stimulus-container"">
                    <img src=""images/schematic_sequence/dinner_party_scheme/dinner_party_scheme_3.png"" class=""exp-image"">
                    <div class=""question-area""></div> 
                </div>","null","","","","","","","","","","","",""
"","","","","","html-button-response","127","483417","0.0-127.0","A80B1E4F00AF48FCBF78C54040FAD5C7","019cfc5f-d324-7b09-b37e-8c18c1ad7d4a","019cfc28-2143-7934-89cc-ce6402563331","","2669","
                <div class=""stimulus-container"">
                    <img src=""images/schematic_sequence/dinner_party_scheme/dinner_party_scheme_3.png"" class=""exp-image"">
                    <div class=""question-area"">
                        <p style=""font-size: 20px; font-weight: bold; margin: 0;"">Is there a person in this image?</p>
                    </div>
                </div>","0","main_experiment_trial","3","dinner_party_scheme","schematic_sequence","chronological","","","","","","",""
"","","","","","html-keyboard-response","128","488425","0.0-128.0","A80B1E4F00AF48FCBF78C54040FAD5C7","019cfc5f-d324-7b09-b37e-8c18c1ad7d4a","019cfc28-2143-7934-89cc-ce6402563331","","null","
                <div class=""stimulus-container"">
                    <img src=""images/schematic_sequence/dinner_party_scheme/dinner_party_scheme_4.png"" class=""exp-image"">
                    <div class=""question-area""></div> 
                </div>","null","","","","","","","","","","","",""
"","","","","","html-button-response","129","489579","0.0-129.0","A80B1E4F00AF48FCBF78C54040FAD5C7","019cfc5f-d324-7b09-b37e-8c18c1ad7d4a","019cfc28-2143-7934-89cc-ce6402563331","","1153","
                <div class=""stimulus-container"">
                    <img src=""images/schematic_sequence/dinner_party_scheme/dinner_party_scheme_4.png"" class=""exp-image"">
                    <div class=""question-area"">
                        <p style=""font-size: 20px; font-weight: bold; margin: 0;"">Is there a person in this image?</p>
                    </div>
                </div>","0","main_experiment_trial","4","dinner_party_scheme","schematic_sequence","chronological","","","","","","",""
"","","","","","html-keyboard-response","130","494592","0.0-130.0","A80B1E4F00AF48FCBF78C54040FAD5C7","019cfc5f-d324-7b09-b37e-8c18c1ad7d4a","019cfc28-2143-7934-89cc-ce6402563331","","null","
                <div class=""stimulus-container"">
                    <img src=""images/schematic_sequence/dinner_party_scheme/dinner_party_scheme_5.png"" class=""exp-image"">
                    <div class=""question-area""></div> 
                </div>","null","","","","","","","","","","","",""
"","","","","","html-button-response","131","495719","0.0-131.0","A80B1E4F00AF48FCBF78C54040FAD5C7","019cfc5f-d324-7b09-b37e-8c18c1ad7d4a","019cfc28-2143-7934-89cc-ce6402563331","","1125","
                <div class=""stimulus-container"">
                    <img src=""images/schematic_sequence/dinner_party_scheme/dinner_party_scheme_5.png"" class=""exp-image"">
                    <div class=""question-area"">
                        <p style=""font-size: 20px; font-weight: bold; margin: 0;"">Is there a person in this image?</p>
                    </div>
                </div>","0","main_experiment_trial","5","dinner_party_scheme","schematic_sequence","chronological","","","","","","",""
"","","","","","html-keyboard-response","132","500727","0.0-132.0","A80B1E4F00AF48FCBF78C54040FAD5C7","019cfc5f-d324-7b09-b37e-8c18c1ad7d4a","019cfc28-2143-7934-89cc-ce6402563331","","null","
                <div class=""stimulus-container"">
                    <img src=""images/schematic_sequence/dinner_party_scheme/dinner_party_scheme_6.png"" class=""exp-image"">
                    <div class=""question-area""></div> 
                </div>","null","","","","","","","","","","","",""
"","","","","","html-button-response","133","503736","0.0-133.0","A80B1E4F00AF48FCBF78C54040FAD5C7","019cfc5f-d324-7b09-b37e-8c18c1ad7d4a","019cfc28-2143-7934-89cc-ce6402563331","","null","
                <div class=""stimulus-container"">
                    <img src=""images/schematic_sequence/dinner_party_scheme/dinner_party_scheme_6.png"" class=""exp-image"">
                    <div class=""question-area"">
                        <p style=""font-size: 20px; font-weight: bold; margin: 0;"">Is there a person in this image?</p>
                    </div>
                </div>","null","main_experiment_trial","6","dinner_party_scheme","schematic_sequence","chronological","","","","","","",""
"","","","","","html-keyboard-response","134","508741","0.0-134.0","A80B1E4F00AF48FCBF78C54040FAD5C7","019cfc5f-d324-7b09-b37e-8c18c1ad7d4a","019cfc28-2143-7934-89cc-ce6402563331","","null","
                <div class=""stimulus-container"">
                    <img src=""images/schematic_sequence/dinner_party_scheme/dinner_party_scheme_7.png"" class=""exp-image"">
                    <div class=""question-area""></div> 
                </div>","null","","","","","","","","","","","",""
"","","","","","html-button-response","135","510896","0.0-135.0","A80B1E4F00AF48FCBF78C54040FAD5C7","019cfc5f-d324-7b09-b37e-8c18c1ad7d4a","019cfc28-2143-7934-89cc-ce6402563331","","2154","
                <div class=""stimulus-container"">
                    <img src=""images/schematic_sequence/dinner_party_scheme/dinner_party_scheme_7.png"" class=""exp-image"">
                    <div class=""question-area"">
                        <p style=""font-size: 20px; font-weight: bold; margin: 0;"">Is there a person in this image?</p>
                    </div>
                </div>","0","main_experiment_trial","7","dinner_party_scheme","schematic_sequence","chronological","","","","","","",""
"","","","","","html-keyboard-response","136","515902","0.0-136.0","A80B1E4F00AF48FCBF78C54040FAD5C7","019cfc5f-d324-7b09-b37e-8c18c1ad7d4a","019cfc28-2143-7934-89cc-ce6402563331","","null","
                <div class=""stimulus-container"">
                    <img src=""images/schematic_sequence/dinner_party_scheme/dinner_party_scheme_8.png"" class=""exp-image"">
                    <div class=""question-area""></div> 
                </div>","null","","","","","","","","","","","",""
"","","","","","html-button-response","137","516974","0.0-137.0","A80B1E4F00AF48FCBF78C54040FAD5C7","019cfc5f-d324-7b09-b37e-8c18c1ad7d4a","019cfc28-2143-7934-89cc-ce6402563331","","1071","
                <div class=""stimulus-container"">
                    <img src=""images/schematic_sequence/dinner_party_scheme/dinner_party_scheme_8.png"" class=""exp-image"">
                    <div class=""question-area"">
                        <p style=""font-size: 20px; font-weight: bold; margin: 0;"">Is there a person in this image?</p>
                    </div>
                </div>","0","main_experiment_trial","8","dinner_party_scheme","schematic_sequence","chronological","","","","","","",""
"","","","","","html-keyboard-response","138","521989","0.0-138.0","A80B1E4F00AF48FCBF78C54040FAD5C7","019cfc5f-d324-7b09-b37e-8c18c1ad7d4a","019cfc28-2143-7934-89cc-ce6402563331","","null","
                <div class=""stimulus-container"">
                    <img src=""images/schematic_sequence/dinner_party_scheme/dinner_party_scheme_9.png"" class=""exp-image"">
                    <div class=""question-area""></div> 
                </div>","null","","","","","","","","","","","",""
"","","","","","html-button-response","139","523713","0.0-139.0","A80B1E4F00AF48FCBF78C54040FAD5C7","019cfc5f-d324-7b09-b37e-8c18c1ad7d4a","019cfc28-2143-7934-89cc-ce6402563331","","1723","
                <div class=""stimulus-container"">
                    <img src=""images/schematic_sequence/dinner_party_scheme/dinner_party_scheme_9.png"" class=""exp-image"">
                    <div class=""question-area"">
                        <p style=""font-size: 20px; font-weight: bold; margin: 0;"">Is there a person in this image?</p>
                    </div>
                </div>","0","main_experiment_trial","9","dinner_party_scheme","schematic_sequence","chronological","","","","","","",""
"","","","","","html-keyboard-response","140","528714","0.0-140.0","A80B1E4F00AF48FCBF78C54040FAD5C7","019cfc5f-d324-7b09-b37e-8c18c1ad7d4a","019cfc28-2143-7934-89cc-ce6402563331","","null","
                <div class=""stimulus-container"">
                    <img src=""images/schematic_sequence/dinner_party_scheme/dinner_party_scheme_ten.png"" class=""exp-image"">
                    <div class=""question-area""></div> 
                </div>","null","","","","","","","","","","","",""
"","","","","","html-button-response","141","530123","0.0-141.0","A80B1E4F00AF48FCBF78C54040FAD5C7","019cfc5f-d324-7b09-b37e-8c18c1ad7d4a","019cfc28-2143-7934-89cc-ce6402563331","","1408","
                <div class=""stimulus-container"">
                    <img src=""images/schematic_sequence/dinner_party_scheme/dinner_party_scheme_ten.png"" class=""exp-image"">
                    <div class=""question-area"">
                        <p style=""font-size: 20px; font-weight: bold; margin: 0;"">Is there a person in this image?</p>
                    </div>
                </div>","0","main_experiment_trial","ten","dinner_party_scheme","schematic_sequence","chronological","","","","","","",""
"","","","","","html-keyboard-response","142","535130","0.0-142.0","A80B1E4F00AF48FCBF78C54040FAD5C7","019cfc5f-d324-7b09-b37e-8c18c1ad7d4a","019cfc28-2143-7934-89cc-ce6402563331","","null","<div style=""background-color: white; width: 100vw; height: 100vh;""></div>","null","","","","","","","","","","","",""
"","","","","","html-keyboard-response","143","540132","0.0-143.0","A80B1E4F00AF48FCBF78C54040FAD5C7","019cfc5f-d324-7b09-b37e-8c18c1ad7d4a","019cfc28-2143-7934-89cc-ce6402563331","","null","
                <div class=""stimulus-container"">
                    <img src=""images/schematic_sequence/interview_scheme/interview_scheme_1.png"" class=""exp-image"">
                    <div class=""question-area""></div> 
                </div>","null","","","","","","","","","","","",""
"","","","","","html-button-response","144","543138","0.0-144.0","A80B1E4F00AF48FCBF78C54040FAD5C7","019cfc5f-d324-7b09-b37e-8c18c1ad7d4a","019cfc28-2143-7934-89cc-ce6402563331","","null","
                <div class=""stimulus-container"">
                    <img src=""images/schematic_sequence/interview_scheme/interview_scheme_1.png"" class=""exp-image"">
                    <div class=""question-area"">
                        <p style=""font-size: 20px; font-weight: bold; margin: 0;"">Is there a person in this image?</p>
                    </div>
                </div>","null","main_experiment_trial","1","interview_scheme","schematic_sequence","chronological","","","","","","",""
"","","","","","html-keyboard-response","145","548144","0.0-145.0","A80B1E4F00AF48FCBF78C54040FAD5C7","019cfc5f-d324-7b09-b37e-8c18c1ad7d4a","019cfc28-2143-7934-89cc-ce6402563331","","null","
                <div class=""stimulus-container"">
                    <img src=""images/schematic_sequence/interview_scheme/interview_scheme_2.png"" class=""exp-image"">
                    <div class=""question-area""></div> 
                </div>","null","","","","","","","","","","","",""
"","","","","","html-button-response","146","551160","0.0-146.0","A80B1E4F00AF48FCBF78C54040FAD5C7","019cfc5f-d324-7b09-b37e-8c18c1ad7d4a","019cfc28-2143-7934-89cc-ce6402563331","","null","
                <div class=""stimulus-container"">
                    <img src=""images/schematic_sequence/interview_scheme/interview_scheme_2.png"" class=""exp-image"">
                    <div class=""question-area"">
                        <p style=""font-size: 20px; font-weight: bold; margin: 0;"">Is there a person in this image?</p>
                    </div>
                </div>","null","main_experiment_trial","2","interview_scheme","schematic_sequence","chronological","","","","","","",""
"","","","","","html-keyboard-response","147","556171","0.0-147.0","A80B1E4F00AF48FCBF78C54040FAD5C7","019cfc5f-d324-7b09-b37e-8c18c1ad7d4a","019cfc28-2143-7934-89cc-ce6402563331","","null","
                <div class=""stimulus-container"">
                    <img src=""images/schematic_sequence/interview_scheme/interview_scheme_3.png"" class=""exp-image"">
                    <div class=""question-area""></div> 
                </div>","null","","","","","","","","","","","",""
"","","","","","html-button-response","148","557700","0.0-148.0","A80B1E4F00AF48FCBF78C54040FAD5C7","019cfc5f-d324-7b09-b37e-8c18c1ad7d4a","019cfc28-2143-7934-89cc-ce6402563331","","1528","
                <div class=""stimulus-container"">
                    <img src=""images/schematic_sequence/interview_scheme/interview_scheme_3.png"" class=""exp-image"">
                    <div class=""question-area"">
                        <p style=""font-size: 20px; font-weight: bold; margin: 0;"">Is there a person in this image?</p>
                    </div>
                </div>","1","main_experiment_trial","3","interview_scheme","schematic_sequence","chronological","","","","","","",""
"","","","","","html-keyboard-response","149","562713","0.0-149.0","A80B1E4F00AF48FCBF78C54040FAD5C7","019cfc5f-d324-7b09-b37e-8c18c1ad7d4a","019cfc28-2143-7934-89cc-ce6402563331","","null","
                <div class=""stimulus-container"">
                    <img src=""images/schematic_sequence/interview_scheme/interview_scheme_4.png"" class=""exp-image"">
                    <div class=""question-area""></div> 
                </div>","null","","","","","","","","","","","",""
"","","","","","html-button-response","150","565054","0.0-150.0","A80B1E4F00AF48FCBF78C54040FAD5C7","019cfc5f-d324-7b09-b37e-8c18c1ad7d4a","019cfc28-2143-7934-89cc-ce6402563331","","2340","
                <div class=""stimulus-container"">
                    <img src=""images/schematic_sequence/interview_scheme/interview_scheme_4.png"" class=""exp-image"">
                    <div class=""question-area"">
                        <p style=""font-size: 20px; font-weight: bold; margin: 0;"">Is there a person in this image?</p>
                    </div>
                </div>","1","main_experiment_trial","4","interview_scheme","schematic_sequence","chronological","","","","","","",""
"","","","","","html-keyboard-response","151","570056","0.0-151.0","A80B1E4F00AF48FCBF78C54040FAD5C7","019cfc5f-d324-7b09-b37e-8c18c1ad7d4a","019cfc28-2143-7934-89cc-ce6402563331","","null","
                <div class=""stimulus-container"">
                    <img src=""images/schematic_sequence/interview_scheme/interview_scheme_5.png"" class=""exp-image"">
                    <div class=""question-area""></div> 
                </div>","null","","","","","","","","","","","",""
"","","","","","html-button-response","152","571518","0.0-152.0","A80B1E4F00AF48FCBF78C54040FAD5C7","019cfc5f-d324-7b09-b37e-8c18c1ad7d4a","019cfc28-2143-7934-89cc-ce6402563331","","1461","
                <div class=""stimulus-container"">
                    <img src=""images/schematic_sequence/interview_scheme/interview_scheme_5.png"" class=""exp-image"">
                    <div class=""question-area"">
                        <p style=""font-size: 20px; font-weight: bold; margin: 0;"">Is there a person in this image?</p>
                    </div>
                </div>","0","main_experiment_trial","5","interview_scheme","schematic_sequence","chronological","","","","","","",""
"","","","","","html-keyboard-response","153","576528","0.0-153.0","A80B1E4F00AF48FCBF78C54040FAD5C7","019cfc5f-d324-7b09-b37e-8c18c1ad7d4a","019cfc28-2143-7934-89cc-ce6402563331","","null","
                <div class=""stimulus-container"">
                    <img src=""images/schematic_sequence/interview_scheme/interview_scheme_6.png"" class=""exp-image"">
                    <div class=""question-area""></div> 
                </div>","null","","","","","","","","","","","",""
"","","","","","html-button-response","154","577346","0.0-154.0","A80B1E4F00AF48FCBF78C54040FAD5C7","019cfc5f-d324-7b09-b37e-8c18c1ad7d4a","019cfc28-2143-7934-89cc-ce6402563331","","817","
                <div class=""stimulus-container"">
                    <img src=""images/schematic_sequence/interview_scheme/interview_scheme_6.png"" class=""exp-image"">
                    <div class=""question-area"">
                        <p style=""font-size: 20px; font-weight: bold; margin: 0;"">Is there a person in this image?</p>
                    </div>
                </div>","0","main_experiment_trial","6","interview_scheme","schematic_sequence","chronological","","","","","","",""
"","","","","","html-keyboard-response","155","582359","0.0-155.0","A80B1E4F00AF48FCBF78C54040FAD5C7","019cfc5f-d324-7b09-b37e-8c18c1ad7d4a","019cfc28-2143-7934-89cc-ce6402563331","","null","
                <div class=""stimulus-container"">
                    <img src=""images/schematic_sequence/interview_scheme/interview_scheme_7.png"" class=""exp-image"">
                    <div class=""question-area""></div> 
                </div>","null","","","","","","","","","","","",""
"","","","","","html-button-response","156","583982","0.0-156.0","A80B1E4F00AF48FCBF78C54040FAD5C7","019cfc5f-d324-7b09-b37e-8c18c1ad7d4a","019cfc28-2143-7934-89cc-ce6402563331","","1622","
                <div class=""stimulus-container"">
                    <img src=""images/schematic_sequence/interview_scheme/interview_scheme_7.png"" class=""exp-image"">
                    <div class=""question-area"">
                        <p style=""font-size: 20px; font-weight: bold; margin: 0;"">Is there a person in this image?</p>
                    </div>
                </div>","0","main_experiment_trial","7","interview_scheme","schematic_sequence","chronological","","","","","","",""
"","","","","","html-keyboard-response","157","588991","0.0-157.0","A80B1E4F00AF48FCBF78C54040FAD5C7","019cfc5f-d324-7b09-b37e-8c18c1ad7d4a","019cfc28-2143-7934-89cc-ce6402563331","","null","
                <div class=""stimulus-container"">
                    <img src=""images/schematic_sequence/interview_scheme/interview_scheme_8.png"" class=""exp-image"">
                    <div class=""question-area""></div> 
                </div>","null","","","","","","","","","","","",""
"","","","","","html-button-response","158","590043","0.0-158.0","A80B1E4F00AF48FCBF78C54040FAD5C7","019cfc5f-d324-7b09-b37e-8c18c1ad7d4a","019cfc28-2143-7934-89cc-ce6402563331","","1052","
                <div class=""stimulus-container"">
                    <img src=""images/schematic_sequence/interview_scheme/interview_scheme_8.png"" class=""exp-image"">
                    <div class=""question-area"">
                        <p style=""font-size: 20px; font-weight: bold; margin: 0;"">Is there a person in this image?</p>
                    </div>
                </div>","0","main_experiment_trial","8","interview_scheme","schematic_sequence","chronological","","","","","","",""
"","","","","","html-keyboard-response","159","595057","0.0-159.0","A80B1E4F00AF48FCBF78C54040FAD5C7","019cfc5f-d324-7b09-b37e-8c18c1ad7d4a","019cfc28-2143-7934-89cc-ce6402563331","","null","
                <div class=""stimulus-container"">
                    <img src=""images/schematic_sequence/interview_scheme/interview_scheme_9.png"" class=""exp-image"">
                    <div class=""question-area""></div> 
                </div>","null","","","","","","","","","","","",""
"","","","","","html-button-response","160","596143","0.0-160.0","A80B1E4F00AF48FCBF78C54040FAD5C7","019cfc5f-d324-7b09-b37e-8c18c1ad7d4a","019cfc28-2143-7934-89cc-ce6402563331","","1085","
                <div class=""stimulus-container"">
                    <img src=""images/schematic_sequence/interview_scheme/interview_scheme_9.png"" class=""exp-image"">
                    <div class=""question-area"">
                        <p style=""font-size: 20px; font-weight: bold; margin: 0;"">Is there a person in this image?</p>
                    </div>
                </div>","0","main_experiment_trial","9","interview_scheme","schematic_sequence","chronological","","","","","","",""
"","","","","","html-keyboard-response","161","601156","0.0-161.0","A80B1E4F00AF48FCBF78C54040FAD5C7","019cfc5f-d324-7b09-b37e-8c18c1ad7d4a","019cfc28-2143-7934-89cc-ce6402563331","","null","
                <div class=""stimulus-container"">
                    <img src=""images/schematic_sequence/interview_scheme/interview_scheme_ten.png"" class=""exp-image"">
                    <div class=""question-area""></div> 
                </div>","null","","","","","","","","","","","",""
"","","","","","html-button-response","162","602164","0.0-162.0","A80B1E4F00AF48FCBF78C54040FAD5C7","019cfc5f-d324-7b09-b37e-8c18c1ad7d4a","019cfc28-2143-7934-89cc-ce6402563331","","1007","
                <div class=""stimulus-container"">
                    <img src=""images/schematic_sequence/interview_scheme/interview_scheme_ten.png"" class=""exp-image"">
                    <div class=""question-area"">
                        <p style=""font-size: 20px; font-weight: bold; margin: 0;"">Is there a person in this image?</p>
                    </div>
                </div>","0","main_experiment_trial","ten","interview_scheme","schematic_sequence","chronological","","","","","","",""
"","","","","","html-keyboard-response","163","607169","0.0-163.0","A80B1E4F00AF48FCBF78C54040FAD5C7","019cfc5f-d324-7b09-b37e-8c18c1ad7d4a","019cfc28-2143-7934-89cc-ce6402563331","","null","<div style=""background-color: white; width: 100vw; height: 100vh;""></div>","null","","","","","","","","","","","",""
"","","","","","html-keyboard-response","164","612173","0.0-164.0","A80B1E4F00AF48FCBF78C54040FAD5C7","019cfc5f-d324-7b09-b37e-8c18c1ad7d4a","019cfc28-2143-7934-89cc-ce6402563331","","null","
                <div class=""stimulus-container"">
                    <img src=""images/schematic_sequence/hotel_scheme/hotel_scheme_1.png"" class=""exp-image"">
                    <div class=""question-area""></div> 
                </div>","null","","","","","","","","","","","",""
"","","","","","html-button-response","165","613842","0.0-165.0","A80B1E4F00AF48FCBF78C54040FAD5C7","019cfc5f-d324-7b09-b37e-8c18c1ad7d4a","019cfc28-2143-7934-89cc-ce6402563331","","1668","
                <div class=""stimulus-container"">
                    <img src=""images/schematic_sequence/hotel_scheme/hotel_scheme_1.png"" class=""exp-image"">
                    <div class=""question-area"">
                        <p style=""font-size: 20px; font-weight: bold; margin: 0;"">Is there a person in this image?</p>
                    </div>
                </div>","1","main_experiment_trial","1","hotel_scheme","schematic_sequence","chronological","","","","","","",""
"","","","","","html-keyboard-response","166","618848","0.0-166.0","A80B1E4F00AF48FCBF78C54040FAD5C7","019cfc5f-d324-7b09-b37e-8c18c1ad7d4a","019cfc28-2143-7934-89cc-ce6402563331","","null","
                <div class=""stimulus-container"">
                    <img src=""images/schematic_sequence/hotel_scheme/hotel_scheme_2.png"" class=""exp-image"">
                    <div class=""question-area""></div> 
                </div>","null","","","","","","","","","","","",""
"","","","","","html-button-response","167","621850","0.0-167.0","A80B1E4F00AF48FCBF78C54040FAD5C7","019cfc5f-d324-7b09-b37e-8c18c1ad7d4a","019cfc28-2143-7934-89cc-ce6402563331","","null","
                <div class=""stimulus-container"">
                    <img src=""images/schematic_sequence/hotel_scheme/hotel_scheme_2.png"" class=""exp-image"">
                    <div class=""question-area"">
                        <p style=""font-size: 20px; font-weight: bold; margin: 0;"">Is there a person in this image?</p>
                    </div>
                </div>","null","main_experiment_trial","2","hotel_scheme","schematic_sequence","chronological","","","","","","",""
"","","","","","html-keyboard-response","168","626862","0.0-168.0","A80B1E4F00AF48FCBF78C54040FAD5C7","019cfc5f-d324-7b09-b37e-8c18c1ad7d4a","019cfc28-2143-7934-89cc-ce6402563331","","null","
                <div class=""stimulus-container"">
                    <img src=""images/schematic_sequence/hotel_scheme/hotel_scheme_3.png"" class=""exp-image"">
                    <div class=""question-area""></div> 
                </div>","null","","","","","","","","","","","",""
"","","","","","html-button-response","169","629273","0.0-169.0","A80B1E4F00AF48FCBF78C54040FAD5C7","019cfc5f-d324-7b09-b37e-8c18c1ad7d4a","019cfc28-2143-7934-89cc-ce6402563331","","2409","
                <div class=""stimulus-container"">
                    <img src=""images/schematic_sequence/hotel_scheme/hotel_scheme_3.png"" class=""exp-image"">
                    <div class=""question-area"">
                        <p style=""font-size: 20px; font-weight: bold; margin: 0;"">Is there a person in this image?</p>
                    </div>
                </div>","0","main_experiment_trial","3","hotel_scheme","schematic_sequence","chronological","","","","","","",""
"","","","","","html-keyboard-response","170","634282","0.0-170.0","A80B1E4F00AF48FCBF78C54040FAD5C7","019cfc5f-d324-7b09-b37e-8c18c1ad7d4a","019cfc28-2143-7934-89cc-ce6402563331","","null","
                <div class=""stimulus-container"">
                    <img src=""images/schematic_sequence/hotel_scheme/hotel_scheme_4.png"" class=""exp-image"">
                    <div class=""question-area""></div> 
                </div>","null","","","","","","","","","","","",""
"","","","","","html-button-response","171","636656","0.0-171.0","A80B1E4F00AF48FCBF78C54040FAD5C7","019cfc5f-d324-7b09-b37e-8c18c1ad7d4a","019cfc28-2143-7934-89cc-ce6402563331","","2373","
                <div class=""stimulus-container"">
                    <img src=""images/schematic_sequence/hotel_scheme/hotel_scheme_4.png"" class=""exp-image"">
                    <div class=""question-area"">
                        <p style=""font-size: 20px; font-weight: bold; margin: 0;"">Is there a person in this image?</p>
                    </div>
                </div>","1","main_experiment_trial","4","hotel_scheme","schematic_sequence","chronological","","","","","","",""
"","","","","","html-keyboard-response","172","641666","0.0-172.0","A80B1E4F00AF48FCBF78C54040FAD5C7","019cfc5f-d324-7b09-b37e-8c18c1ad7d4a","019cfc28-2143-7934-89cc-ce6402563331","","null","
                <div class=""stimulus-container"">
                    <img src=""images/schematic_sequence/hotel_scheme/hotel_scheme_5.png"" class=""exp-image"">
                    <div class=""question-area""></div> 
                </div>","null","","","","","","","","","","","",""
"","","","","","html-button-response","173","644675","0.0-173.0","A80B1E4F00AF48FCBF78C54040FAD5C7","019cfc5f-d324-7b09-b37e-8c18c1ad7d4a","019cfc28-2143-7934-89cc-ce6402563331","","null","
                <div class=""stimulus-container"">
                    <img src=""images/schematic_sequence/hotel_scheme/hotel_scheme_5.png"" class=""exp-image"">
                    <div class=""question-area"">
                        <p style=""font-size: 20px; font-weight: bold; margin: 0;"">Is there a person in this image?</p>
                    </div>
                </div>","null","main_experiment_trial","5","hotel_scheme","schematic_sequence","chronological","","","","","","",""
"","","","","","html-keyboard-response","174","649680","0.0-174.0","A80B1E4F00AF48FCBF78C54040FAD5C7","019cfc5f-d324-7b09-b37e-8c18c1ad7d4a","019cfc28-2143-7934-89cc-ce6402563331","","null","
                <div class=""stimulus-container"">
                    <img src=""images/schematic_sequence/hotel_scheme/hotel_scheme_6.png"" class=""exp-image"">
                    <div class=""question-area""></div> 
                </div>","null","","","","","","","","","","","",""
"","","","","","html-button-response","175","651149","0.0-175.0","A80B1E4F00AF48FCBF78C54040FAD5C7","019cfc5f-d324-7b09-b37e-8c18c1ad7d4a","019cfc28-2143-7934-89cc-ce6402563331","","1468","
                <div class=""stimulus-container"">
                    <img src=""images/schematic_sequence/hotel_scheme/hotel_scheme_6.png"" class=""exp-image"">
                    <div class=""question-area"">
                        <p style=""font-size: 20px; font-weight: bold; margin: 0;"">Is there a person in this image?</p>
                    </div>
                </div>","0","main_experiment_trial","6","hotel_scheme","schematic_sequence","chronological","","","","","","",""
"","","","","","html-keyboard-response","176","656162","0.0-176.0","A80B1E4F00AF48FCBF78C54040FAD5C7","019cfc5f-d324-7b09-b37e-8c18c1ad7d4a","019cfc28-2143-7934-89cc-ce6402563331","","null","
                <div class=""stimulus-container"">
                    <img src=""images/schematic_sequence/hotel_scheme/hotel_scheme_7.png"" class=""exp-image"">
                    <div class=""question-area""></div> 
                </div>","null","","","","","","","","","","","",""
"","","","","","html-button-response","177","657584","0.0-177.0","A80B1E4F00AF48FCBF78C54040FAD5C7","019cfc5f-d324-7b09-b37e-8c18c1ad7d4a","019cfc28-2143-7934-89cc-ce6402563331","","1421","
                <div class=""stimulus-container"">
                    <img src=""images/schematic_sequence/hotel_scheme/hotel_scheme_7.png"" class=""exp-image"">
                    <div class=""question-area"">
                        <p style=""font-size: 20px; font-weight: bold; margin: 0;"">Is there a person in this image?</p>
                    </div>
