"success","timeout","failed_images","failed_audio","failed_video","trial_type","trial_index","time_elapsed","internal_node_id","subject_id","study_id","session_id","view_history","rt","stimulus","response","task","image_index","folder","sequence_type","presentation_order","valuable_image_index","reward_type","distance_from_x","target_X","chosen_image_index","is_x_plus_dist","correct_choice"
"true","false","[]","[]","[]","preload","0","23143","0.0-0.0","654617A0544B406E9CEF87AA74EE77A6","019cfc32-b46e-7429-9d39-3c3fd0da7401","019cfc28-2143-7934-89cc-ce6402563331","","","","","","","","","","","","","","","",""
"","","","","","instructions","1","144452","0.0-1.0","654617A0544B406E9CEF87AA74EE77A6","019cfc32-b46e-7429-9d39-3c3fd0da7401","019cfc28-2143-7934-89cc-ce6402563331","[{""page_index"":0,""viewing_time"":121307}]","121308","","","","","","","","","","","","","",""
"","","","","","instructions","2","148215","0.0-2.0","654617A0544B406E9CEF87AA74EE77A6","019cfc32-b46e-7429-9d39-3c3fd0da7401","019cfc28-2143-7934-89cc-ce6402563331","[{""page_index"":0,""viewing_time"":3762}]","3762","","","","","","","","","","","","","",""
"true","","","","","fullscreen","3","160954","0.0-3.0","654617A0544B406E9CEF87AA74EE77A6","019cfc32-b46e-7429-9d39-3c3fd0da7401","019cfc28-2143-7934-89cc-ce6402563331","","11720","","","","","","","","","","","","","",""
"","","","","","instructions","4","247735","0.0-4.0","654617A0544B406E9CEF87AA74EE77A6","019cfc32-b46e-7429-9d39-3c3fd0da7401","019cfc28-2143-7934-89cc-ce6402563331","[{""page_index"":0,""viewing_time"":86780}]","86780","","","","","","","","","","","","","",""
"","","","","","instructions","5","257332","0.0-5.0","654617A0544B406E9CEF87AA74EE77A6","019cfc32-b46e-7429-9d39-3c3fd0da7401","019cfc28-2143-7934-89cc-ce6402563331","[{""page_index"":0,""viewing_time"":9595}]","9596","","","","","","","","","","","","","",""
"","","","","","html-keyboard-response","6","261335","0.0-6.0","654617A0544B406E9CEF87AA74EE77A6","019cfc32-b46e-7429-9d39-3c3fd0da7401","019cfc28-2143-7934-89cc-ce6402563331","","null","
                <div class=""stimulus-container"">
                    <img src=""images/instructions/movie_1.png"" class=""exp-image"">
                    <div class=""question-area""></div> 
                </div>","null","","","","","","","","","","","",""
"","","","","","html-button-response","7","263245","0.0-7.0","654617A0544B406E9CEF87AA74EE77A6","019cfc32-b46e-7429-9d39-3c3fd0da7401","019cfc28-2143-7934-89cc-ce6402563331","","1907","
                <div class=""stimulus-container"">
                    <img src=""images/instructions/movie_1.png"" class=""exp-image"">
                    <div class=""question-area"">
                        <p style=""font-size: 20px; font-weight: bold; margin: 0;"">Was there a person in this image?</p>
                    </div>
                </div>","0","example_question","1","","","","","","","","","",""
"","","","","","html-keyboard-response","8","267259","0.0-8.0","654617A0544B406E9CEF87AA74EE77A6","019cfc32-b46e-7429-9d39-3c3fd0da7401","019cfc28-2143-7934-89cc-ce6402563331","","null","
                <div class=""stimulus-container"">
                    <img src=""images/instructions/movie_2.png"" class=""exp-image"">
                    <div class=""question-area""></div> 
                </div>","null","","","","","","","","","","","",""
"","","","","","html-button-response","9","267996","0.0-9.0","654617A0544B406E9CEF87AA74EE77A6","019cfc32-b46e-7429-9d39-3c3fd0da7401","019cfc28-2143-7934-89cc-ce6402563331","","736","
                <div class=""stimulus-container"">
                    <img src=""images/instructions/movie_2.png"" class=""exp-image"">
                    <div class=""question-area"">
                        <p style=""font-size: 20px; font-weight: bold; margin: 0;"">Was there a person in this image?</p>
                    </div>
                </div>","0","example_question","2","","","","","","","","","",""
"","","","","","html-keyboard-response","10","272009","0.0-10.0","654617A0544B406E9CEF87AA74EE77A6","019cfc32-b46e-7429-9d39-3c3fd0da7401","019cfc28-2143-7934-89cc-ce6402563331","","null","
                <div class=""stimulus-container"">
                    <img src=""images/instructions/movie_3.png"" class=""exp-image"">
                    <div class=""question-area""></div> 
                </div>","null","","","","","","","","","","","",""
"","","","","","html-button-response","11","273696","0.0-11.0","654617A0544B406E9CEF87AA74EE77A6","019cfc32-b46e-7429-9d39-3c3fd0da7401","019cfc28-2143-7934-89cc-ce6402563331","","1686","
                <div class=""stimulus-container"">
                    <img src=""images/instructions/movie_3.png"" class=""exp-image"">
                    <div class=""question-area"">
                        <p style=""font-size: 20px; font-weight: bold; margin: 0;"">Was there a person in this image?</p>
                    </div>
                </div>","0","example_question","3","","","","","","","","","",""
"","","","","","html-keyboard-response","12","277711","0.0-12.0","654617A0544B406E9CEF87AA74EE77A6","019cfc32-b46e-7429-9d39-3c3fd0da7401","019cfc28-2143-7934-89cc-ce6402563331","","null","
                <div class=""stimulus-container"">
                    <img src=""images/instructions/movie_4.png"" class=""exp-image"">
                    <div class=""question-area""></div> 
                </div>","null","","","","","","","","","","","",""
"","","","","","html-button-response","13","278476","0.0-13.0","654617A0544B406E9CEF87AA74EE77A6","019cfc32-b46e-7429-9d39-3c3fd0da7401","019cfc28-2143-7934-89cc-ce6402563331","","764","
                <div class=""stimulus-container"">
                    <img src=""images/instructions/movie_4.png"" class=""exp-image"">
                    <div class=""question-area"">
                        <p style=""font-size: 20px; font-weight: bold; margin: 0;"">Was there a person in this image?</p>
                    </div>
                </div>","0","example_question","4","","","","","","","","","",""
"","","","","","instructions","14","282208","0.0-14.0","654617A0544B406E9CEF87AA74EE77A6","019cfc32-b46e-7429-9d39-3c3fd0da7401","019cfc28-2143-7934-89cc-ce6402563331","[{""page_index"":0,""viewing_time"":3731}]","3731","","","","","","","","","","","","","",""
"","","","","","instructions","15","291357","0.0-15.0","654617A0544B406E9CEF87AA74EE77A6","019cfc32-b46e-7429-9d39-3c3fd0da7401","019cfc28-2143-7934-89cc-ce6402563331","[{""page_index"":0,""viewing_time"":9147}]","9148","","","","","","","","","","","","","",""
"","","","","","html-keyboard-response","16","296370","0.0-16.0","654617A0544B406E9CEF87AA74EE77A6","019cfc32-b46e-7429-9d39-3c3fd0da7401","019cfc28-2143-7934-89cc-ce6402563331","","null","<div style=""background-color: white; width: 100vw; height: 100vh;""></div>","null","","","","","","","","","","","",""
"","","","","","html-keyboard-response","17","301380","0.0-17.0","654617A0544B406E9CEF87AA74EE77A6","019cfc32-b46e-7429-9d39-3c3fd0da7401","019cfc28-2143-7934-89cc-ce6402563331","","null","
                <div class=""stimulus-container"">
                    <img src=""images/semantic_sequence/exploring_nature_semantic/exploring_nature_semantic_1.png"" class=""exp-image"">
                    <div class=""question-area""></div> 
                </div>","null","","","","","","","","","","","",""
"","","","","","html-button-response","18","303046","0.0-18.0","654617A0544B406E9CEF87AA74EE77A6","019cfc32-b46e-7429-9d39-3c3fd0da7401","019cfc28-2143-7934-89cc-ce6402563331","","1663","
                <div class=""stimulus-container"">
                    <img src=""images/semantic_sequence/exploring_nature_semantic/exploring_nature_semantic_1.png"" class=""exp-image"">
                    <div class=""question-area"">
                        <p style=""font-size: 20px; font-weight: bold; margin: 0;"">Is there a person in this image?</p>
                    </div>
                </div>","0","main_experiment_trial","1","exploring_nature_semantic","semantic_sequence","chronological","","","","","","",""
"","","","","","html-keyboard-response","19","308054","0.0-19.0","654617A0544B406E9CEF87AA74EE77A6","019cfc32-b46e-7429-9d39-3c3fd0da7401","019cfc28-2143-7934-89cc-ce6402563331","","null","
                <div class=""stimulus-container"">
                    <img src=""images/semantic_sequence/exploring_nature_semantic/exploring_nature_semantic_2.png"" class=""exp-image"">
                    <div class=""question-area""></div> 
                </div>","null","","","","","","","","","","","",""
"","","","","","html-button-response","20","310405","0.0-20.0","654617A0544B406E9CEF87AA74EE77A6","019cfc32-b46e-7429-9d39-3c3fd0da7401","019cfc28-2143-7934-89cc-ce6402563331","","2350","
                <div class=""stimulus-container"">
                    <img src=""images/semantic_sequence/exploring_nature_semantic/exploring_nature_semantic_2.png"" class=""exp-image"">
                    <div class=""question-area"">
                        <p style=""font-size: 20px; font-weight: bold; margin: 0;"">Is there a person in this image?</p>
                    </div>
                </div>","0","main_experiment_trial","2","exploring_nature_semantic","semantic_sequence","chronological","","","","","","",""
"","","","","","html-keyboard-response","21","315423","0.0-21.0","654617A0544B406E9CEF87AA74EE77A6","019cfc32-b46e-7429-9d39-3c3fd0da7401","019cfc28-2143-7934-89cc-ce6402563331","","null","
                <div class=""stimulus-container"">
                    <img src=""images/semantic_sequence/exploring_nature_semantic/exploring_nature_semantic_3.png"" class=""exp-image"">
                    <div class=""question-area""></div> 
                </div>","null","","","","","","","","","","","",""
"","","","","","html-button-response","22","317357","0.0-22.0","654617A0544B406E9CEF87AA74EE77A6","019cfc32-b46e-7429-9d39-3c3fd0da7401","019cfc28-2143-7934-89cc-ce6402563331","","1932","
                <div class=""stimulus-container"">
                    <img src=""images/semantic_sequence/exploring_nature_semantic/exploring_nature_semantic_3.png"" class=""exp-image"">
                    <div class=""question-area"">
                        <p style=""font-size: 20px; font-weight: bold; margin: 0;"">Is there a person in this image?</p>
                    </div>
                </div>","0","main_experiment_trial","3","exploring_nature_semantic","semantic_sequence","chronological","","","","","","",""
"","","","","","html-keyboard-response","23","322364","0.0-23.0","654617A0544B406E9CEF87AA74EE77A6","019cfc32-b46e-7429-9d39-3c3fd0da7401","019cfc28-2143-7934-89cc-ce6402563331","","null","
                <div class=""stimulus-container"">
                    <img src=""images/semantic_sequence/exploring_nature_semantic/exploring_nature_semantic_4.png"" class=""exp-image"">
                    <div class=""question-area""></div> 
                </div>","null","","","","","","","","","","","",""
"","","","","","html-button-response","24","323384","0.0-24.0","654617A0544B406E9CEF87AA74EE77A6","019cfc32-b46e-7429-9d39-3c3fd0da7401","019cfc28-2143-7934-89cc-ce6402563331","","1019","
                <div class=""stimulus-container"">
                    <img src=""images/semantic_sequence/exploring_nature_semantic/exploring_nature_semantic_4.png"" class=""exp-image"">
                    <div class=""question-area"">
                        <p style=""font-size: 20px; font-weight: bold; margin: 0;"">Is there a person in this image?</p>
                    </div>
                </div>","0","main_experiment_trial","4","exploring_nature_semantic","semantic_sequence","chronological","","","","","","",""
"","","","","","html-keyboard-response","25","328388","0.0-25.0","654617A0544B406E9CEF87AA74EE77A6","019cfc32-b46e-7429-9d39-3c3fd0da7401","019cfc28-2143-7934-89cc-ce6402563331","","null","
                <div class=""stimulus-container"">
                    <img src=""images/semantic_sequence/exploring_nature_semantic/exploring_nature_semantic_5.png"" class=""exp-image"">
                    <div class=""question-area""></div> 
                </div>","null","","","","","","","","","","","",""
"","","","","","html-button-response","26","330469","0.0-26.0","654617A0544B406E9CEF87AA74EE77A6","019cfc32-b46e-7429-9d39-3c3fd0da7401","019cfc28-2143-7934-89cc-ce6402563331","","2079","
                <div class=""stimulus-container"">
                    <img src=""images/semantic_sequence/exploring_nature_semantic/exploring_nature_semantic_5.png"" class=""exp-image"">
                    <div class=""question-area"">
                        <p style=""font-size: 20px; font-weight: bold; margin: 0;"">Is there a person in this image?</p>
                    </div>
                </div>","0","main_experiment_trial","5","exploring_nature_semantic","semantic_sequence","chronological","","","","","","",""
"","","","","","html-keyboard-response","27","335475","0.0-27.0","654617A0544B406E9CEF87AA74EE77A6","019cfc32-b46e-7429-9d39-3c3fd0da7401","019cfc28-2143-7934-89cc-ce6402563331","","null","
                <div class=""stimulus-container"">
                    <img src=""images/semantic_sequence/exploring_nature_semantic/exploring_nature_semantic_6.png"" class=""exp-image"">
                    <div class=""question-area""></div> 
                </div>","null","","","","","","","","","","","",""
"","","","","","html-button-response","28","337595","0.0-28.0","654617A0544B406E9CEF87AA74EE77A6","019cfc32-b46e-7429-9d39-3c3fd0da7401","019cfc28-2143-7934-89cc-ce6402563331","","2119","
                <div class=""stimulus-container"">
                    <img src=""images/semantic_sequence/exploring_nature_semantic/exploring_nature_semantic_6.png"" class=""exp-image"">
                    <div class=""question-area"">
                        <p style=""font-size: 20px; font-weight: bold; margin: 0;"">Is there a person in this image?</p>
                    </div>
                </div>","0","main_experiment_trial","6","exploring_nature_semantic","semantic_sequence","chronological","","","","","","",""
"","","","","","html-keyboard-response","29","342609","0.0-29.0","654617A0544B406E9CEF87AA74EE77A6","019cfc32-b46e-7429-9d39-3c3fd0da7401","019cfc28-2143-7934-89cc-ce6402563331","","null","
                <div class=""stimulus-container"">
                    <img src=""images/semantic_sequence/exploring_nature_semantic/exploring_nature_semantic_7.png"" class=""exp-image"">
                    <div class=""question-area""></div> 
                </div>","null","","","","","","","","","","","",""
"","","","","","html-button-response","30","343592","0.0-30.0","654617A0544B406E9CEF87AA74EE77A6","019cfc32-b46e-7429-9d39-3c3fd0da7401","019cfc28-2143-7934-89cc-ce6402563331","","981","
                <div class=""stimulus-container"">
                    <img src=""images/semantic_sequence/exploring_nature_semantic/exploring_nature_semantic_7.png"" class=""exp-image"">
                    <div class=""question-area"">
                        <p style=""font-size: 20px; font-weight: bold; margin: 0;"">Is there a person in this image?</p>
                    </div>
                </div>","0","main_experiment_trial","7","exploring_nature_semantic","semantic_sequence","chronological","","","","","","",""
"","","","","","html-keyboard-response","31","348594","0.0-31.0","654617A0544B406E9CEF87AA74EE77A6","019cfc32-b46e-7429-9d39-3c3fd0da7401","019cfc28-2143-7934-89cc-ce6402563331","","null","
                <div class=""stimulus-container"">
                    <img src=""images/semantic_sequence/exploring_nature_semantic/exploring_nature_semantic_8.png"" class=""exp-image"">
                    <div class=""question-area""></div> 
                </div>","null","","","","","","","","","","","",""
"","","","","","html-button-response","32","350582","0.0-32.0","654617A0544B406E9CEF87AA74EE77A6","019cfc32-b46e-7429-9d39-3c3fd0da7401","019cfc28-2143-7934-89cc-ce6402563331","","1986","
                <div class=""stimulus-container"">
                    <img src=""images/semantic_sequence/exploring_nature_semantic/exploring_nature_semantic_8.png"" class=""exp-image"">
                    <div class=""question-area"">
                        <p style=""font-size: 20px; font-weight: bold; margin: 0;"">Is there a person in this image?</p>
                    </div>
                </div>","0","main_experiment_trial","8","exploring_nature_semantic","semantic_sequence","chronological","","","","","","",""
"","","","","","html-keyboard-response","33","355590","0.0-33.0","654617A0544B406E9CEF87AA74EE77A6","019cfc32-b46e-7429-9d39-3c3fd0da7401","019cfc28-2143-7934-89cc-ce6402563331","","null","
                <div class=""stimulus-container"">
                    <img src=""images/semantic_sequence/exploring_nature_semantic/exploring_nature_semantic_9.png"" class=""exp-image"">
                    <div class=""question-area""></div> 
                </div>","null","","","","","","","","","","","",""
"","","","","","html-button-response","34","356847","0.0-34.0","654617A0544B406E9CEF87AA74EE77A6","019cfc32-b46e-7429-9d39-3c3fd0da7401","019cfc28-2143-7934-89cc-ce6402563331","","1255","
                <div class=""stimulus-container"">
                    <img src=""images/semantic_sequence/exploring_nature_semantic/exploring_nature_semantic_9.png"" class=""exp-image"">
                    <div class=""question-area"">
                        <p style=""font-size: 20px; font-weight: bold; margin: 0;"">Is there a person in this image?</p>
                    </div>
                </div>","0","main_experiment_trial","9","exploring_nature_semantic","semantic_sequence","chronological","","","","","","",""
"","","","","","html-keyboard-response","35","361861","0.0-35.0","654617A0544B406E9CEF87AA74EE77A6","019cfc32-b46e-7429-9d39-3c3fd0da7401","019cfc28-2143-7934-89cc-ce6402563331","","null","
                <div class=""stimulus-container"">
                    <img src=""images/semantic_sequence/exploring_nature_semantic/exploring_nature_semantic_ten.png"" class=""exp-image"">
                    <div class=""question-area""></div> 
                </div>","null","","","","","","","","","","","",""
"","","","","","html-button-response","36","364523","0.0-36.0","654617A0544B406E9CEF87AA74EE77A6","019cfc32-b46e-7429-9d39-3c3fd0da7401","019cfc28-2143-7934-89cc-ce6402563331","","2661","
                <div class=""stimulus-container"">
                    <img src=""images/semantic_sequence/exploring_nature_semantic/exploring_nature_semantic_ten.png"" class=""exp-image"">
                    <div class=""question-area"">
                        <p style=""font-size: 20px; font-weight: bold; margin: 0;"">Is there a person in this image?</p>
                    </div>
                </div>","0","main_experiment_trial","ten","exploring_nature_semantic","semantic_sequence","chronological","","","","","","",""
"","","","","","html-keyboard-response","37","369526","0.0-37.0","654617A0544B406E9CEF87AA74EE77A6","019cfc32-b46e-7429-9d39-3c3fd0da7401","019cfc28-2143-7934-89cc-ce6402563331","","null","<div style=""background-color: white; width: 100vw; height: 100vh;""></div>","null","","","","","","","","","","","",""
"","","","","","html-keyboard-response","38","374529","0.0-38.0","654617A0544B406E9CEF87AA74EE77A6","019cfc32-b46e-7429-9d39-3c3fd0da7401","019cfc28-2143-7934-89cc-ce6402563331","","null","
                <div class=""stimulus-container"">
                    <img src=""images/schematic_sequence/restaurant_scheme/restaurant_scheme_1.png"" class=""exp-image"">
                    <div class=""question-area""></div> 
                </div>","null","","","","","","","","","","","",""
"","","","","","html-button-response","39","377243","0.0-39.0","654617A0544B406E9CEF87AA74EE77A6","019cfc32-b46e-7429-9d39-3c3fd0da7401","019cfc28-2143-7934-89cc-ce6402563331","","2712","
                <div class=""stimulus-container"">
                    <img src=""images/schematic_sequence/restaurant_scheme/restaurant_scheme_1.png"" class=""exp-image"">
                    <div class=""question-area"">
                        <p style=""font-size: 20px; font-weight: bold; margin: 0;"">Is there a person in this image?</p>
                    </div>
                </div>","0","main_experiment_trial","1","restaurant_scheme","schematic_sequence","chronological","","","","","","",""
"","","","","","html-keyboard-response","40","382253","0.0-40.0","654617A0544B406E9CEF87AA74EE77A6","019cfc32-b46e-7429-9d39-3c3fd0da7401","019cfc28-2143-7934-89cc-ce6402563331","","null","
                <div class=""stimulus-container"">
                    <img src=""images/schematic_sequence/restaurant_scheme/restaurant_scheme_2.png"" class=""exp-image"">
                    <div class=""question-area""></div> 
                </div>","null","","","","","","","","","","","",""
"","","","","","html-button-response","41","383247","0.0-41.0","654617A0544B406E9CEF87AA74EE77A6","019cfc32-b46e-7429-9d39-3c3fd0da7401","019cfc28-2143-7934-89cc-ce6402563331","","993","
                <div class=""stimulus-container"">
                    <img src=""images/schematic_sequence/restaurant_scheme/restaurant_scheme_2.png"" class=""exp-image"">
                    <div class=""question-area"">
                        <p style=""font-size: 20px; font-weight: bold; margin: 0;"">Is there a person in this image?</p>
                    </div>
                </div>","1","main_experiment_trial","2","restaurant_scheme","schematic_sequence","chronological","","","","","","",""
"","","","","","html-keyboard-response","42","388256","0.0-42.0","654617A0544B406E9CEF87AA74EE77A6","019cfc32-b46e-7429-9d39-3c3fd0da7401","019cfc28-2143-7934-89cc-ce6402563331","","null","
                <div class=""stimulus-container"">
                    <img src=""images/schematic_sequence/restaurant_scheme/restaurant_scheme_3.png"" class=""exp-image"">
                    <div class=""question-area""></div> 
                </div>","null","","","","","","","","","","","",""
"","","","","","html-button-response","43","389205","0.0-43.0","654617A0544B406E9CEF87AA74EE77A6","019cfc32-b46e-7429-9d39-3c3fd0da7401","019cfc28-2143-7934-89cc-ce6402563331","","948","
                <div class=""stimulus-container"">
                    <img src=""images/schematic_sequence/restaurant_scheme/restaurant_scheme_3.png"" class=""exp-image"">
                    <div class=""question-area"">
                        <p style=""font-size: 20px; font-weight: bold; margin: 0;"">Is there a person in this image?</p>
                    </div>
                </div>","1","main_experiment_trial","3","restaurant_scheme","schematic_sequence","chronological","","","","","","",""
"","","","","","html-keyboard-response","44","394207","0.0-44.0","654617A0544B406E9CEF87AA74EE77A6","019cfc32-b46e-7429-9d39-3c3fd0da7401","019cfc28-2143-7934-89cc-ce6402563331","","null","
                <div class=""stimulus-container"">
                    <img src=""images/schematic_sequence/restaurant_scheme/restaurant_scheme_4.png"" class=""exp-image"">
                    <div class=""question-area""></div> 
                </div>","null","","","","","","","","","","","",""
"","","","","","html-button-response","45","395211","0.0-45.0","654617A0544B406E9CEF87AA74EE77A6","019cfc32-b46e-7429-9d39-3c3fd0da7401","019cfc28-2143-7934-89cc-ce6402563331","","1003","
                <div class=""stimulus-container"">
                    <img src=""images/schematic_sequence/restaurant_scheme/restaurant_scheme_4.png"" class=""exp-image"">
                    <div class=""question-area"">
                        <p style=""font-size: 20px; font-weight: bold; margin: 0;"">Is there a person in this image?</p>
                    </div>
                </div>","0","main_experiment_trial","4","restaurant_scheme","schematic_sequence","chronological","","","","","","",""
"","","","","","html-keyboard-response","46","400223","0.0-46.0","654617A0544B406E9CEF87AA74EE77A6","019cfc32-b46e-7429-9d39-3c3fd0da7401","019cfc28-2143-7934-89cc-ce6402563331","","null","
                <div class=""stimulus-container"">
                    <img src=""images/schematic_sequence/restaurant_scheme/restaurant_scheme_5.png"" class=""exp-image"">
                    <div class=""question-area""></div> 
                </div>","null","","","","","","","","","","","",""
"","","","","","html-button-response","47","402004","0.0-47.0","654617A0544B406E9CEF87AA74EE77A6","019cfc32-b46e-7429-9d39-3c3fd0da7401","019cfc28-2143-7934-89cc-ce6402563331","","1779","
                <div class=""stimulus-container"">
                    <img src=""images/schematic_sequence/restaurant_scheme/restaurant_scheme_5.png"" class=""exp-image"">
                    <div class=""question-area"">
                        <p style=""font-size: 20px; font-weight: bold; margin: 0;"">Is there a person in this image?</p>
                    </div>
                </div>","0","main_experiment_trial","5","restaurant_scheme","schematic_sequence","chronological","","","","","","",""
"","","","","","html-keyboard-response","48","407015","0.0-48.0","654617A0544B406E9CEF87AA74EE77A6","019cfc32-b46e-7429-9d39-3c3fd0da7401","019cfc28-2143-7934-89cc-ce6402563331","","null","
                <div class=""stimulus-container"">
                    <img src=""images/schematic_sequence/restaurant_scheme/restaurant_scheme_6.png"" class=""exp-image"">
                    <div class=""question-area""></div> 
                </div>","null","","","","","","","","","","","",""
"","","","","","html-button-response","49","410023","0.0-49.0","654617A0544B406E9CEF87AA74EE77A6","019cfc32-b46e-7429-9d39-3c3fd0da7401","019cfc28-2143-7934-89cc-ce6402563331","","null","
                <div class=""stimulus-container"">
                    <img src=""images/schematic_sequence/restaurant_scheme/restaurant_scheme_6.png"" class=""exp-image"">
                    <div class=""question-area"">
                        <p style=""font-size: 20px; font-weight: bold; margin: 0;"">Is there a person in this image?</p>
                    </div>
                </div>","null","main_experiment_trial","6","restaurant_scheme","schematic_sequence","chronological","","","","","","",""
"","","","","","html-keyboard-response","50","415030","0.0-50.0","654617A0544B406E9CEF87AA74EE77A6","019cfc32-b46e-7429-9d39-3c3fd0da7401","019cfc28-2143-7934-89cc-ce6402563331","","null","
                <div class=""stimulus-container"">
                    <img src=""images/schematic_sequence/restaurant_scheme/restaurant_scheme_7.png"" class=""exp-image"">
                    <div class=""question-area""></div> 
                </div>","null","","","","","","","","","","","",""
"","","","","","html-button-response","51","416144","0.0-51.0","654617A0544B406E9CEF87AA74EE77A6","019cfc32-b46e-7429-9d39-3c3fd0da7401","019cfc28-2143-7934-89cc-ce6402563331","","1113","
                <div class=""stimulus-container"">
                    <img src=""images/schematic_sequence/restaurant_scheme/restaurant_scheme_7.png"" class=""exp-image"">
                    <div class=""question-area"">
                        <p style=""font-size: 20px; font-weight: bold; margin: 0;"">Is there a person in this image?</p>
                    </div>
                </div>","1","main_experiment_trial","7","restaurant_scheme","schematic_sequence","chronological","","","","","","",""
"","","","","","html-keyboard-response","52","421146","0.0-52.0","654617A0544B406E9CEF87AA74EE77A6","019cfc32-b46e-7429-9d39-3c3fd0da7401","019cfc28-2143-7934-89cc-ce6402563331","","null","
                <div class=""stimulus-container"">
                    <img src=""images/schematic_sequence/restaurant_scheme/restaurant_scheme_8.png"" class=""exp-image"">
                    <div class=""question-area""></div> 
                </div>","null","","","","","","","","","","","",""
"","","","","","html-button-response","53","424150","0.0-53.0","654617A0544B406E9CEF87AA74EE77A6","019cfc32-b46e-7429-9d39-3c3fd0da7401","019cfc28-2143-7934-89cc-ce6402563331","","null","
                <div class=""stimulus-container"">
                    <img src=""images/schematic_sequence/restaurant_scheme/restaurant_scheme_8.png"" class=""exp-image"">
                    <div class=""question-area"">
                        <p style=""font-size: 20px; font-weight: bold; margin: 0;"">Is there a person in this image?</p>
                    </div>
                </div>","null","main_experiment_trial","8","restaurant_scheme","schematic_sequence","chronological","","","","","","",""
"","","","","","html-keyboard-response","54","429165","0.0-54.0","654617A0544B406E9CEF87AA74EE77A6","019cfc32-b46e-7429-9d39-3c3fd0da7401","019cfc28-2143-7934-89cc-ce6402563331","","null","
                <div class=""stimulus-container"">
                    <img src=""images/schematic_sequence/restaurant_scheme/restaurant_scheme_9.png"" class=""exp-image"">
                    <div class=""question-area""></div> 
                </div>","null","","","","","","","","","","","",""
"","","","","","html-button-response","55","430201","0.0-55.0","654617A0544B406E9CEF87AA74EE77A6","019cfc32-b46e-7429-9d39-3c3fd0da7401","019cfc28-2143-7934-89cc-ce6402563331","","1034","
                <div class=""stimulus-container"">
                    <img src=""images/schematic_sequence/restaurant_scheme/restaurant_scheme_9.png"" class=""exp-image"">
                    <div class=""question-area"">
                        <p style=""font-size: 20px; font-weight: bold; margin: 0;"">Is there a person in this image?</p>
                    </div>
                </div>","0","main_experiment_trial","9","restaurant_scheme","schematic_sequence","chronological","","","","","","",""
"","","","","","html-keyboard-response","56","435203","0.0-56.0","654617A0544B406E9CEF87AA74EE77A6","019cfc32-b46e-7429-9d39-3c3fd0da7401","019cfc28-2143-7934-89cc-ce6402563331","","null","
                <div class=""stimulus-container"">
                    <img src=""images/schematic_sequence/restaurant_scheme/restaurant_scheme_ten.png"" class=""exp-image"">
                    <div class=""question-area""></div> 
                </div>","null","","","","","","","","","","","",""
"","","","","","html-button-response","57","436172","0.0-57.0","654617A0544B406E9CEF87AA74EE77A6","019cfc32-b46e-7429-9d39-3c3fd0da7401","019cfc28-2143-7934-89cc-ce6402563331","","968","
                <div class=""stimulus-container"">
                    <img src=""images/schematic_sequence/restaurant_scheme/restaurant_scheme_ten.png"" class=""exp-image"">
                    <div class=""question-area"">
                        <p style=""font-size: 20px; font-weight: bold; margin: 0;"">Is there a person in this image?</p>
                    </div>
                </div>","0","main_experiment_trial","ten","restaurant_scheme","schematic_sequence","chronological","","","","","","",""
"","","","","","html-keyboard-response","58","441180","0.0-58.0","654617A0544B406E9CEF87AA74EE77A6","019cfc32-b46e-7429-9d39-3c3fd0da7401","019cfc28-2143-7934-89cc-ce6402563331","","null","<div style=""background-color: white; width: 100vw; height: 100vh;""></div>","null","","","","","","","","","","","",""
"","","","","","html-keyboard-response","59","446183","0.0-59.0","654617A0544B406E9CEF87AA74EE77A6","019cfc32-b46e-7429-9d39-3c3fd0da7401","019cfc28-2143-7934-89cc-ce6402563331","","null","
                <div class=""stimulus-container"">
                    <img src=""images/semantic_sequence/using_technology_semantic/using_technology_semantic_1.png"" class=""exp-image"">
                    <div class=""question-area""></div> 
                </div>","null","","","","","","","","","","","",""
"","","","","","html-button-response","60","447941","0.0-60.0","654617A0544B406E9CEF87AA74EE77A6","019cfc32-b46e-7429-9d39-3c3fd0da7401","019cfc28-2143-7934-89cc-ce6402563331","","1757","
                <div class=""stimulus-container"">
                    <img src=""images/semantic_sequence/using_technology_semantic/using_technology_semantic_1.png"" class=""exp-image"">
                    <div class=""question-area"">
                        <p style=""font-size: 20px; font-weight: bold; margin: 0;"">Is there a person in this image?</p>
                    </div>
                </div>","0","main_experiment_trial","1","using_technology_semantic","semantic_sequence","chronological","","","","","","",""
"","","","","","html-keyboard-response","61","452942","0.0-61.0","654617A0544B406E9CEF87AA74EE77A6","019cfc32-b46e-7429-9d39-3c3fd0da7401","019cfc28-2143-7934-89cc-ce6402563331","","null","
                <div class=""stimulus-container"">
                    <img src=""images/semantic_sequence/using_technology_semantic/using_technology_semantic_2.png"" class=""exp-image"">
                    <div class=""question-area""></div> 
                </div>","null","","","","","","","","","","","",""
"","","","","","html-button-response","62","453933","0.0-62.0","654617A0544B406E9CEF87AA74EE77A6","019cfc32-b46e-7429-9d39-3c3fd0da7401","019cfc28-2143-7934-89cc-ce6402563331","","990","
                <div class=""stimulus-container"">
                    <img src=""images/semantic_sequence/using_technology_semantic/using_technology_semantic_2.png"" class=""exp-image"">
                    <div class=""question-area"">
                        <p style=""font-size: 20px; font-weight: bold; margin: 0;"">Is there a person in this image?</p>
                    </div>
                </div>","0","main_experiment_trial","2","using_technology_semantic","semantic_sequence","chronological","","","","","","",""
"","","","","","html-keyboard-response","63","458941","0.0-63.0","654617A0544B406E9CEF87AA74EE77A6","019cfc32-b46e-7429-9d39-3c3fd0da7401","019cfc28-2143-7934-89cc-ce6402563331","","null","
                <div class=""stimulus-container"">
                    <img src=""images/semantic_sequence/using_technology_semantic/using_technology_semantic_3.png"" class=""exp-image"">
                    <div class=""question-area""></div> 
                </div>","null","","","","","","","","","","","",""
"","","","","","html-button-response","64","459750","0.0-64.0","654617A0544B406E9CEF87AA74EE77A6","019cfc32-b46e-7429-9d39-3c3fd0da7401","019cfc28-2143-7934-89cc-ce6402563331","","807","
                <div class=""stimulus-container"">
                    <img src=""images/semantic_sequence/using_technology_semantic/using_technology_semantic_3.png"" class=""exp-image"">
                    <div class=""question-area"">
                        <p style=""font-size: 20px; font-weight: bold; margin: 0;"">Is there a person in this image?</p>
                    </div>
                </div>","0","main_experiment_trial","3","using_technology_semantic","semantic_sequence","chronological","","","","","","",""
"","","","","","html-keyboard-response","65","464759","0.0-65.0","654617A0544B406E9CEF87AA74EE77A6","019cfc32-b46e-7429-9d39-3c3fd0da7401","019cfc28-2143-7934-89cc-ce6402563331","","null","
                <div class=""stimulus-container"">
                    <img src=""images/semantic_sequence/using_technology_semantic/using_technology_semantic_4.png"" class=""exp-image"">
                    <div class=""question-area""></div> 
                </div>","null","","","","","","","","","","","",""
"","","","","","html-button-response","66","465617","0.0-66.0","654617A0544B406E9CEF87AA74EE77A6","019cfc32-b46e-7429-9d39-3c3fd0da7401","019cfc28-2143-7934-89cc-ce6402563331","","857","
                <div class=""stimulus-container"">
                    <img src=""images/semantic_sequence/using_technology_semantic/using_technology_semantic_4.png"" class=""exp-image"">
                    <div class=""question-area"">
                        <p style=""font-size: 20px; font-weight: bold; margin: 0;"">Is there a person in this image?</p>
                    </div>
                </div>","0","main_experiment_trial","4","using_technology_semantic","semantic_sequence","chronological","","","","","","",""
"","","","","","html-keyboard-response","67","470622","0.0-67.0","654617A0544B406E9CEF87AA74EE77A6","019cfc32-b46e-7429-9d39-3c3fd0da7401","019cfc28-2143-7934-89cc-ce6402563331","","null","
                <div class=""stimulus-container"">
                    <img src=""images/semantic_sequence/using_technology_semantic/using_technology_semantic_5.png"" class=""exp-image"">
                    <div class=""question-area""></div> 
                </div>","null","","","","","","","","","","","",""
"","","","","","html-button-response","68","471897","0.0-68.0","654617A0544B406E9CEF87AA74EE77A6","019cfc32-b46e-7429-9d39-3c3fd0da7401","019cfc28-2143-7934-89cc-ce6402563331","","1274","
                <div class=""stimulus-container"">
                    <img src=""images/semantic_sequence/using_technology_semantic/using_technology_semantic_5.png"" class=""exp-image"">
                    <div class=""question-area"">
                        <p style=""font-size: 20px; font-weight: bold; margin: 0;"">Is there a person in this image?</p>
                    </div>
                </div>","0","main_experiment_trial","5","using_technology_semantic","semantic_sequence","chronological","","","","","","",""
"","","","","","html-keyboard-response","69","476900","0.0-69.0","654617A0544B406E9CEF87AA74EE77A6","019cfc32-b46e-7429-9d39-3c3fd0da7401","019cfc28-2143-7934-89cc-ce6402563331","","null","
                <div class=""stimulus-container"">
                    <img src=""images/semantic_sequence/using_technology_semantic/using_technology_semantic_6.png"" class=""exp-image"">
                    <div class=""question-area""></div> 
                </div>","null","","","","","","","","","","","",""
"","","","","","html-button-response","70","477478","0.0-70.0","654617A0544B406E9CEF87AA74EE77A6","019cfc32-b46e-7429-9d39-3c3fd0da7401","019cfc28-2143-7934-89cc-ce6402563331","","576","
                <div class=""stimulus-container"">
                    <img src=""images/semantic_sequence/using_technology_semantic/using_technology_semantic_6.png"" class=""exp-image"">
                    <div class=""question-area"">
                        <p style=""font-size: 20px; font-weight: bold; margin: 0;"">Is there a person in this image?</p>
                    </div>
                </div>","0","main_experiment_trial","6","using_technology_semantic","semantic_sequence","chronological","","","","","","",""
"","","","","","html-keyboard-response","71","482491","0.0-71.0","654617A0544B406E9CEF87AA74EE77A6","019cfc32-b46e-7429-9d39-3c3fd0da7401","019cfc28-2143-7934-89cc-ce6402563331","","null","
                <div class=""stimulus-container"">
                    <img src=""images/semantic_sequence/using_technology_semantic/using_technology_semantic_7.png"" class=""exp-image"">
                    <div class=""question-area""></div> 
                </div>","null","","","","","","","","","","","",""
"","","","","","html-button-response","72","483706","0.0-72.0","654617A0544B406E9CEF87AA74EE77A6","019cfc32-b46e-7429-9d39-3c3fd0da7401","019cfc28-2143-7934-89cc-ce6402563331","","1213","
                <div class=""stimulus-container"">
                    <img src=""images/semantic_sequence/using_technology_semantic/using_technology_semantic_7.png"" class=""exp-image"">
                    <div class=""question-area"">
                        <p style=""font-size: 20px; font-weight: bold; margin: 0;"">Is there a person in this image?</p>
                    </div>
                </div>","0","main_experiment_trial","7","using_technology_semantic","semantic_sequence","chronological","","","","","","",""
"","","","","","html-keyboard-response","73","488711","0.0-73.0","654617A0544B406E9CEF87AA74EE77A6","019cfc32-b46e-7429-9d39-3c3fd0da7401","019cfc28-2143-7934-89cc-ce6402563331","","null","
                <div class=""stimulus-container"">
                    <img src=""images/semantic_sequence/using_technology_semantic/using_technology_semantic_8.png"" class=""exp-image"">
                    <div class=""question-area""></div> 
                </div>","null","","","","","","","","","","","",""
"","","","","","html-button-response","74","490455","0.0-74.0","654617A0544B406E9CEF87AA74EE77A6","019cfc32-b46e-7429-9d39-3c3fd0da7401","019cfc28-2143-7934-89cc-ce6402563331","","1742","
                <div class=""stimulus-container"">
                    <img src=""images/semantic_sequence/using_technology_semantic/using_technology_semantic_8.png"" class=""exp-image"">
                    <div class=""question-area"">
                        <p style=""font-size: 20px; font-weight: bold; margin: 0;"">Is there a person in this image?</p>
                    </div>
                </div>","0","main_experiment_trial","8","using_technology_semantic","semantic_sequence","chronological","","","","","","",""
"","","","","","html-keyboard-response","75","495457","0.0-75.0","654617A0544B406E9CEF87AA74EE77A6","019cfc32-b46e-7429-9d39-3c3fd0da7401","019cfc28-2143-7934-89cc-ce6402563331","","null","
                <div class=""stimulus-container"">
                    <img src=""images/semantic_sequence/using_technology_semantic/using_technology_semantic_9.png"" class=""exp-image"">
                    <div class=""question-area""></div> 
                </div>","null","","","","","","","","","","","",""
"","","","","","html-button-response","76","496018","0.0-76.0","654617A0544B406E9CEF87AA74EE77A6","019cfc32-b46e-7429-9d39-3c3fd0da7401","019cfc28-2143-7934-89cc-ce6402563331","","559","
                <div class=""stimulus-container"">
                    <img src=""images/semantic_sequence/using_technology_semantic/using_technology_semantic_9.png"" class=""exp-image"">
                    <div class=""question-area"">
                        <p style=""font-size: 20px; font-weight: bold; margin: 0;"">Is there a person in this image?</p>
                    </div>
                </div>","0","main_experiment_trial","9","using_technology_semantic","semantic_sequence","chronological","","","","","","",""
"","","","","","html-keyboard-response","77","501025","0.0-77.0","654617A0544B406E9CEF87AA74EE77A6","019cfc32-b46e-7429-9d39-3c3fd0da7401","019cfc28-2143-7934-89cc-ce6402563331","","null","
                <div class=""stimulus-container"">
                    <img src=""images/semantic_sequence/using_technology_semantic/using_technology_semantic_ten.png"" class=""exp-image"">
                    <div class=""question-area""></div> 
                </div>","null","","","","","","","","","","","",""
"","","","","","html-button-response","78","501718","0.0-78.0","654617A0544B406E9CEF87AA74EE77A6","019cfc32-b46e-7429-9d39-3c3fd0da7401","019cfc28-2143-7934-89cc-ce6402563331","","692","
                <div class=""stimulus-container"">
                    <img src=""images/semantic_sequence/using_technology_semantic/using_technology_semantic_ten.png"" class=""exp-image"">
                    <div class=""question-area"">
                        <p style=""font-size: 20px; font-weight: bold; margin: 0;"">Is there a person in this image?</p>
                    </div>
                </div>","0","main_experiment_trial","ten","using_technology_semantic","semantic_sequence","chronological","","","","","","",""
"","","","","","html-keyboard-response","79","506733","0.0-79.0","654617A0544B406E9CEF87AA74EE77A6","019cfc32-b46e-7429-9d39-3c3fd0da7401","019cfc28-2143-7934-89cc-ce6402563331","","null","<div style=""background-color: white; width: 100vw; height: 100vh;""></div>","null","","","","","","","","","","","",""
"","","","","","html-keyboard-response","80","511747","0.0-80.0","654617A0544B406E9CEF87AA74EE77A6","019cfc32-b46e-7429-9d39-3c3fd0da7401","019cfc28-2143-7934-89cc-ce6402563331","","null","
                <div class=""stimulus-container"">
                    <img src=""images/schematic_sequence/interview_scheme/interview_scheme_1.png"" class=""exp-image"">
                    <div class=""question-area""></div> 
                </div>","null","","","","","","","","","","","",""
"","","","","","html-button-response","81","513431","0.0-81.0","654617A0544B406E9CEF87AA74EE77A6","019cfc32-b46e-7429-9d39-3c3fd0da7401","019cfc28-2143-7934-89cc-ce6402563331","","1682","
                <div class=""stimulus-container"">
                    <img src=""images/schematic_sequence/interview_scheme/interview_scheme_1.png"" class=""exp-image"">
                    <div class=""question-area"">
                        <p style=""font-size: 20px; font-weight: bold; margin: 0;"">Is there a person in this image?</p>
                    </div>
                </div>","1","main_experiment_trial","1","interview_scheme","schematic_sequence","chronological","","","","","","",""
"","","","","","html-keyboard-response","82","518436","0.0-82.0","654617A0544B406E9CEF87AA74EE77A6","019cfc32-b46e-7429-9d39-3c3fd0da7401","019cfc28-2143-7934-89cc-ce6402563331","","null","
                <div class=""stimulus-container"">
                    <img src=""images/schematic_sequence/interview_scheme/interview_scheme_2.png"" class=""exp-image"">
                    <div class=""question-area""></div> 
                </div>","null","","","","","","","","","","","",""
"","","","","","html-button-response","83","519771","0.0-83.0","654617A0544B406E9CEF87AA74EE77A6","019cfc32-b46e-7429-9d39-3c3fd0da7401","019cfc28-2143-7934-89cc-ce6402563331","","1333","
                <div class=""stimulus-container"">
                    <img src=""images/schematic_sequence/interview_scheme/interview_scheme_2.png"" class=""exp-image"">
                    <div class=""question-area"">
                        <p style=""font-size: 20px; font-weight: bold; margin: 0;"">Is there a person in this image?</p>
                    </div>
                </div>","0","main_experiment_trial","2","interview_scheme","schematic_sequence","chronological","","","","","","",""
"","","","","","html-keyboard-response","84","524780","0.0-84.0","654617A0544B406E9CEF87AA74EE77A6","019cfc32-b46e-7429-9d39-3c3fd0da7401","019cfc28-2143-7934-89cc-ce6402563331","","null","
                <div class=""stimulus-container"">
                    <img src=""images/schematic_sequence/interview_scheme/interview_scheme_3.png"" class=""exp-image"">
                    <div class=""question-area""></div> 
                </div>","null","","","","","","","","","","","",""
"","","","","","html-button-response","85","525991","0.0-85.0","654617A0544B406E9CEF87AA74EE77A6","019cfc32-b46e-7429-9d39-3c3fd0da7401","019cfc28-2143-7934-89cc-ce6402563331","","1209","
                <div class=""stimulus-container"">
                    <img src=""images/schematic_sequence/interview_scheme/interview_scheme_3.png"" class=""exp-image"">
                    <div class=""question-area"">
                        <p style=""font-size: 20px; font-weight: bold; margin: 0;"">Is there a person in this image?</p>
                    </div>
                </div>","1","main_experiment_trial","3","interview_scheme","schematic_sequence","chronological","","","","","","",""
"","","","","","html-keyboard-response","86","530992","0.0-86.0","654617A0544B406E9CEF87AA74EE77A6","019cfc32-b46e-7429-9d39-3c3fd0da7401","019cfc28-2143-7934-89cc-ce6402563331","","null","
                <div class=""stimulus-container"">
                    <img src=""images/schematic_sequence/interview_scheme/interview_scheme_4.png"" class=""exp-image"">
                    <div class=""question-area""></div> 
                </div>","null","","","","","","","","","","","",""
"","","","","","html-button-response","87","531839","0.0-87.0","654617A0544B406E9CEF87AA74EE77A6","019cfc32-b46e-7429-9d39-3c3fd0da7401","019cfc28-2143-7934-89cc-ce6402563331","","845","
                <div class=""stimulus-container"">
                    <img src=""images/schematic_sequence/interview_scheme/interview_scheme_4.png"" class=""exp-image"">
                    <div class=""question-area"">
                        <p style=""font-size: 20px; font-weight: bold; margin: 0;"">Is there a person in this image?</p>
                    </div>
                </div>","1","main_experiment_trial","4","interview_scheme","schematic_sequence","chronological","","","","","","",""
"","","","","","html-keyboard-response","88","536841","0.0-88.0","654617A0544B406E9CEF87AA74EE77A6","019cfc32-b46e-7429-9d39-3c3fd0da7401","019cfc28-2143-7934-89cc-ce6402563331","","null","
                <div class=""stimulus-container"">
                    <img src=""images/schematic_sequence/interview_scheme/interview_scheme_5.png"" class=""exp-image"">
                    <div class=""question-area""></div> 
                </div>","null","","","","","","","","","","","",""
"","","","","","html-button-response","89","538284","0.0-89.0","654617A0544B406E9CEF87AA74EE77A6","019cfc32-b46e-7429-9d39-3c3fd0da7401","019cfc28-2143-7934-89cc-ce6402563331","","1442","
                <div class=""stimulus-container"">
                    <img src=""images/schematic_sequence/interview_scheme/interview_scheme_5.png"" class=""exp-image"">
                    <div class=""question-area"">
                        <p style=""font-size: 20px; font-weight: bold; margin: 0;"">Is there a person in this image?</p>
                    </div>
                </div>","0","main_experiment_trial","5","interview_scheme","schematic_sequence","chronological","","","","","","",""
"","","","","","html-keyboard-response","90","543297","0.0-90.0","654617A0544B406E9CEF87AA74EE77A6","019cfc32-b46e-7429-9d39-3c3fd0da7401","019cfc28-2143-7934-89cc-ce6402563331","","null","
                <div class=""stimulus-container"">
                    <img src=""images/schematic_sequence/interview_scheme/interview_scheme_6.png"" class=""exp-image"">
                    <div class=""question-area""></div> 
                </div>","null","","","","","","","","","","","",""
"","","","","","html-button-response","91","544199","0.0-91.0","654617A0544B406E9CEF87AA74EE77A6","019cfc32-b46e-7429-9d39-3c3fd0da7401","019cfc28-2143-7934-89cc-ce6402563331","","901","
                <div class=""stimulus-container"">
                    <img src=""images/schematic_sequence/interview_scheme/interview_scheme_6.png"" class=""exp-image"">
                    <div class=""question-area"">
                        <p style=""font-size: 20px; font-weight: bold; margin: 0;"">Is there a person in this image?</p>
                    </div>
                </div>","0","main_experiment_trial","6","interview_scheme","schematic_sequence","chronological","","","","","","",""
"","","","","","html-keyboard-response","92","549205","0.0-92.0","654617A0544B406E9CEF87AA74EE77A6","019cfc32-b46e-7429-9d39-3c3fd0da7401","019cfc28-2143-7934-89cc-ce6402563331","","null","
                <div class=""stimulus-container"">
                    <img src=""images/schematic_sequence/interview_scheme/interview_scheme_7.png"" class=""exp-image"">
                    <div class=""question-area""></div> 
                </div>","null","","","","","","","","","","","",""
"","","","","","html-button-response","93","550368","0.0-93.0","654617A0544B406E9CEF87AA74EE77A6","019cfc32-b46e-7429-9d39-3c3fd0da7401","019cfc28-2143-7934-89cc-ce6402563331","","1161","
                <div class=""stimulus-container"">
                    <img src=""images/schematic_sequence/interview_scheme/interview_scheme_7.png"" class=""exp-image"">
                    <div class=""question-area"">
                        <p style=""font-size: 20px; font-weight: bold; margin: 0;"">Is there a person in this image?</p>
                    </div>
                </div>","0","main_experiment_trial","7","interview_scheme","schematic_sequence","chronological","","","","","","",""
"","","","","","html-keyboard-response","94","555378","0.0-94.0","654617A0544B406E9CEF87AA74EE77A6","019cfc32-b46e-7429-9d39-3c3fd0da7401","019cfc28-2143-7934-89cc-ce6402563331","","null","
                <div class=""stimulus-container"">
                    <img src=""images/schematic_sequence/interview_scheme/interview_scheme_8.png"" class=""exp-image"">
                    <div class=""question-area""></div> 
                </div>","null","","","","","","","","","","","",""
"","","","","","html-button-response","95","556268","0.0-95.0","654617A0544B406E9CEF87AA74EE77A6","019cfc32-b46e-7429-9d39-3c3fd0da7401","019cfc28-2143-7934-89cc-ce6402563331","","888","
                <div class=""stimulus-container"">
                    <img src=""images/schematic_sequence/interview_scheme/interview_scheme_8.png"" class=""exp-image"">
                    <div class=""question-area"">
                        <p style=""font-size: 20px; font-weight: bold; margin: 0;"">Is there a person in this image?</p>
                    </div>
                </div>","0","main_experiment_trial","8","interview_scheme","schematic_sequence","chronological","","","","","","",""
"","","","","","html-keyboard-response","96","561277","0.0-96.0","654617A0544B406E9CEF87AA74EE77A6","019cfc32-b46e-7429-9d39-3c3fd0da7401","019cfc28-2143-7934-89cc-ce6402563331","","null","
                <div class=""stimulus-container"">
                    <img src=""images/schematic_sequence/interview_scheme/interview_scheme_9.png"" class=""exp-image"">
                    <div class=""question-area""></div> 
                </div>","null","","","","","","","","","","","",""
"","","","","","html-button-response","97","563776","0.0-97.0","654617A0544B406E9CEF87AA74EE77A6","019cfc32-b46e-7429-9d39-3c3fd0da7401","019cfc28-2143-7934-89cc-ce6402563331","","2497","
                <div class=""stimulus-container"">
                    <img src=""images/schematic_sequence/interview_scheme/interview_scheme_9.png"" class=""exp-image"">
                    <div class=""question-area"">
                        <p style=""font-size: 20px; font-weight: bold; margin: 0;"">Is there a person in this image?</p>
                    </div>
                </div>","0","main_experiment_trial","9","interview_scheme","schematic_sequence","chronological","","","","","","",""
"","","","","","html-keyboard-response","98","568781","0.0-98.0","654617A0544B406E9CEF87AA74EE77A6","019cfc32-b46e-7429-9d39-3c3fd0da7401","019cfc28-2143-7934-89cc-ce6402563331","","null","
                <div class=""stimulus-container"">
                    <img src=""images/schematic_sequence/interview_scheme/interview_scheme_ten.png"" class=""exp-image"">
                    <div class=""question-area""></div> 
                </div>","null","","","","","","","","","","","",""
"","","","","","html-button-response","99","570072","0.0-99.0","654617A0544B406E9CEF87AA74EE77A6","019cfc32-b46e-7429-9d39-3c3fd0da7401","019cfc28-2143-7934-89cc-ce6402563331","","1290","
                <div class=""stimulus-container"">
                    <img src=""images/schematic_sequence/interview_scheme/interview_scheme_ten.png"" class=""exp-image"">
                    <div class=""question-area"">
                        <p style=""font-size: 20px; font-weight: bold; margin: 0;"">Is there a person in this image?</p>
                    </div>
                </div>","0","main_experiment_trial","ten","interview_scheme","schematic_sequence","chronological","","","","","","",""
"","","","","","html-keyboard-response","100","575074","0.0-100.0","654617A0544B406E9CEF87AA74EE77A6","019cfc32-b46e-7429-9d39-3c3fd0da7401","019cfc28-2143-7934-89cc-ce6402563331","","null","<div style=""background-color: white; width: 100vw; height: 100vh;""></div>","null","","","","","","","","","","","",""
"","","","","","html-keyboard-response","101","580077","0.0-101.0","654617A0544B406E9CEF87AA74EE77A6","019cfc32-b46e-7429-9d39-3c3fd0da7401","019cfc28-2143-7934-89cc-ce6402563331","","null","
                <div class=""stimulus-container"">
                    <img src=""images/semantic_sequence/market_semantic/market_semantic_1.png"" class=""exp-image"">
                    <div class=""question-area""></div> 
                </div>","null","","","","","","","","","","","",""
"","","","","","html-button-response","102","581561","0.0-102.0","654617A0544B406E9CEF87AA74EE77A6","019cfc32-b46e-7429-9d39-3c3fd0da7401","019cfc28-2143-7934-89cc-ce6402563331","","1482","
                <div class=""stimulus-container"">
                    <img src=""images/semantic_sequence/market_semantic/market_semantic_1.png"" class=""exp-image"">
                    <div class=""question-area"">
                        <p style=""font-size: 20px; font-weight: bold; margin: 0;"">Is there a person in this image?</p>
                    </div>
                </div>","1","main_experiment_trial","1","market_semantic","semantic_sequence","chronological","","","","","","",""
"","","","","","html-keyboard-response","103","586567","0.0-103.0","654617A0544B406E9CEF87AA74EE77A6","019cfc32-b46e-7429-9d39-3c3fd0da7401","019cfc28-2143-7934-89cc-ce6402563331","","null","
                <div class=""stimulus-container"">
                    <img src=""images/semantic_sequence/market_semantic/market_semantic_2.png"" class=""exp-image"">
                    <div class=""question-area""></div> 
                </div>","null","","","","","","","","","","","",""
"","","","","","html-button-response","104","588337","0.0-104.0","654617A0544B406E9CEF87AA74EE77A6","019cfc32-b46e-7429-9d39-3c3fd0da7401","019cfc28-2143-7934-89cc-ce6402563331","","1768","
                <div class=""stimulus-container"">
                    <img src=""images/semantic_sequence/market_semantic/market_semantic_2.png"" class=""exp-image"">
                    <div class=""question-area"">
                        <p style=""font-size: 20px; font-weight: bold; margin: 0;"">Is there a person in this image?</p>
                    </div>
                </div>","1","main_experiment_trial","2","market_semantic","semantic_sequence","chronological","","","","","","",""
"","","","","","html-keyboard-response","105","593345","0.0-105.0","654617A0544B406E9CEF87AA74EE77A6","019cfc32-b46e-7429-9d39-3c3fd0da7401","019cfc28-2143-7934-89cc-ce6402563331","","null","
                <div class=""stimulus-container"">
                    <img src=""images/semantic_sequence/market_semantic/market_semantic_3.png"" class=""exp-image"">
                    <div class=""question-area""></div> 
                </div>","null","","","","","","","","","","","",""
"","","","","","html-button-response","106","594841","0.0-106.0","654617A0544B406E9CEF87AA74EE77A6","019cfc32-b46e-7429-9d39-3c3fd0da7401","019cfc28-2143-7934-89cc-ce6402563331","","1494","
                <div class=""stimulus-container"">
                    <img src=""images/semantic_sequence/market_semantic/market_semantic_3.png"" class=""exp-image"">
                    <div class=""question-area"">
                        <p style=""font-size: 20px; font-weight: bold; margin: 0;"">Is there a person in this image?</p>
                    </div>
                </div>","1","main_experiment_trial","3","market_semantic","semantic_sequence","chronological","","","","","","",""
"","","","","","html-keyboard-response","107","599847","0.0-107.0","654617A0544B406E9CEF87AA74EE77A6","019cfc32-b46e-7429-9d39-3c3fd0da7401","019cfc28-2143-7934-89cc-ce6402563331","","null","
                <div class=""stimulus-container"">
                    <img src=""images/semantic_sequence/market_semantic/market_semantic_4.png"" class=""exp-image"">
                    <div class=""question-area""></div> 
                </div>","null","","","","","","","","","","","",""
"","","","","","html-button-response","108","600473","0.0-108.0","654617A0544B406E9CEF87AA74EE77A6","019cfc32-b46e-7429-9d39-3c3fd0da7401","019cfc28-2143-7934-89cc-ce6402563331","","625","
                <div class=""stimulus-container"">
                    <img src=""images/semantic_sequence/market_semantic/market_semantic_4.png"" class=""exp-image"">
                    <div class=""question-area"">
                        <p style=""font-size: 20px; font-weight: bold; margin: 0;"">Is there a person in this image?</p>
                    </div>
                </div>","0","main_experiment_trial","4","market_semantic","semantic_sequence","chronological","","","","","","",""
"","","","","","html-keyboard-response","109","605490","0.0-109.0","654617A0544B406E9CEF87AA74EE77A6","019cfc32-b46e-7429-9d39-3c3fd0da7401","019cfc28-2143-7934-89cc-ce6402563331","","null","
                <div class=""stimulus-container"">
                    <img src=""images/semantic_sequence/market_semantic/market_semantic_5.png"" class=""exp-image"">
                    <div class=""question-area""></div> 
                </div>","null","","","","","","","","","","","",""
"","","","","","html-button-response","110","606597","0.0-110.0","654617A0544B406E9CEF87AA74EE77A6","019cfc32-b46e-7429-9d39-3c3fd0da7401","019cfc28-2143-7934-89cc-ce6402563331","","1105","
                <div class=""stimulus-container"">
                    <img src=""images/semantic_sequence/market_semantic/market_semantic_5.png"" class=""exp-image"">
                    <div class=""question-area"">
                        <p style=""font-size: 20px; font-weight: bold; margin: 0;"">Is there a person in this image?</p>
                    </div>
                </div>","1","main_experiment_trial","5","market_semantic","semantic_sequence","chronological","","","","","","",""
"","","","","","html-keyboard-response","111","611607","0.0-111.0","654617A0544B406E9CEF87AA74EE77A6","019cfc32-b46e-7429-9d39-3c3fd0da7401","019cfc28-2143-7934-89cc-ce6402563331","","null","
                <div class=""stimulus-container"">
                    <img src=""images/semantic_sequence/market_semantic/market_semantic_6.png"" class=""exp-image"">
                    <div class=""question-area""></div> 
                </div>","null","","","","","","","","","","","",""
"","","","","","html-button-response","112","612805","0.0-112.0","654617A0544B406E9CEF87AA74EE77A6","019cfc32-b46e-7429-9d39-3c3fd0da7401","019cfc28-2143-7934-89cc-ce6402563331","","1196","
                <div class=""stimulus-container"">
                    <img src=""images/semantic_sequence/market_semantic/market_semantic_6.png"" class=""exp-image"">
                    <div class=""question-area"">
                        <p style=""font-size: 20px; font-weight: bold; margin: 0;"">Is there a person in this image?</p>
                    </div>
                </div>","1","main_experiment_trial","6","market_semantic","semantic_sequence","chronological","","","","","","",""
"","","","","","html-keyboard-response","113","617807","0.0-113.0","654617A0544B406E9CEF87AA74EE77A6","019cfc32-b46e-7429-9d39-3c3fd0da7401","019cfc28-2143-7934-89cc-ce6402563331","","null","
                <div class=""stimulus-container"">
                    <img src=""images/semantic_sequence/market_semantic/market_semantic_7.png"" class=""exp-image"">
                    <div class=""question-area""></div> 
                </div>","null","","","","","","","","","","","",""
"","","","","","html-button-response","114","618558","0.0-114.0","654617A0544B406E9CEF87AA74EE77A6","019cfc32-b46e-7429-9d39-3c3fd0da7401","019cfc28-2143-7934-89cc-ce6402563331","","749","
                <div class=""stimulus-container"">
                    <img src=""images/semantic_sequence/market_semantic/market_semantic_7.png"" class=""exp-image"">
                    <div class=""question-area"">
                        <p style=""font-size: 20px; font-weight: bold; margin: 0;"">Is there a person in this image?</p>
                    </div>
                </div>","0","main_experiment_trial","7","market_semantic","semantic_sequence","chronological","","","","","","",""
"","","","","","html-keyboard-response","115","623563","0.0-115.0","654617A0544B406E9CEF87AA74EE77A6","019cfc32-b46e-7429-9d39-3c3fd0da7401","019cfc28-2143-7934-89cc-ce6402563331","","null","
                <div class=""stimulus-container"">
                    <img src=""images/semantic_sequence/market_semantic/market_semantic_8.png"" class=""exp-image"">
                    <div class=""question-area""></div> 
                </div>","null","","","","","","","","","","","",""
"","","","","","html-button-response","116","624954","0.0-116.0","654617A0544B406E9CEF87AA74EE77A6","019cfc32-b46e-7429-9d39-3c3fd0da7401","019cfc28-2143-7934-89cc-ce6402563331","","1390","
                <div class=""stimulus-container"">
                    <img src=""images/semantic_sequence/market_semantic/market_semantic_8.png"" class=""exp-image"">
                    <div class=""question-area"">
                        <p style=""font-size: 20px; font-weight: bold; margin: 0;"">Is there a person in this image?</p>
                    </div>
                </div>","0","main_experiment_trial","8","market_semantic","semantic_sequence","chronological","","","","","","",""
"","","","","","html-keyboard-response","117","629967","0.0-117.0","654617A0544B406E9CEF87AA74EE77A6","019cfc32-b46e-7429-9d39-3c3fd0da7401","019cfc28-2143-7934-89cc-ce6402563331","","null","
                <div class=""stimulus-container"">
                    <img src=""images/semantic_sequence/market_semantic/market_semantic_9.png"" class=""exp-image"">
                    <div class=""question-area""></div> 
                </div>","null","","","","","","","","","","","",""
"","","","","","html-button-response","118","631106","0.0-118.0","654617A0544B406E9CEF87AA74EE77A6","019cfc32-b46e-7429-9d39-3c3fd0da7401","019cfc28-2143-7934-89cc-ce6402563331","","1137","
                <div class=""stimulus-container"">
                    <img src=""images/semantic_sequence/market_semantic/market_semantic_9.png"" class=""exp-image"">
                    <div class=""question-area"">
                        <p style=""font-size: 20px; font-weight: bold; margin: 0;"">Is there a person in this image?</p>
                    </div>
                </div>","0","main_experiment_trial","9","market_semantic","semantic_sequence","chronological","","","","","","",""
"","","","","","html-keyboard-response","119","636109","0.0-119.0","654617A0544B406E9CEF87AA74EE77A6","019cfc32-b46e-7429-9d39-3c3fd0da7401","019cfc28-2143-7934-89cc-ce6402563331","","null","
                <div class=""stimulus-container"">
                    <img src=""images/semantic_sequence/market_semantic/market_semantic_ten.png"" class=""exp-image"">
                    <div class=""question-area""></div> 
                </div>","null","","","","","","","","","","","",""
"","","","","","html-button-response","120","637454","0.0-120.0","654617A0544B406E9CEF87AA74EE77A6","019cfc32-b46e-7429-9d39-3c3fd0da7401","019cfc28-2143-7934-89cc-ce6402563331","","1344","
                <div class=""stimulus-container"">
                    <img src=""images/semantic_sequence/market_semantic/market_semantic_ten.png"" class=""exp-image"">
                    <div class=""question-area"">
                        <p style=""font-size: 20px; font-weight: bold; margin: 0;"">Is there a person in this image?</p>
                    </div>
                </div>","1","main_experiment_trial","ten","market_semantic","semantic_sequence","chronological","","","","","","",""
"","","","","","html-keyboard-response","121","642468","0.0-121.0","654617A0544B406E9CEF87AA74EE77A6","019cfc32-b46e-7429-9d39-3c3fd0da7401","019cfc28-2143-7934-89cc-ce6402563331","","null","<div style=""background-color: white; width: 100vw; height: 100vh;""></div>","null","","","","","","","","","","","",""
"","","","","","html-keyboard-response","122","647476","0.0-122.0","654617A0544B406E9CEF87AA74EE77A6","019cfc32-b46e-7429-9d39-3c3fd0da7401","019cfc28-2143-7934-89cc-ce6402563331","","null","
                <div class=""stimulus-container"">
                    <img src=""images/schematic_sequence/flight_scheme/flight_scheme_1.png"" class=""exp-image"">
                    <div class=""question-area""></div> 
                </div>","null","","","","","","","","","","","",""
"","","","","","html-button-response","123","648310","0.0-123.0","654617A0544B406E9CEF87AA74EE77A6","019cfc32-b46e-7429-9d39-3c3fd0da7401","019cfc28-2143-7934-89cc-ce6402563331","","834","
                <div class=""stimulus-container"">
                    <img src=""images/schematic_sequence/flight_scheme/flight_scheme_1.png"" class=""exp-image"">
                    <div class=""question-area"">
                        <p style=""font-size: 20px; font-weight: bold; margin: 0;"">Is there a person in this image?</p>
                    </div>
                </div>","0","main_experiment_trial","1","flight_scheme","schematic_sequence","chronological","","","","","","",""
"","","","","","html-keyboard-response","124","653325","0.0-124.0","654617A0544B406E9CEF87AA74EE77A6","019cfc32-b46e-7429-9d39-3c3fd0da7401","019cfc28-2143-7934-89cc-ce6402563331","","null","
                <div class=""stimulus-container"">
                    <img src=""images/schematic_sequence/flight_scheme/flight_scheme_2.png"" class=""exp-image"">
                    <div class=""question-area""></div> 
                </div>","null","","","","","","","","","","","",""
"","","","","","html-button-response","125","654179","0.0-125.0","654617A0544B406E9CEF87AA74EE77A6","019cfc32-b46e-7429-9d39-3c3fd0da7401","019cfc28-2143-7934-89cc-ce6402563331","","852","
                <div class=""stimulus-container"">
                    <img src=""images/schematic_sequence/flight_scheme/flight_scheme_2.png"" class=""exp-image"">
                    <div class=""question-area"">
                        <p style=""font-size: 20px; font-weight: bold; margin: 0;"">Is there a person in this image?</p>
                    </div>
                </div>","1","main_experiment_trial","2","flight_scheme","schematic_sequence","chronological","","","","","","",""
"","","","","","html-keyboard-response","126","659196","0.0-126.0","654617A0544B406E9CEF87AA74EE77A6","019cfc32-b46e-7429-9d39-3c3fd0da7401","019cfc28-2143-7934-89cc-ce6402563331","","null","
                <div class=""stimulus-container"">
                    <img src=""images/schematic_sequence/flight_scheme/flight_scheme_3.png"" class=""exp-image"">
                    <div class=""question-area""></div> 
                </div>","null","","","","","","","","","","","",""
"","","","","","html-button-response","127","660359","0.0-127.0","654617A0544B406E9CEF87AA74EE77A6","019cfc32-b46e-7429-9d39-3c3fd0da7401","019cfc28-2143-7934-89cc-ce6402563331","","1161","
                <div class=""stimulus-container"">
                    <img src=""images/schematic_sequence/flight_scheme/flight_scheme_3.png"" class=""exp-image"">
                    <div class=""question-area"">
                        <p style=""font-size: 20px; font-weight: bold; margin: 0;"">Is there a person in this image?</p>
                    </div>
                </div>","0","main_experiment_trial","3","flight_scheme","schematic_sequence","chronological","","","","","","",""
"","","","","","html-keyboard-response","128","665374","0.0-128.0","654617A0544B406E9CEF87AA74EE77A6","019cfc32-b46e-7429-9d39-3c3fd0da7401","019cfc28-2143-7934-89cc-ce6402563331","","null","
                <div class=""stimulus-container"">
                    <img src=""images/schematic_sequence/flight_scheme/flight_scheme_4.png"" class=""exp-image"">
                    <div class=""question-area""></div> 
                </div>","null","","","","","","","","","","","",""
"","","","","","html-button-response","129","666419","0.0-129.0","654617A0544B406E9CEF87AA74EE77A6","019cfc32-b46e-7429-9d39-3c3fd0da7401","019cfc28-2143-7934-89cc-ce6402563331","","1044","
                <div class=""stimulus-container"">
                    <img src=""images/schematic_sequence/flight_scheme/flight_scheme_4.png"" class=""exp-image"">
                    <div class=""question-area"">
                        <p style=""font-size: 20px; font-weight: bold; margin: 0;"">Is there a person in this image?</p>
                    </div>
                </div>","0","main_experiment_trial","4","flight_scheme","schematic_sequence","chronological","","","","","","",""
"","","","","","html-keyboard-response","130","671431","0.0-130.0","654617A0544B406E9CEF87AA74EE77A6","019cfc32-b46e-7429-9d39-3c3fd0da7401","019cfc28-2143-7934-89cc-ce6402563331","","null","
                <div class=""stimulus-container"">
                    <img src=""images/schematic_sequence/flight_scheme/flight_scheme_5.png"" class=""exp-image"">
                    <div class=""question-area""></div> 
                </div>","null","","","","","","","","","","","",""
"","","","","","html-button-response","131","672023","0.0-131.0","654617A0544B406E9CEF87AA74EE77A6","019cfc32-b46e-7429-9d39-3c3fd0da7401","019cfc28-2143-7934-89cc-ce6402563331","","590","
                <div class=""stimulus-container"">
                    <img src=""images/schematic_sequence/flight_scheme/flight_scheme_5.png"" class=""exp-image"">
                    <div class=""question-area"">
                        <p style=""font-size: 20px; font-weight: bold; margin: 0;"">Is there a person in this image?</p>
                    </div>
                </div>","0","main_experiment_trial","5","flight_scheme","schematic_sequence","chronological","","","","","","",""
"","","","","","html-keyboard-response","132","677033","0.0-132.0","654617A0544B406E9CEF87AA74EE77A6","019cfc32-b46e-7429-9d39-3c3fd0da7401","019cfc28-2143-7934-89cc-ce6402563331","","null","
                <div class=""stimulus-container"">
                    <img src=""images/schematic_sequence/flight_scheme/flight_scheme_6.png"" class=""exp-image"">
                    <div class=""question-area""></div> 
                </div>","null","","","","","","","","","","","",""
"","","","","","html-button-response","133","677931","0.0-133.0","654617A0544B406E9CEF87AA74EE77A6","019cfc32-b46e-7429-9d39-3c3fd0da7401","019cfc28-2143-7934-89cc-ce6402563331","","897","
                <div class=""stimulus-container"">
                    <img src=""images/schematic_sequence/flight_scheme/flight_scheme_6.png"" class=""exp-image"">
                    <div class=""question-area"">
                        <p style=""font-size: 20px; font-weight: bold; margin: 0;"">Is there a person in this image?</p>
                    </div>
                </div>","1","main_experiment_trial","6","flight_scheme","schematic_sequence","chronological","","","","","","",""
"","","","","","html-keyboard-response","134","682947","0.0-134.0","654617A0544B406E9CEF87AA74EE77A6","019cfc32-b46e-7429-9d39-3c3fd0da7401","019cfc28-2143-7934-89cc-ce6402563331","","null","
                <div class=""stimulus-container"">
                    <img src=""images/schematic_sequence/flight_scheme/flight_scheme_7.png"" class=""exp-image"">
                    <div class=""question-area""></div> 
                </div>","null","","","","","","","","","","","",""
"","","","","","html-button-response","135","685920","0.0-135.0","654617A0544B406E9CEF87AA74EE77A6","019cfc32-b46e-7429-9d39-3c3fd0da7401","019cfc28-2143-7934-89cc-ce6402563331","","2971","
                <div class=""stimulus-container"">
                    <img src=""images/schematic_sequence/flight_scheme/flight_scheme_7.png"" class=""exp-image"">
                    <div class=""question-area"">
                        <p style=""font-size: 20px; font-weight: bold; margin: 0;"">Is there a person in this image?</p>
                    </div>
                </div>","0","main_experiment_trial","7","flight_scheme","schematic_sequence","chronological","","","","","","",""
"","","","","","html-keyboard-response","136","690926","0.0-136.0","654617A0544B406E9CEF87AA74EE77A6","019cfc32-b46e-7429-9d39-3c3fd0da7401","019cfc28-2143-7934-89cc-ce6402563331","","null","
                <div class=""stimulus-container"">
                    <img src=""images/schematic_sequence/flight_scheme/flight_scheme_8.png"" class=""exp-image"">
                    <div class=""question-area""></div> 
                </div>","null","","","","","","","","","","","",""
"","","","","","html-button-response","137","692184","0.0-137.0","654617A0544B406E9CEF87AA74EE77A6","019cfc32-b46e-7429-9d39-3c3fd0da7401","019cfc28-2143-7934-89cc-ce6402563331","","1257","
                <div class=""stimulus-container"">
                    <img src=""images/schematic_sequence/flight_scheme/flight_scheme_8.png"" class=""exp-image"">
                    <div class=""question-area"">
                        <p style=""font-size: 20px; font-weight: bold; margin: 0;"">Is there a person in this image?</p>
                    </div>
                </div>","1","main_experiment_trial","8","flight_scheme","schematic_sequence","chronological","","","","","","",""
"","","","","","html-keyboard-response","138","697193","0.0-138.0","654617A0544B406E9CEF87AA74EE77A6","019cfc32-b46e-7429-9d39-3c3fd0da7401","019cfc28-2143-7934-89cc-ce6402563331","","null","
                <div class=""stimulus-container"">
                    <img src=""images/schematic_sequence/flight_scheme/flight_scheme_9.png"" class=""exp-image"">
                    <div class=""question-area""></div> 
                </div>","null","","","","","","","","","","","",""
"","","","","","html-button-response","139","699476","0.0-139.0","654617A0544B406E9CEF87AA74EE77A6","019cfc32-b46e-7429-9d39-3c3fd0da7401","019cfc28-2143-7934-89cc-ce6402563331","","2281","
                <div class=""stimulus-container"">
                    <img src=""images/schematic_sequence/flight_scheme/flight_scheme_9.png"" class=""exp-image"">
                    <div class=""question-area"">
                        <p style=""font-size: 20px; font-weight: bold; margin: 0;"">Is there a person in this image?</p>
                    </div>
                </div>","0","main_experiment_trial","9","flight_scheme","schematic_sequence","chronological","","","","","","",""
"","","","","","html-keyboard-response","140","704492","0.0-140.0","654617A0544B406E9CEF87AA74EE77A6","019cfc32-b46e-7429-9d39-3c3fd0da7401","019cfc28-2143-7934-89cc-ce6402563331","","null","
                <div class=""stimulus-container"">
                    <img src=""images/schematic_sequence/flight_scheme/flight_scheme_ten.png"" class=""exp-image"">
                    <div class=""question-area""></div> 
                </div>","null","","","","","","","","","","","",""
"","","","","","html-button-response","141","705428","0.0-141.0","654617A0544B406E9CEF87AA74EE77A6","019cfc32-b46e-7429-9d39-3c3fd0da7401","019cfc28-2143-7934-89cc-ce6402563331","","935","
                <div class=""stimulus-container"">
                    <img src=""images/schematic_sequence/flight_scheme/flight_scheme_ten.png"" class=""exp-image"">
                    <div class=""question-area"">
                        <p style=""font-size: 20px; font-weight: bold; margin: 0;"">Is there a person in this image?</p>
                    </div>
                </div>","0","main_experiment_trial","ten","flight_scheme","schematic_sequence","chronological","","","","","","",""
"","","","","","html-keyboard-response","142","710434","0.0-142.0","654617A0544B406E9CEF87AA74EE77A6","019cfc32-b46e-7429-9d39-3c3fd0da7401","019cfc28-2143-7934-89cc-ce6402563331","","null","<div style=""background-color: white; width: 100vw; height: 100vh;""></div>","null","","","","","","","","","","","",""
"","","","","","html-keyboard-response","143","715440","0.0-143.0","654617A0544B406E9CEF87AA74EE77A6","019cfc32-b46e-7429-9d39-3c3fd0da7401","019cfc28-2143-7934-89cc-ce6402563331","","null","
                <div class=""stimulus-container"">
                    <img src=""images/schematic_sequence/hotel_scheme/hotel_scheme_1.png"" class=""exp-image"">
                    <div class=""question-area""></div> 
                </div>","null","","","","","","","","","","","",""
"","","","","","html-button-response","144","717948","0.0-144.0","654617A0544B406E9CEF87AA74EE77A6","019cfc32-b46e-7429-9d39-3c3fd0da7401","019cfc28-2143-7934-89cc-ce6402563331","","2507","
                <div class=""stimulus-container"">
                    <img src=""images/schematic_sequence/hotel_scheme/hotel_scheme_1.png"" class=""exp-image"">
                    <div class=""question-area"">
                        <p style=""font-size: 20px; font-weight: bold; margin: 0;"">Is there a person in this image?</p>
                    </div>
                </div>","1","main_experiment_trial","1","hotel_scheme","schematic_sequence","chronological","","","","","","",""
"","","","","","html-keyboard-response","145","722959","0.0-145.0","654617A0544B406E9CEF87AA74EE77A6","019cfc32-b46e-7429-9d39-3c3fd0da7401","019cfc28-2143-7934-89cc-ce6402563331","","null","
                <div class=""stimulus-container"">
                    <img src=""images/schematic_sequence/hotel_scheme/hotel_scheme_2.png"" class=""exp-image"">
                    <div class=""question-area""></div> 
                </div>","null","","","","","","","","","","","",""
"","","","","","html-button-response","146","724104","0.0-146.0","654617A0544B406E9CEF87AA74EE77A6","019cfc32-b46e-7429-9d39-3c3fd0da7401","019cfc28-2143-7934-89cc-ce6402563331","","1143","
                <div class=""stimulus-container"">
                    <img src=""images/schematic_sequence/hotel_scheme/hotel_scheme_2.png"" class=""exp-image"">
                    <div class=""question-area"">
                        <p style=""font-size: 20px; font-weight: bold; margin: 0;"">Is there a person in this image?</p>
                    </div>
                </div>","0","main_experiment_trial","2","hotel_scheme","schematic_sequence","chronological","","","","","","",""
"","","","","","html-keyboard-response","147","729120","0.0-147.0","654617A0544B406E9CEF87AA74EE77A6","019cfc32-b46e-7429-9d39-3c3fd0da7401","019cfc28-2143-7934-89cc-ce6402563331","","null","
                <div class=""stimulus-container"">
                    <img src=""images/schematic_sequence/hotel_scheme/hotel_scheme_3.png"" class=""exp-image"">
                    <div class=""question-area""></div> 
                </div>","null","","","","","","","","","","","",""
"","","","","","html-button-response","148","730141","0.0-148.0","654617A0544B406E9CEF87AA74EE77A6","019cfc32-b46e-7429-9d39-3c3fd0da7401","019cfc28-2143-7934-89cc-ce6402563331","","1019","
                <div class=""stimulus-container"">
                    <img src=""images/schematic_sequence/hotel_scheme/hotel_scheme_3.png"" class=""exp-image"">
                    <div class=""question-area"">
                        <p style=""font-size: 20px; font-weight: bold; margin: 0;"">Is there a person in this image?</p>
                    </div>
                </div>","0","main_experiment_trial","3","hotel_scheme","schematic_sequence","chronological","","","","","","",""
"","","","","","html-keyboard-response","149","735149","0.0-149.0","654617A0544B406E9CEF87AA74EE77A6","019cfc32-b46e-7429-9d39-3c3fd0da7401","019cfc28-2143-7934-89cc-ce6402563331","","null","
                <div class=""stimulus-container"">
                    <img src=""images/schematic_sequence/hotel_scheme/hotel_scheme_4.png"" class=""exp-image"">
                    <div class=""question-area""></div> 
                </div>","null","","","","","","","","","","","",""
"","","","","","html-button-response","150","736765","0.0-150.0","654617A0544B406E9CEF87AA74EE77A6","019cfc32-b46e-7429-9d39-3c3fd0da7401","019cfc28-2143-7934-89cc-ce6402563331","","1611","
                <div class=""stimulus-container"">
                    <img src=""images/schematic_sequence/hotel_scheme/hotel_scheme_4.png"" class=""exp-image"">
                    <div class=""question-area"">
                        <p style=""font-size: 20px; font-weight: bold; margin: 0;"">Is there a person in this image?</p>
                    </div>
                </div>","1","main_experiment_trial","4","hotel_scheme","schematic_sequence","chronological","","","","","","",""
"","","","","","html-keyboard-response","151","741777","0.0-151.0","654617A0544B406E9CEF87AA74EE77A6","019cfc32-b46e-7429-9d39-3c3fd0da7401","019cfc28-2143-7934-89cc-ce6402563331","","null","
                <div class=""stimulus-container"">
                    <img src=""images/schematic_sequence/hotel_scheme/hotel_scheme_5.png"" class=""exp-image"">
                    <div class=""question-area""></div> 
                </div>","null","","","","","","","","","","","",""
"","","","","","html-button-response","152","742721","0.0-152.0","654617A0544B406E9CEF87AA74EE77A6","019cfc32-b46e-7429-9d39-3c3fd0da7401","019cfc28-2143-7934-89cc-ce6402563331","","943","
                <div class=""stimulus-container"">
                    <img src=""images/schematic_sequence/hotel_scheme/hotel_scheme_5.png"" class=""exp-image"">
                    <div class=""question-area"">
                        <p style=""font-size: 20px; font-weight: bold; margin: 0;"">Is there a person in this image?</p>
                    </div>
                </div>","0","main_experiment_trial","5","hotel_scheme","schematic_sequence","chronological","","","","","","",""
"","","","","","html-keyboard-response","153","747736","0.0-153.0","654617A0544B406E9CEF87AA74EE77A6","019cfc32-b46e-7429-9d39-3c3fd0da7401","019cfc28-2143-7934-89cc-ce6402563331","","null","
                <div class=""stimulus-container"">
                    <img src=""images/schematic_sequence/hotel_scheme/hotel_scheme_6.png"" class=""exp-image"">
                    <div class=""question-area""></div> 
                </div>","null","","","","","","","","","","","",""
"","","","","","html-button-response","154","748741","0.0-154.0","654617A0544B406E9CEF87AA74EE77A6","019cfc32-b46e-7429-9d39-3c3fd0da7401","019cfc28-2143-7934-89cc-ce6402563331","","1003","
                <div class=""stimulus-container"">
                    <img src=""images/schematic_sequence/hotel_scheme/hotel_scheme_6.png"" class=""exp-image"">
                    <div class=""question-area"">
                        <p style=""font-size: 20px; font-weight: bold; margin: 0;"">Is there a person in this image?</p>
                    </div>
                </div>","0","main_experiment_trial","6","hotel_scheme","schematic_sequence","chronological","","","","","","",""
"","","","","","html-keyboard-response","155","753756","0.0-155.0","654617A0544B406E9CEF87AA74EE77A6","019cfc32-b46e-7429-9d39-3c3fd0da7401","019cfc28-2143-7934-89cc-ce6402563331","","null","
                <div class=""stimulus-container"">
                    <img src=""images/schematic_sequence/hotel_scheme/hotel_scheme_7.png"" class=""exp-image"">
                    <div class=""question-area""></div> 
                </div>","null","","","","","","","","","","","",""
"","","","","","html-button-response","156","754573","0.0-156.0","654617A0544B406E9CEF87AA74EE77A6","019cfc32-b46e-7429-9d39-3c3fd0da7401","019cfc28-2143-7934-89cc-ce6402563331","","816","
                <div class=""stimulus-container"">
                    <img src=""images/schematic_sequence/hotel_scheme/hotel_scheme_7.png"" class=""exp-image"">
                    <div class=""question-area"">
                        <p style=""font-size: 20px; font-weight: bold; margin: 0;"">Is there a person in this image?</p>
                    </div>
                </div>","0","main_experiment_trial","7","hotel_scheme","schematic_sequence","chronological","","","","","","",""
"","","","","","html-keyboard-response","157","759590","0.0-157.0","654617A0544B406E9CEF87AA74EE77A6","019cfc32-b46e-7429-9d39-3c3fd0da7401","019cfc28-2143-7934-89cc-ce6402563331","","null","
                <div class=""stimulus-container"">
                    <img src=""images/schematic_sequence/hotel_scheme/hotel_scheme_8.png"" class=""exp-image"">
                    <div class=""question-area""></div> 
                </div>","null","","","","","","","","","","","",""
"","","","","","html-button-response","158","760362","0.0-158.0","654617A0544B406E9CEF87AA74EE77A6","019cfc32-b46e-7429-9d39-3c3fd0da7401","019cfc28-2143-7934-89cc-ce6402563331","","770","
                <div class=""stimulus-container"">
                    <img src=""images/schematic_sequence/hotel_scheme/hotel_scheme_8.png"" class=""exp-image"">
                    <div class=""question-area"">
                        <p style=""font-size: 20px; font-weight: bold; margin: 0;"">Is there a person in this image?</p>
                    </div>
                </div>","0","main_experiment_trial","8","hotel_scheme","schematic_sequence","chronological","","","","","","",""
"","","","","","html-keyboard-response","159","765368","0.0-159.0","654617A0544B406E9CEF87AA74EE77A6","019cfc32-b46e-7429-9d39-3c3fd0da7401","019cfc28-2143-7934-89cc-ce6402563331","","null","
                <div class=""stimulus-container"">
                    <img src=""images/schematic_sequence/hotel_scheme/hotel_scheme_9.png"" class=""exp-image"">
                    <div class=""question-area""></div> 
                </div>","null","","","","","","","","","","","",""
"","","","","","html-button-response","160","766226","0.0-160.0","654617A0544B406E9CEF87AA74EE77A6","019cfc32-b46e-7429-9d39-3c3fd0da7401","019cfc28-2143-7934-89cc-ce6402563331","","857","
                <div class=""stimulus-container"">
                    <img src=""images/schematic_sequence/hotel_scheme/hotel_scheme_9.png"" class=""exp-image"">
                    <div class=""question-area"">
                        <p style=""font-size: 20px; font-weight: bold; margin: 0;"">Is there a person in this image?</p>
                    </div>
                </div>","0","main_experiment_trial","9","hotel_scheme","schematic_sequence","chronological","","","","","","",""
"","","","","","html-keyboard-response","161","771241","0.0-161.0","654617A0544B406E9CEF87AA74EE77A6","019cfc32-b46e-7429-9d39-3c3fd0da7401","019cfc28-2143-7934-89cc-ce6402563331","","null","
                <div class=""stimulus-container"">
                    <img src=""images/schematic_sequence/hotel_scheme/hotel_scheme_ten.png"" class=""exp-image"">
                    <div class=""question-area""></div> 
                </div>","null","","","","","","","","","","","",""
"","","","","","html-button-response","162","771894","0.0-162.0","654617A0544B406E9CEF87AA74EE77A6","019cfc32-b46e-7429-9d39-3c3fd0da7401","019cfc28-2143-7934-89cc-ce6402563331","","652","
                <div class=""stimulus-container"">
                    <img src=""images/schematic_sequence/hotel_scheme/hotel_scheme_ten.png"" class=""exp-image"">
                    <div class=""question-area"">
                        <p style=""font-size: 20px; font-weight: bold; margin: 0;"">Is there a person in this image?</p>
                    </div>
                </div>","0","main_experiment_trial","ten","hotel_scheme","schematic_sequence","chronological","","","","","","",""
"","","","","","html-keyboard-response","163","776904","0.0-163.0","654617A0544B406E9CEF87AA74EE77A6","019cfc32-b46e-7429-9d39-3c3fd0da7401","019cfc28-2143-7934-89cc-ce6402563331","","null","<div style=""background-color: white; width: 100vw; height: 100vh;""></div>","null","","","","","","","","","","","",""
"","","","","","html-keyboard-response","164","781940","0.0-164.0","654617A0544B406E9CEF87AA74EE77A6","019cfc32-b46e-7429-9d39-3c3fd0da7401","019cfc28-2143-7934-89cc-ce6402563331","","null","
                <div class=""stimulus-container"">
                    <img src=""images/semantic_sequence/maintaining_a_car_semantic/maintaining_a_car_semantic_1.png"" class=""exp-image"">
                    <div class=""question-area""></div> 
                </div>","null","","","","","","","","","","","",""
"","","","","","html-button-response","165","783293","0.0-165.0","654617A0544B406E9CEF87AA74EE77A6","019cfc32-b46e-7429-9d39-3c3fd0da7401","019cfc28-2143-7934-89cc-ce6402563331","","1352","
                <div class=""stimulus-container"">
                    <img src=""images/semantic_sequence/maintaining_a_car_semantic/maintaining_a_car_semantic_1.png"" class=""exp-image"">
                    <div class=""question-area"">
                        <p style=""font-size: 20px; font-weight: bold; margin: 0;"">Is there a person in this image?</p>
                    </div>
                </div>","0","main_experiment_trial","1","maintaining_a_car_semantic","semantic_sequence","chronological","","","","","","",""
"","","","","","html-keyboard-response","166","788298","0.0-166.0","654617A0544B406E9CEF87AA74EE77A6","019cfc32-b46e-7429-9d39-3c3fd0da7401","019cfc28-2143-7934-89cc-ce6402563331","","null","
                <div class=""stimulus-container"">
                    <img src=""images/semantic_sequence/maintaining_a_car_semantic/maintaining_a_car_semantic_2.png"" class=""exp-image"">
                    <div class=""question-area""></div> 
                </div>","null","","","","","","","","","","","",""
"","","","","","html-button-response","167","790766","0.0-167.0","654617A0544B406E9CEF87AA74EE77A6","019cfc32-b46e-7429-9d39-3c3fd0da7401","019cfc28-2143-7934-89cc-ce6402563331","","2467","
                <div class=""stimulus-container"">
                    <img src=""images/semantic_sequence/maintaining_a_car_semantic/maintaining_a_car_semantic_2.png"" class=""exp-image"">
                    <div class=""question-area"">
                        <p style=""font-size: 20px; font-weight: bold; margin: 0;"">Is there a person in this image?</p>
                    </div>
                </div>","0","main_experiment_trial","2","maintaining_a_car_semantic","semantic_sequence","chronological","","","","","","",""
"","","","","","html-keyboard-response","168","795770","0.0-168.0","654617A0544B406E9CEF87AA74EE77A6","019cfc32-b46e-7429-9d39-3c3fd0da7401","019cfc28-2143-7934-89cc-ce6402563331","","null","
                <div class=""stimulus-container"">
                    <img src=""images/semantic_sequence/maintaining_a_car_semantic/maintaining_a_car_semantic_3.png"" class=""exp-image"">
                    <div class=""question-area""></div> 
                </div>","null","","","","","","","","","","","",""
"","","","","","html-button-response","169","797030","0.0-169.0","654617A0544B406E9CEF87AA74EE77A6","019cfc32-b46e-7429-9d39-3c3fd0da7401","019cfc28-2143-7934-89cc-ce6402563331","","1259","
                <div class=""stimulus-container"">
                    <img src=""images/semantic_sequence/maintaining_a_car_semantic/maintaining_a_car_semantic_3.png"" class=""exp-image"">
                    <div class=""question-area"">
                        <p style=""font-size: 20px; font-weight: bold; margin: 0;"">Is there a person in this image?</p>
                    </div>
                </div>","0","main_experiment_trial","3","maintaining_a_car_semantic","semantic_sequence","chronological","","","","","","",""
"","","","","","html-keyboard-response","170","802040","0.0-170.0","654617A0544B406E9CEF87AA74EE77A6","019cfc32-b46e-7429-9d39-3c3fd0da7401","019cfc28-2143-7934-89cc-ce6402563331","","null","
                <div class=""stimulus-container"">
                    <img src=""images/semantic_sequence/maintaining_a_car_semantic/maintaining_a_car_semantic_4.png"" class=""exp-image"">
                    <div class=""question-area""></div> 
                </div>","null","","","","","","","","","","","",""
"","","","","","html-button-response","171","803015","0.0-171.0","654617A0544B406E9CEF87AA74EE77A6","019cfc32-b46e-7429-9d39-3c3fd0da7401","019cfc28-2143-7934-89cc-ce6402563331","","973","
                <div class=""stimulus-container"">
                    <img src=""images/semantic_sequence/maintaining_a_car_semantic/maintaining_a_car_semantic_4.png"" class=""exp-image"">
                    <div class=""question-area"">
                        <p style=""font-size: 20px; font-weight: bold; margin: 0;"">Is there a person in this image?</p>
                    </div>
                </div>","0","main_experiment_trial","4","maintaining_a_car_semantic","semantic_sequence","chronological","","","","","","",""
"","","","","","html-keyboard-response","172","808021","0.0-172.0","654617A0544B406E9CEF87AA74EE77A6","019cfc32-b46e-7429-9d39-3c3fd0da7401","019cfc28-2143-7934-89cc-ce6402563331","","null","
                <div class=""stimulus-container"">
                    <img src=""images/semantic_sequence/maintaining_a_car_semantic/maintaining_a_car_semantic_5.png"" class=""exp-image"">
                    <div class=""question-area""></div> 
                </div>","null","","","","","","","","","","","",""
"","","","","","html-button-response","173","808931","0.0-173.0","654617A0544B406E9CEF87AA74EE77A6","019cfc32-b46e-7429-9d39-3c3fd0da7401","019cfc28-2143-7934-89cc-ce6402563331","","909","
                <div class=""stimulus-container"">
                    <img src=""images/semantic_sequence/maintaining_a_car_semantic/maintaining_a_car_semantic_5.png"" class=""exp-image"">
                    <div class=""question-area"">
                        <p style=""font-size: 20px; font-weight: bold; margin: 0;"">Is there a person in this image?</p>
                    </div>
                </div>","0","main_experiment_trial","5","maintaining_a_car_semantic","semantic_sequence","chronological","","","","","","",""
"","","","","","html-keyboard-response","174","813934","0.0-174.0","654617A0544B406E9CEF87AA74EE77A6","019cfc32-b46e-7429-9d39-3c3fd0da7401","019cfc28-2143-7934-89cc-ce6402563331","","null","
                <div class=""stimulus-container"">
                    <img src=""images/semantic_sequence/maintaining_a_car_semantic/maintaining_a_car_semantic_6.png"" class=""exp-image"">
                    <div class=""question-area""></div> 
                </div>","null","","","","","","","","","","","",""
"","","","","","html-button-response","175","814891","0.0-175.0","654617A0544B406E9CEF87AA74EE77A6","019cfc32-b46e-7429-9d39-3c3fd0da7401","019cfc28-2143-7934-89cc-ce6402563331","","955","
                <div class=""stimulus-container"">
                    <img src=""images/semantic_sequence/maintaining_a_car_semantic/maintaining_a_car_semantic_6.png"" class=""exp-image"">
                    <div class=""question-area"">
                        <p style=""font-size: 20px; font-weight: bold; margin: 0;"">Is there a person in this image?</p>
                    </div>
                </div>","0","main_experiment_trial","6","maintaining_a_car_semantic","semantic_sequence","chronological","","","","","","",""
"","","","","","html-keyboard-response","176","819903","0.0-176.0","654617A0544B406E9CEF87AA74EE77A6","019cfc32-b46e-7429-9d39-3c3fd0da7401","019cfc28-2143-7934-89cc-ce6402563331","","null","
                <div class=""stimulus-container"">
                    <img src=""images/semantic_sequence/maintaining_a_car_semantic/maintaining_a_car_semantic_7.png"" class=""exp-image"">
                    <div class=""question-area""></div> 
                </div>","null","","","","","","","","","","","",""
