"success","timeout","failed_images","failed_audio","failed_video","trial_type","trial_index","time_elapsed","internal_node_id","subject_id","study_id","session_id","view_history","rt","stimulus","response","task","image_index","folder","sequence_type","presentation_order","valuable_image_index","reward_type","distance_from_x","target_X","chosen_image_index","is_x_plus_dist","correct_choice"
"true","false","[]","[]","[]","preload","0","9771","0.0-0.0","27A55A4000E74742B493872496C7245E","019cfc7c-4a63-7a64-93bf-bf57b2d742f2","019cfc7b-6c7b-7b1b-afe7-acad8efc6711","","","","","","","","","","","","","","","",""
"","","","","","instructions","1","15460","0.0-1.0","27A55A4000E74742B493872496C7245E","019cfc7c-4a63-7a64-93bf-bf57b2d742f2","019cfc7b-6c7b-7b1b-afe7-acad8efc6711","[{""page_index"":0,""viewing_time"":5688}]","5688","","","","","","","","","","","","","",""
"","","","","","instructions","2","18332","0.0-2.0","27A55A4000E74742B493872496C7245E","019cfc7c-4a63-7a64-93bf-bf57b2d742f2","019cfc7b-6c7b-7b1b-afe7-acad8efc6711","[{""page_index"":0,""viewing_time"":2872}]","2872","","","","","","","","","","","","","",""
"true","","","","","fullscreen","3","21352","0.0-3.0","27A55A4000E74742B493872496C7245E","019cfc7c-4a63-7a64-93bf-bf57b2d742f2","019cfc7b-6c7b-7b1b-afe7-acad8efc6711","","2016","","","","","","","","","","","","","",""
"","","","","","instructions","4","31742","0.0-4.0","27A55A4000E74742B493872496C7245E","019cfc7c-4a63-7a64-93bf-bf57b2d742f2","019cfc7b-6c7b-7b1b-afe7-acad8efc6711","[{""page_index"":0,""viewing_time"":10389}]","10389","","","","","","","","","","","","","",""
"","","","","","instructions","5","41116","0.0-5.0","27A55A4000E74742B493872496C7245E","019cfc7c-4a63-7a64-93bf-bf57b2d742f2","019cfc7b-6c7b-7b1b-afe7-acad8efc6711","[{""page_index"":0,""viewing_time"":9374}]","9374","","","","","","","","","","","","","",""
"","","","","","html-keyboard-response","6","45123","0.0-6.0","27A55A4000E74742B493872496C7245E","019cfc7c-4a63-7a64-93bf-bf57b2d742f2","019cfc7b-6c7b-7b1b-afe7-acad8efc6711","","null","
                <div class=""stimulus-container"">
                    <img src=""images/instructions/movie_1.png"" class=""exp-image"">
                    <div class=""question-area""></div> 
                </div>","null","","","","","","","","","","","",""
"","","","","","html-button-response","7","46595","0.0-7.0","27A55A4000E74742B493872496C7245E","019cfc7c-4a63-7a64-93bf-bf57b2d742f2","019cfc7b-6c7b-7b1b-afe7-acad8efc6711","","1475","
                <div class=""stimulus-container"">
                    <img src=""images/instructions/movie_1.png"" class=""exp-image"">
                    <div class=""question-area"">
                        <p style=""font-size: 20px; font-weight: bold; margin: 0;"">Was there a person in this image?</p>
                    </div>
                </div>","0","example_question","1","","","","","","","","","",""
"","","","","","html-keyboard-response","8","50596","0.0-8.0","27A55A4000E74742B493872496C7245E","019cfc7c-4a63-7a64-93bf-bf57b2d742f2","019cfc7b-6c7b-7b1b-afe7-acad8efc6711","","null","
                <div class=""stimulus-container"">
                    <img src=""images/instructions/movie_2.png"" class=""exp-image"">
                    <div class=""question-area""></div> 
                </div>","null","","","","","","","","","","","",""
"","","","","","html-button-response","9","51763","0.0-9.0","27A55A4000E74742B493872496C7245E","019cfc7c-4a63-7a64-93bf-bf57b2d742f2","019cfc7b-6c7b-7b1b-afe7-acad8efc6711","","1166","
                <div class=""stimulus-container"">
                    <img src=""images/instructions/movie_2.png"" class=""exp-image"">
                    <div class=""question-area"">
                        <p style=""font-size: 20px; font-weight: bold; margin: 0;"">Was there a person in this image?</p>
                    </div>
                </div>","0","example_question","2","","","","","","","","","",""
"","","","","","html-keyboard-response","10","55764","0.0-10.0","27A55A4000E74742B493872496C7245E","019cfc7c-4a63-7a64-93bf-bf57b2d742f2","019cfc7b-6c7b-7b1b-afe7-acad8efc6711","","null","
                <div class=""stimulus-container"">
                    <img src=""images/instructions/movie_3.png"" class=""exp-image"">
                    <div class=""question-area""></div> 
                </div>","null","","","","","","","","","","","",""
"","","","","","html-button-response","11","56472","0.0-11.0","27A55A4000E74742B493872496C7245E","019cfc7c-4a63-7a64-93bf-bf57b2d742f2","019cfc7b-6c7b-7b1b-afe7-acad8efc6711","","707","
                <div class=""stimulus-container"">
                    <img src=""images/instructions/movie_3.png"" class=""exp-image"">
                    <div class=""question-area"">
                        <p style=""font-size: 20px; font-weight: bold; margin: 0;"">Was there a person in this image?</p>
                    </div>
                </div>","0","example_question","3","","","","","","","","","",""
"","","","","","html-keyboard-response","12","60481","0.0-12.0","27A55A4000E74742B493872496C7245E","019cfc7c-4a63-7a64-93bf-bf57b2d742f2","019cfc7b-6c7b-7b1b-afe7-acad8efc6711","","null","
                <div class=""stimulus-container"">
                    <img src=""images/instructions/movie_4.png"" class=""exp-image"">
                    <div class=""question-area""></div> 
                </div>","null","","","","","","","","","","","",""
"","","","","","html-button-response","13","61077","0.0-13.0","27A55A4000E74742B493872496C7245E","019cfc7c-4a63-7a64-93bf-bf57b2d742f2","019cfc7b-6c7b-7b1b-afe7-acad8efc6711","","595","
                <div class=""stimulus-container"">
                    <img src=""images/instructions/movie_4.png"" class=""exp-image"">
                    <div class=""question-area"">
                        <p style=""font-size: 20px; font-weight: bold; margin: 0;"">Was there a person in this image?</p>
                    </div>
                </div>","0","example_question","4","","","","","","","","","",""
"","","","","","instructions","14","62480","0.0-14.0","27A55A4000E74742B493872496C7245E","019cfc7c-4a63-7a64-93bf-bf57b2d742f2","019cfc7b-6c7b-7b1b-afe7-acad8efc6711","[{""page_index"":0,""viewing_time"":1403}]","1403","","","","","","","","","","","","","",""
"","","","","","instructions","15","73368","0.0-15.0","27A55A4000E74742B493872496C7245E","019cfc7c-4a63-7a64-93bf-bf57b2d742f2","019cfc7b-6c7b-7b1b-afe7-acad8efc6711","[{""page_index"":0,""viewing_time"":10887}]","10887","","","","","","","","","","","","","",""
"","","","","","html-keyboard-response","16","78384","0.0-16.0","27A55A4000E74742B493872496C7245E","019cfc7c-4a63-7a64-93bf-bf57b2d742f2","019cfc7b-6c7b-7b1b-afe7-acad8efc6711","","null","<div style=""background-color: white; width: 100vw; height: 100vh;""></div>","null","","","","","","","","","","","",""
"","","","","","html-keyboard-response","17","83385","0.0-17.0","27A55A4000E74742B493872496C7245E","019cfc7c-4a63-7a64-93bf-bf57b2d742f2","019cfc7b-6c7b-7b1b-afe7-acad8efc6711","","null","
                <div class=""stimulus-container"">
                    <img src=""images/causal_sequence/saving_a_cat_causal/saving_a_cat_causal_1.png"" class=""exp-image"">
                    <div class=""question-area""></div> 
                </div>","null","","","","","","","","","","","",""
"","","","","","html-button-response","18","84201","0.0-18.0","27A55A4000E74742B493872496C7245E","019cfc7c-4a63-7a64-93bf-bf57b2d742f2","019cfc7b-6c7b-7b1b-afe7-acad8efc6711","","814","
                <div class=""stimulus-container"">
                    <img src=""images/causal_sequence/saving_a_cat_causal/saving_a_cat_causal_1.png"" class=""exp-image"">
                    <div class=""question-area"">
                        <p style=""font-size: 20px; font-weight: bold; margin: 0;"">Is there a person in this image?</p>
                    </div>
                </div>","0","main_experiment_trial","1","saving_a_cat_causal","causal_sequence","chronological","","","","","","",""
"","","","","","html-keyboard-response","19","89202","0.0-19.0","27A55A4000E74742B493872496C7245E","019cfc7c-4a63-7a64-93bf-bf57b2d742f2","019cfc7b-6c7b-7b1b-afe7-acad8efc6711","","null","
                <div class=""stimulus-container"">
                    <img src=""images/causal_sequence/saving_a_cat_causal/saving_a_cat_causal_2.png"" class=""exp-image"">
                    <div class=""question-area""></div> 
                </div>","null","","","","","","","","","","","",""
"","","","","","html-button-response","20","89998","0.0-20.0","27A55A4000E74742B493872496C7245E","019cfc7c-4a63-7a64-93bf-bf57b2d742f2","019cfc7b-6c7b-7b1b-afe7-acad8efc6711","","795","
                <div class=""stimulus-container"">
                    <img src=""images/causal_sequence/saving_a_cat_causal/saving_a_cat_causal_2.png"" class=""exp-image"">
                    <div class=""question-area"">
                        <p style=""font-size: 20px; font-weight: bold; margin: 0;"">Is there a person in this image?</p>
                    </div>
                </div>","1","main_experiment_trial","2","saving_a_cat_causal","causal_sequence","chronological","","","","","","",""
"","","","","","html-keyboard-response","21","95001","0.0-21.0","27A55A4000E74742B493872496C7245E","019cfc7c-4a63-7a64-93bf-bf57b2d742f2","019cfc7b-6c7b-7b1b-afe7-acad8efc6711","","null","
                <div class=""stimulus-container"">
                    <img src=""images/causal_sequence/saving_a_cat_causal/saving_a_cat_causal_3.png"" class=""exp-image"">
                    <div class=""question-area""></div> 
                </div>","null","","","","","","","","","","","",""
"","","","","","html-button-response","22","95571","0.0-22.0","27A55A4000E74742B493872496C7245E","019cfc7c-4a63-7a64-93bf-bf57b2d742f2","019cfc7b-6c7b-7b1b-afe7-acad8efc6711","","569","
                <div class=""stimulus-container"">
                    <img src=""images/causal_sequence/saving_a_cat_causal/saving_a_cat_causal_3.png"" class=""exp-image"">
                    <div class=""question-area"">
                        <p style=""font-size: 20px; font-weight: bold; margin: 0;"">Is there a person in this image?</p>
                    </div>
                </div>","1","main_experiment_trial","3","saving_a_cat_causal","causal_sequence","chronological","","","","","","",""
"","","","","","html-keyboard-response","23","100586","0.0-23.0","27A55A4000E74742B493872496C7245E","019cfc7c-4a63-7a64-93bf-bf57b2d742f2","019cfc7b-6c7b-7b1b-afe7-acad8efc6711","","null","
                <div class=""stimulus-container"">
                    <img src=""images/causal_sequence/saving_a_cat_causal/saving_a_cat_causal_4.png"" class=""exp-image"">
                    <div class=""question-area""></div> 
                </div>","null","","","","","","","","","","","",""
"","","","","","html-button-response","24","101234","0.0-24.0","27A55A4000E74742B493872496C7245E","019cfc7c-4a63-7a64-93bf-bf57b2d742f2","019cfc7b-6c7b-7b1b-afe7-acad8efc6711","","647","
                <div class=""stimulus-container"">
                    <img src=""images/causal_sequence/saving_a_cat_causal/saving_a_cat_causal_4.png"" class=""exp-image"">
                    <div class=""question-area"">
                        <p style=""font-size: 20px; font-weight: bold; margin: 0;"">Is there a person in this image?</p>
                    </div>
                </div>","0","main_experiment_trial","4","saving_a_cat_causal","causal_sequence","chronological","","","","","","",""
"","","","","","html-keyboard-response","25","106231","0.0-25.0","27A55A4000E74742B493872496C7245E","019cfc7c-4a63-7a64-93bf-bf57b2d742f2","019cfc7b-6c7b-7b1b-afe7-acad8efc6711","","null","
                <div class=""stimulus-container"">
                    <img src=""images/causal_sequence/saving_a_cat_causal/saving_a_cat_causal_5.png"" class=""exp-image"">
                    <div class=""question-area""></div> 
                </div>","null","","","","","","","","","","","",""
"","","","","","html-button-response","26","107019","0.0-26.0","27A55A4000E74742B493872496C7245E","019cfc7c-4a63-7a64-93bf-bf57b2d742f2","019cfc7b-6c7b-7b1b-afe7-acad8efc6711","","787","
                <div class=""stimulus-container"">
                    <img src=""images/causal_sequence/saving_a_cat_causal/saving_a_cat_causal_5.png"" class=""exp-image"">
                    <div class=""question-area"">
                        <p style=""font-size: 20px; font-weight: bold; margin: 0;"">Is there a person in this image?</p>
                    </div>
                </div>","0","main_experiment_trial","5","saving_a_cat_causal","causal_sequence","chronological","","","","","","",""
"","","","","","html-keyboard-response","27","112030","0.0-27.0","27A55A4000E74742B493872496C7245E","019cfc7c-4a63-7a64-93bf-bf57b2d742f2","019cfc7b-6c7b-7b1b-afe7-acad8efc6711","","null","
                <div class=""stimulus-container"">
                    <img src=""images/causal_sequence/saving_a_cat_causal/saving_a_cat_causal_6.png"" class=""exp-image"">
                    <div class=""question-area""></div> 
                </div>","null","","","","","","","","","","","",""
"","","","","","html-button-response","28","112516","0.0-28.0","27A55A4000E74742B493872496C7245E","019cfc7c-4a63-7a64-93bf-bf57b2d742f2","019cfc7b-6c7b-7b1b-afe7-acad8efc6711","","485","
                <div class=""stimulus-container"">
                    <img src=""images/causal_sequence/saving_a_cat_causal/saving_a_cat_causal_6.png"" class=""exp-image"">
                    <div class=""question-area"">
                        <p style=""font-size: 20px; font-weight: bold; margin: 0;"">Is there a person in this image?</p>
                    </div>
                </div>","0","main_experiment_trial","6","saving_a_cat_causal","causal_sequence","chronological","","","","","","",""
"","","","","","html-keyboard-response","29","117517","0.0-29.0","27A55A4000E74742B493872496C7245E","019cfc7c-4a63-7a64-93bf-bf57b2d742f2","019cfc7b-6c7b-7b1b-afe7-acad8efc6711","","null","
                <div class=""stimulus-container"">
                    <img src=""images/causal_sequence/saving_a_cat_causal/saving_a_cat_causal_7.png"" class=""exp-image"">
                    <div class=""question-area""></div> 
                </div>","null","","","","","","","","","","","",""
"","","","","","html-button-response","30","117932","0.0-30.0","27A55A4000E74742B493872496C7245E","019cfc7c-4a63-7a64-93bf-bf57b2d742f2","019cfc7b-6c7b-7b1b-afe7-acad8efc6711","","414","
                <div class=""stimulus-container"">
                    <img src=""images/causal_sequence/saving_a_cat_causal/saving_a_cat_causal_7.png"" class=""exp-image"">
                    <div class=""question-area"">
                        <p style=""font-size: 20px; font-weight: bold; margin: 0;"">Is there a person in this image?</p>
                    </div>
                </div>","0","main_experiment_trial","7","saving_a_cat_causal","causal_sequence","chronological","","","","","","",""
"","","","","","html-keyboard-response","31","122933","0.0-31.0","27A55A4000E74742B493872496C7245E","019cfc7c-4a63-7a64-93bf-bf57b2d742f2","019cfc7b-6c7b-7b1b-afe7-acad8efc6711","","null","
                <div class=""stimulus-container"">
                    <img src=""images/causal_sequence/saving_a_cat_causal/saving_a_cat_causal_8.png"" class=""exp-image"">
                    <div class=""question-area""></div> 
                </div>","null","","","","","","","","","","","",""
"","","","","","html-button-response","32","123602","0.0-32.0","27A55A4000E74742B493872496C7245E","019cfc7c-4a63-7a64-93bf-bf57b2d742f2","019cfc7b-6c7b-7b1b-afe7-acad8efc6711","","668","
                <div class=""stimulus-container"">
                    <img src=""images/causal_sequence/saving_a_cat_causal/saving_a_cat_causal_8.png"" class=""exp-image"">
                    <div class=""question-area"">
                        <p style=""font-size: 20px; font-weight: bold; margin: 0;"">Is there a person in this image?</p>
                    </div>
                </div>","0","main_experiment_trial","8","saving_a_cat_causal","causal_sequence","chronological","","","","","","",""
"","","","","","html-keyboard-response","33","128613","0.0-33.0","27A55A4000E74742B493872496C7245E","019cfc7c-4a63-7a64-93bf-bf57b2d742f2","019cfc7b-6c7b-7b1b-afe7-acad8efc6711","","null","
                <div class=""stimulus-container"">
                    <img src=""images/causal_sequence/saving_a_cat_causal/saving_a_cat_causal_9.png"" class=""exp-image"">
                    <div class=""question-area""></div> 
                </div>","null","","","","","","","","","","","",""
"","","","","","html-button-response","34","129241","0.0-34.0","27A55A4000E74742B493872496C7245E","019cfc7c-4a63-7a64-93bf-bf57b2d742f2","019cfc7b-6c7b-7b1b-afe7-acad8efc6711","","627","
                <div class=""stimulus-container"">
                    <img src=""images/causal_sequence/saving_a_cat_causal/saving_a_cat_causal_9.png"" class=""exp-image"">
                    <div class=""question-area"">
                        <p style=""font-size: 20px; font-weight: bold; margin: 0;"">Is there a person in this image?</p>
                    </div>
                </div>","0","main_experiment_trial","9","saving_a_cat_causal","causal_sequence","chronological","","","","","","",""
"","","","","","html-keyboard-response","35","134256","0.0-35.0","27A55A4000E74742B493872496C7245E","019cfc7c-4a63-7a64-93bf-bf57b2d742f2","019cfc7b-6c7b-7b1b-afe7-acad8efc6711","","null","
                <div class=""stimulus-container"">
                    <img src=""images/causal_sequence/saving_a_cat_causal/saving_a_cat_causal_ten.png"" class=""exp-image"">
                    <div class=""question-area""></div> 
                </div>","null","","","","","","","","","","","",""
"","","","","","html-button-response","36","134874","0.0-36.0","27A55A4000E74742B493872496C7245E","019cfc7c-4a63-7a64-93bf-bf57b2d742f2","019cfc7b-6c7b-7b1b-afe7-acad8efc6711","","618","
                <div class=""stimulus-container"">
                    <img src=""images/causal_sequence/saving_a_cat_causal/saving_a_cat_causal_ten.png"" class=""exp-image"">
                    <div class=""question-area"">
                        <p style=""font-size: 20px; font-weight: bold; margin: 0;"">Is there a person in this image?</p>
                    </div>
                </div>","0","main_experiment_trial","ten","saving_a_cat_causal","causal_sequence","chronological","","","","","","",""
"","","","","","html-keyboard-response","37","139880","0.0-37.0","27A55A4000E74742B493872496C7245E","019cfc7c-4a63-7a64-93bf-bf57b2d742f2","019cfc7b-6c7b-7b1b-afe7-acad8efc6711","","null","<div style=""background-color: white; width: 100vw; height: 100vh;""></div>","null","","","","","","","","","","","",""
"","","","","","html-keyboard-response","38","144881","0.0-38.0","27A55A4000E74742B493872496C7245E","019cfc7c-4a63-7a64-93bf-bf57b2d742f2","019cfc7b-6c7b-7b1b-afe7-acad8efc6711","","null","
                <div class=""stimulus-container"">
                    <img src=""images/schematic_sequence/interview_scheme/interview_scheme_1.png"" class=""exp-image"">
                    <div class=""question-area""></div> 
                </div>","null","","","","","","","","","","","",""
"","","","","","html-button-response","39","145532","0.0-39.0","27A55A4000E74742B493872496C7245E","019cfc7c-4a63-7a64-93bf-bf57b2d742f2","019cfc7b-6c7b-7b1b-afe7-acad8efc6711","","650","
                <div class=""stimulus-container"">
                    <img src=""images/schematic_sequence/interview_scheme/interview_scheme_1.png"" class=""exp-image"">
                    <div class=""question-area"">
                        <p style=""font-size: 20px; font-weight: bold; margin: 0;"">Is there a person in this image?</p>
                    </div>
                </div>","1","main_experiment_trial","1","interview_scheme","schematic_sequence","chronological","","","","","","",""
"","","","","","html-keyboard-response","40","150542","0.0-40.0","27A55A4000E74742B493872496C7245E","019cfc7c-4a63-7a64-93bf-bf57b2d742f2","019cfc7b-6c7b-7b1b-afe7-acad8efc6711","","null","
                <div class=""stimulus-container"">
                    <img src=""images/schematic_sequence/interview_scheme/interview_scheme_2.png"" class=""exp-image"">
                    <div class=""question-area""></div> 
                </div>","null","","","","","","","","","","","",""
"","","","","","html-button-response","41","151246","0.0-41.0","27A55A4000E74742B493872496C7245E","019cfc7c-4a63-7a64-93bf-bf57b2d742f2","019cfc7b-6c7b-7b1b-afe7-acad8efc6711","","703","
                <div class=""stimulus-container"">
                    <img src=""images/schematic_sequence/interview_scheme/interview_scheme_2.png"" class=""exp-image"">
                    <div class=""question-area"">
                        <p style=""font-size: 20px; font-weight: bold; margin: 0;"">Is there a person in this image?</p>
                    </div>
                </div>","1","main_experiment_trial","2","interview_scheme","schematic_sequence","chronological","","","","","","",""
"","","","","","html-keyboard-response","42","156249","0.0-42.0","27A55A4000E74742B493872496C7245E","019cfc7c-4a63-7a64-93bf-bf57b2d742f2","019cfc7b-6c7b-7b1b-afe7-acad8efc6711","","null","
                <div class=""stimulus-container"">
                    <img src=""images/schematic_sequence/interview_scheme/interview_scheme_3.png"" class=""exp-image"">
                    <div class=""question-area""></div> 
                </div>","null","","","","","","","","","","","",""
"","","","","","html-button-response","43","156865","0.0-43.0","27A55A4000E74742B493872496C7245E","019cfc7c-4a63-7a64-93bf-bf57b2d742f2","019cfc7b-6c7b-7b1b-afe7-acad8efc6711","","616","
                <div class=""stimulus-container"">
                    <img src=""images/schematic_sequence/interview_scheme/interview_scheme_3.png"" class=""exp-image"">
                    <div class=""question-area"">
                        <p style=""font-size: 20px; font-weight: bold; margin: 0;"">Is there a person in this image?</p>
                    </div>
                </div>","1","main_experiment_trial","3","interview_scheme","schematic_sequence","chronological","","","","","","",""
"","","","","","html-keyboard-response","44","161869","0.0-44.0","27A55A4000E74742B493872496C7245E","019cfc7c-4a63-7a64-93bf-bf57b2d742f2","019cfc7b-6c7b-7b1b-afe7-acad8efc6711","","null","
                <div class=""stimulus-container"">
                    <img src=""images/schematic_sequence/interview_scheme/interview_scheme_4.png"" class=""exp-image"">
                    <div class=""question-area""></div> 
                </div>","null","","","","","","","","","","","",""
"","","","","","html-button-response","45","162647","0.0-45.0","27A55A4000E74742B493872496C7245E","019cfc7c-4a63-7a64-93bf-bf57b2d742f2","019cfc7b-6c7b-7b1b-afe7-acad8efc6711","","777","
                <div class=""stimulus-container"">
                    <img src=""images/schematic_sequence/interview_scheme/interview_scheme_4.png"" class=""exp-image"">
                    <div class=""question-area"">
                        <p style=""font-size: 20px; font-weight: bold; margin: 0;"">Is there a person in this image?</p>
                    </div>
                </div>","1","main_experiment_trial","4","interview_scheme","schematic_sequence","chronological","","","","","","",""
"","","","","","html-keyboard-response","46","167658","0.0-46.0","27A55A4000E74742B493872496C7245E","019cfc7c-4a63-7a64-93bf-bf57b2d742f2","019cfc7b-6c7b-7b1b-afe7-acad8efc6711","","null","
                <div class=""stimulus-container"">
                    <img src=""images/schematic_sequence/interview_scheme/interview_scheme_5.png"" class=""exp-image"">
                    <div class=""question-area""></div> 
                </div>","null","","","","","","","","","","","",""
"","","","","","html-button-response","47","167997","0.0-47.0","27A55A4000E74742B493872496C7245E","019cfc7c-4a63-7a64-93bf-bf57b2d742f2","019cfc7b-6c7b-7b1b-afe7-acad8efc6711","","339","
                <div class=""stimulus-container"">
                    <img src=""images/schematic_sequence/interview_scheme/interview_scheme_5.png"" class=""exp-image"">
                    <div class=""question-area"">
                        <p style=""font-size: 20px; font-weight: bold; margin: 0;"">Is there a person in this image?</p>
                    </div>
                </div>","0","main_experiment_trial","5","interview_scheme","schematic_sequence","chronological","","","","","","",""
"","","","","","html-keyboard-response","48","173008","0.0-48.0","27A55A4000E74742B493872496C7245E","019cfc7c-4a63-7a64-93bf-bf57b2d742f2","019cfc7b-6c7b-7b1b-afe7-acad8efc6711","","null","
                <div class=""stimulus-container"">
                    <img src=""images/schematic_sequence/interview_scheme/interview_scheme_6.png"" class=""exp-image"">
                    <div class=""question-area""></div> 
                </div>","null","","","","","","","","","","","",""
"","","","","","html-button-response","49","174508","0.0-49.0","27A55A4000E74742B493872496C7245E","019cfc7c-4a63-7a64-93bf-bf57b2d742f2","019cfc7b-6c7b-7b1b-afe7-acad8efc6711","","1498","
                <div class=""stimulus-container"">
                    <img src=""images/schematic_sequence/interview_scheme/interview_scheme_6.png"" class=""exp-image"">
                    <div class=""question-area"">
                        <p style=""font-size: 20px; font-weight: bold; margin: 0;"">Is there a person in this image?</p>
                    </div>
                </div>","0","main_experiment_trial","6","interview_scheme","schematic_sequence","chronological","","","","","","",""
"","","","","","html-keyboard-response","50","179510","0.0-50.0","27A55A4000E74742B493872496C7245E","019cfc7c-4a63-7a64-93bf-bf57b2d742f2","019cfc7b-6c7b-7b1b-afe7-acad8efc6711","","null","
                <div class=""stimulus-container"">
                    <img src=""images/schematic_sequence/interview_scheme/interview_scheme_7.png"" class=""exp-image"">
                    <div class=""question-area""></div> 
                </div>","null","","","","","","","","","","","",""
"","","","","","html-button-response","51","179961","0.0-51.0","27A55A4000E74742B493872496C7245E","019cfc7c-4a63-7a64-93bf-bf57b2d742f2","019cfc7b-6c7b-7b1b-afe7-acad8efc6711","","450","
                <div class=""stimulus-container"">
                    <img src=""images/schematic_sequence/interview_scheme/interview_scheme_7.png"" class=""exp-image"">
                    <div class=""question-area"">
                        <p style=""font-size: 20px; font-weight: bold; margin: 0;"">Is there a person in this image?</p>
                    </div>
                </div>","0","main_experiment_trial","7","interview_scheme","schematic_sequence","chronological","","","","","","",""
"","","","","","html-keyboard-response","52","184976","0.0-52.0","27A55A4000E74742B493872496C7245E","019cfc7c-4a63-7a64-93bf-bf57b2d742f2","019cfc7b-6c7b-7b1b-afe7-acad8efc6711","","null","
                <div class=""stimulus-container"">
                    <img src=""images/schematic_sequence/interview_scheme/interview_scheme_8.png"" class=""exp-image"">
                    <div class=""question-area""></div> 
                </div>","null","","","","","","","","","","","",""
"","","","","","html-button-response","53","185458","0.0-53.0","27A55A4000E74742B493872496C7245E","019cfc7c-4a63-7a64-93bf-bf57b2d742f2","019cfc7b-6c7b-7b1b-afe7-acad8efc6711","","481","
                <div class=""stimulus-container"">
                    <img src=""images/schematic_sequence/interview_scheme/interview_scheme_8.png"" class=""exp-image"">
                    <div class=""question-area"">
                        <p style=""font-size: 20px; font-weight: bold; margin: 0;"">Is there a person in this image?</p>
                    </div>
                </div>","0","main_experiment_trial","8","interview_scheme","schematic_sequence","chronological","","","","","","",""
"","","","","","html-keyboard-response","54","190467","0.0-54.0","27A55A4000E74742B493872496C7245E","019cfc7c-4a63-7a64-93bf-bf57b2d742f2","019cfc7b-6c7b-7b1b-afe7-acad8efc6711","","null","
                <div class=""stimulus-container"">
                    <img src=""images/schematic_sequence/interview_scheme/interview_scheme_9.png"" class=""exp-image"">
                    <div class=""question-area""></div> 
                </div>","null","","","","","","","","","","","",""
"","","","","","html-button-response","55","190820","0.0-55.0","27A55A4000E74742B493872496C7245E","019cfc7c-4a63-7a64-93bf-bf57b2d742f2","019cfc7b-6c7b-7b1b-afe7-acad8efc6711","","353","
                <div class=""stimulus-container"">
                    <img src=""images/schematic_sequence/interview_scheme/interview_scheme_9.png"" class=""exp-image"">
                    <div class=""question-area"">
                        <p style=""font-size: 20px; font-weight: bold; margin: 0;"">Is there a person in this image?</p>
                    </div>
                </div>","0","main_experiment_trial","9","interview_scheme","schematic_sequence","chronological","","","","","","",""
"","","","","","html-keyboard-response","56","195822","0.0-56.0","27A55A4000E74742B493872496C7245E","019cfc7c-4a63-7a64-93bf-bf57b2d742f2","019cfc7b-6c7b-7b1b-afe7-acad8efc6711","","null","
                <div class=""stimulus-container"">
                    <img src=""images/schematic_sequence/interview_scheme/interview_scheme_ten.png"" class=""exp-image"">
                    <div class=""question-area""></div> 
                </div>","null","","","","","","","","","","","",""
"","","","","","html-button-response","57","196191","0.0-57.0","27A55A4000E74742B493872496C7245E","019cfc7c-4a63-7a64-93bf-bf57b2d742f2","019cfc7b-6c7b-7b1b-afe7-acad8efc6711","","368","
                <div class=""stimulus-container"">
                    <img src=""images/schematic_sequence/interview_scheme/interview_scheme_ten.png"" class=""exp-image"">
                    <div class=""question-area"">
                        <p style=""font-size: 20px; font-weight: bold; margin: 0;"">Is there a person in this image?</p>
                    </div>
                </div>","0","main_experiment_trial","ten","interview_scheme","schematic_sequence","chronological","","","","","","",""
"","","","","","html-keyboard-response","58","201193","0.0-58.0","27A55A4000E74742B493872496C7245E","019cfc7c-4a63-7a64-93bf-bf57b2d742f2","019cfc7b-6c7b-7b1b-afe7-acad8efc6711","","null","<div style=""background-color: white; width: 100vw; height: 100vh;""></div>","null","","","","","","","","","","","",""
"","","","","","html-keyboard-response","59","206194","0.0-59.0","27A55A4000E74742B493872496C7245E","019cfc7c-4a63-7a64-93bf-bf57b2d742f2","019cfc7b-6c7b-7b1b-afe7-acad8efc6711","","null","
                <div class=""stimulus-container"">
                    <img src=""images/causal_sequence/museum_causal/museum_causal_1.png"" class=""exp-image"">
                    <div class=""question-area""></div> 
                </div>","null","","","","","","","","","","","",""
"","","","","","html-button-response","60","206976","0.0-60.0","27A55A4000E74742B493872496C7245E","019cfc7c-4a63-7a64-93bf-bf57b2d742f2","019cfc7b-6c7b-7b1b-afe7-acad8efc6711","","781","
                <div class=""stimulus-container"">
                    <img src=""images/causal_sequence/museum_causal/museum_causal_1.png"" class=""exp-image"">
                    <div class=""question-area"">
                        <p style=""font-size: 20px; font-weight: bold; margin: 0;"">Is there a person in this image?</p>
                    </div>
                </div>","0","main_experiment_trial","1","museum_causal","causal_sequence","chronological","","","","","","",""
"","","","","","html-keyboard-response","61","211995","0.0-61.0","27A55A4000E74742B493872496C7245E","019cfc7c-4a63-7a64-93bf-bf57b2d742f2","019cfc7b-6c7b-7b1b-afe7-acad8efc6711","","null","
                <div class=""stimulus-container"">
                    <img src=""images/causal_sequence/museum_causal/museum_causal_2.png"" class=""exp-image"">
                    <div class=""question-area""></div> 
                </div>","null","","","","","","","","","","","",""
"","","","","","html-button-response","62","213177","0.0-62.0","27A55A4000E74742B493872496C7245E","019cfc7c-4a63-7a64-93bf-bf57b2d742f2","019cfc7b-6c7b-7b1b-afe7-acad8efc6711","","1181","
                <div class=""stimulus-container"">
                    <img src=""images/causal_sequence/museum_causal/museum_causal_2.png"" class=""exp-image"">
                    <div class=""question-area"">
                        <p style=""font-size: 20px; font-weight: bold; margin: 0;"">Is there a person in this image?</p>
                    </div>
                </div>","1","main_experiment_trial","2","museum_causal","causal_sequence","chronological","","","","","","",""
"","","","","","html-keyboard-response","63","218178","0.0-63.0","27A55A4000E74742B493872496C7245E","019cfc7c-4a63-7a64-93bf-bf57b2d742f2","019cfc7b-6c7b-7b1b-afe7-acad8efc6711","","null","
                <div class=""stimulus-container"">
                    <img src=""images/causal_sequence/museum_causal/museum_causal_3.png"" class=""exp-image"">
                    <div class=""question-area""></div> 
                </div>","null","","","","","","","","","","","",""
"","","","","","html-button-response","64","218736","0.0-64.0","27A55A4000E74742B493872496C7245E","019cfc7c-4a63-7a64-93bf-bf57b2d742f2","019cfc7b-6c7b-7b1b-afe7-acad8efc6711","","557","
                <div class=""stimulus-container"">
                    <img src=""images/causal_sequence/museum_causal/museum_causal_3.png"" class=""exp-image"">
                    <div class=""question-area"">
                        <p style=""font-size: 20px; font-weight: bold; margin: 0;"">Is there a person in this image?</p>
                    </div>
                </div>","0","main_experiment_trial","3","museum_causal","causal_sequence","chronological","","","","","","",""
"","","","","","html-keyboard-response","65","223740","0.0-65.0","27A55A4000E74742B493872496C7245E","019cfc7c-4a63-7a64-93bf-bf57b2d742f2","019cfc7b-6c7b-7b1b-afe7-acad8efc6711","","null","
                <div class=""stimulus-container"">
                    <img src=""images/causal_sequence/museum_causal/museum_causal_4.png"" class=""exp-image"">
                    <div class=""question-area""></div> 
                </div>","null","","","","","","","","","","","",""
"","","","","","html-button-response","66","224332","0.0-66.0","27A55A4000E74742B493872496C7245E","019cfc7c-4a63-7a64-93bf-bf57b2d742f2","019cfc7b-6c7b-7b1b-afe7-acad8efc6711","","590","
                <div class=""stimulus-container"">
                    <img src=""images/causal_sequence/museum_causal/museum_causal_4.png"" class=""exp-image"">
                    <div class=""question-area"">
                        <p style=""font-size: 20px; font-weight: bold; margin: 0;"">Is there a person in this image?</p>
                    </div>
                </div>","1","main_experiment_trial","4","museum_causal","causal_sequence","chronological","","","","","","",""
"","","","","","html-keyboard-response","67","229337","0.0-67.0","27A55A4000E74742B493872496C7245E","019cfc7c-4a63-7a64-93bf-bf57b2d742f2","019cfc7b-6c7b-7b1b-afe7-acad8efc6711","","null","
                <div class=""stimulus-container"">
                    <img src=""images/causal_sequence/museum_causal/museum_causal_5.png"" class=""exp-image"">
                    <div class=""question-area""></div> 
                </div>","null","","","","","","","","","","","",""
"","","","","","html-button-response","68","230469","0.0-68.0","27A55A4000E74742B493872496C7245E","019cfc7c-4a63-7a64-93bf-bf57b2d742f2","019cfc7b-6c7b-7b1b-afe7-acad8efc6711","","1131","
                <div class=""stimulus-container"">
                    <img src=""images/causal_sequence/museum_causal/museum_causal_5.png"" class=""exp-image"">
                    <div class=""question-area"">
                        <p style=""font-size: 20px; font-weight: bold; margin: 0;"">Is there a person in this image?</p>
                    </div>
                </div>","0","main_experiment_trial","5","museum_causal","causal_sequence","chronological","","","","","","",""
"","","","","","html-keyboard-response","69","235478","0.0-69.0","27A55A4000E74742B493872496C7245E","019cfc7c-4a63-7a64-93bf-bf57b2d742f2","019cfc7b-6c7b-7b1b-afe7-acad8efc6711","","null","
                <div class=""stimulus-container"">
                    <img src=""images/causal_sequence/museum_causal/museum_causal_6.png"" class=""exp-image"">
                    <div class=""question-area""></div> 
                </div>","null","","","","","","","","","","","",""
"","","","","","html-button-response","70","236971","0.0-70.0","27A55A4000E74742B493872496C7245E","019cfc7c-4a63-7a64-93bf-bf57b2d742f2","019cfc7b-6c7b-7b1b-afe7-acad8efc6711","","1493","
                <div class=""stimulus-container"">
                    <img src=""images/causal_sequence/museum_causal/museum_causal_6.png"" class=""exp-image"">
                    <div class=""question-area"">
                        <p style=""font-size: 20px; font-weight: bold; margin: 0;"">Is there a person in this image?</p>
                    </div>
                </div>","0","main_experiment_trial","6","museum_causal","causal_sequence","chronological","","","","","","",""
"","","","","","html-keyboard-response","71","241981","0.0-71.0","27A55A4000E74742B493872496C7245E","019cfc7c-4a63-7a64-93bf-bf57b2d742f2","019cfc7b-6c7b-7b1b-afe7-acad8efc6711","","null","
                <div class=""stimulus-container"">
                    <img src=""images/causal_sequence/museum_causal/museum_causal_7.png"" class=""exp-image"">
                    <div class=""question-area""></div> 
                </div>","null","","","","","","","","","","","",""
"","","","","","html-button-response","72","242904","0.0-72.0","27A55A4000E74742B493872496C7245E","019cfc7c-4a63-7a64-93bf-bf57b2d742f2","019cfc7b-6c7b-7b1b-afe7-acad8efc6711","","922","
                <div class=""stimulus-container"">
                    <img src=""images/causal_sequence/museum_causal/museum_causal_7.png"" class=""exp-image"">
                    <div class=""question-area"">
                        <p style=""font-size: 20px; font-weight: bold; margin: 0;"">Is there a person in this image?</p>
                    </div>
                </div>","1","main_experiment_trial","7","museum_causal","causal_sequence","chronological","","","","","","",""
"","","","","","html-keyboard-response","73","247909","0.0-73.0","27A55A4000E74742B493872496C7245E","019cfc7c-4a63-7a64-93bf-bf57b2d742f2","019cfc7b-6c7b-7b1b-afe7-acad8efc6711","","null","
                <div class=""stimulus-container"">
                    <img src=""images/causal_sequence/museum_causal/museum_causal_8.png"" class=""exp-image"">
                    <div class=""question-area""></div> 
                </div>","null","","","","","","","","","","","",""
"","","","","","html-button-response","74","249226","0.0-74.0","27A55A4000E74742B493872496C7245E","019cfc7c-4a63-7a64-93bf-bf57b2d742f2","019cfc7b-6c7b-7b1b-afe7-acad8efc6711","","1317","
                <div class=""stimulus-container"">
                    <img src=""images/causal_sequence/museum_causal/museum_causal_8.png"" class=""exp-image"">
                    <div class=""question-area"">
                        <p style=""font-size: 20px; font-weight: bold; margin: 0;"">Is there a person in this image?</p>
                    </div>
                </div>","0","main_experiment_trial","8","museum_causal","causal_sequence","chronological","","","","","","",""
"","","","","","html-keyboard-response","75","254235","0.0-75.0","27A55A4000E74742B493872496C7245E","019cfc7c-4a63-7a64-93bf-bf57b2d742f2","019cfc7b-6c7b-7b1b-afe7-acad8efc6711","","null","
                <div class=""stimulus-container"">
                    <img src=""images/causal_sequence/museum_causal/museum_causal_9.png"" class=""exp-image"">
                    <div class=""question-area""></div> 
                </div>","null","","","","","","","","","","","",""
"","","","","","html-button-response","76","254807","0.0-76.0","27A55A4000E74742B493872496C7245E","019cfc7c-4a63-7a64-93bf-bf57b2d742f2","019cfc7b-6c7b-7b1b-afe7-acad8efc6711","","571","
                <div class=""stimulus-container"">
                    <img src=""images/causal_sequence/museum_causal/museum_causal_9.png"" class=""exp-image"">
                    <div class=""question-area"">
                        <p style=""font-size: 20px; font-weight: bold; margin: 0;"">Is there a person in this image?</p>
                    </div>
                </div>","1","main_experiment_trial","9","museum_causal","causal_sequence","chronological","","","","","","",""
"","","","","","html-keyboard-response","77","259809","0.0-77.0","27A55A4000E74742B493872496C7245E","019cfc7c-4a63-7a64-93bf-bf57b2d742f2","019cfc7b-6c7b-7b1b-afe7-acad8efc6711","","null","
                <div class=""stimulus-container"">
                    <img src=""images/causal_sequence/museum_causal/museum_causal_ten.png"" class=""exp-image"">
                    <div class=""question-area""></div> 
                </div>","null","","","","","","","","","","","",""
"","","","","","html-button-response","78","260754","0.0-78.0","27A55A4000E74742B493872496C7245E","019cfc7c-4a63-7a64-93bf-bf57b2d742f2","019cfc7b-6c7b-7b1b-afe7-acad8efc6711","","944","
                <div class=""stimulus-container"">
                    <img src=""images/causal_sequence/museum_causal/museum_causal_ten.png"" class=""exp-image"">
                    <div class=""question-area"">
                        <p style=""font-size: 20px; font-weight: bold; margin: 0;"">Is there a person in this image?</p>
                    </div>
                </div>","0","main_experiment_trial","ten","museum_causal","causal_sequence","chronological","","","","","","",""
"","","","","","html-keyboard-response","79","265755","0.0-79.0","27A55A4000E74742B493872496C7245E","019cfc7c-4a63-7a64-93bf-bf57b2d742f2","019cfc7b-6c7b-7b1b-afe7-acad8efc6711","","null","<div style=""background-color: white; width: 100vw; height: 100vh;""></div>","null","","","","","","","","","","","",""
"","","","","","html-keyboard-response","80","270756","0.0-80.0","27A55A4000E74742B493872496C7245E","019cfc7c-4a63-7a64-93bf-bf57b2d742f2","019cfc7b-6c7b-7b1b-afe7-acad8efc6711","","null","
                <div class=""stimulus-container"">
                    <img src=""images/causal_sequence/dog_causal/dog_causal_1.png"" class=""exp-image"">
                    <div class=""question-area""></div> 
                </div>","null","","","","","","","","","","","",""
"","","","","","html-button-response","81","271569","0.0-81.0","27A55A4000E74742B493872496C7245E","019cfc7c-4a63-7a64-93bf-bf57b2d742f2","019cfc7b-6c7b-7b1b-afe7-acad8efc6711","","812","
                <div class=""stimulus-container"">
                    <img src=""images/causal_sequence/dog_causal/dog_causal_1.png"" class=""exp-image"">
                    <div class=""question-area"">
                        <p style=""font-size: 20px; font-weight: bold; margin: 0;"">Is there a person in this image?</p>
                    </div>
                </div>","0","main_experiment_trial","1","dog_causal","causal_sequence","chronological","","","","","","",""
"","","","","","html-keyboard-response","82","276586","0.0-82.0","27A55A4000E74742B493872496C7245E","019cfc7c-4a63-7a64-93bf-bf57b2d742f2","019cfc7b-6c7b-7b1b-afe7-acad8efc6711","","null","
                <div class=""stimulus-container"">
                    <img src=""images/causal_sequence/dog_causal/dog_causal_2.png"" class=""exp-image"">
                    <div class=""question-area""></div> 
                </div>","null","","","","","","","","","","","",""
"","","","","","html-button-response","83","277652","0.0-83.0","27A55A4000E74742B493872496C7245E","019cfc7c-4a63-7a64-93bf-bf57b2d742f2","019cfc7b-6c7b-7b1b-afe7-acad8efc6711","","1065","
                <div class=""stimulus-container"">
                    <img src=""images/causal_sequence/dog_causal/dog_causal_2.png"" class=""exp-image"">
                    <div class=""question-area"">
                        <p style=""font-size: 20px; font-weight: bold; margin: 0;"">Is there a person in this image?</p>
                    </div>
                </div>","0","main_experiment_trial","2","dog_causal","causal_sequence","chronological","","","","","","",""
"","","","","","html-keyboard-response","84","282653","0.0-84.0","27A55A4000E74742B493872496C7245E","019cfc7c-4a63-7a64-93bf-bf57b2d742f2","019cfc7b-6c7b-7b1b-afe7-acad8efc6711","","null","
                <div class=""stimulus-container"">
                    <img src=""images/causal_sequence/dog_causal/dog_causal_3.png"" class=""exp-image"">
                    <div class=""question-area""></div> 
                </div>","null","","","","","","","","","","","",""
"","","","","","html-button-response","85","283539","0.0-85.0","27A55A4000E74742B493872496C7245E","019cfc7c-4a63-7a64-93bf-bf57b2d742f2","019cfc7b-6c7b-7b1b-afe7-acad8efc6711","","886","
                <div class=""stimulus-container"">
                    <img src=""images/causal_sequence/dog_causal/dog_causal_3.png"" class=""exp-image"">
                    <div class=""question-area"">
                        <p style=""font-size: 20px; font-weight: bold; margin: 0;"">Is there a person in this image?</p>
                    </div>
                </div>","0","main_experiment_trial","3","dog_causal","causal_sequence","chronological","","","","","","",""
"","","","","","html-keyboard-response","86","288550","0.0-86.0","27A55A4000E74742B493872496C7245E","019cfc7c-4a63-7a64-93bf-bf57b2d742f2","019cfc7b-6c7b-7b1b-afe7-acad8efc6711","","null","
                <div class=""stimulus-container"">
                    <img src=""images/causal_sequence/dog_causal/dog_causal_4.png"" class=""exp-image"">
                    <div class=""question-area""></div> 
                </div>","null","","","","","","","","","","","",""
"","","","","","html-button-response","87","289295","0.0-87.0","27A55A4000E74742B493872496C7245E","019cfc7c-4a63-7a64-93bf-bf57b2d742f2","019cfc7b-6c7b-7b1b-afe7-acad8efc6711","","744","
                <div class=""stimulus-container"">
                    <img src=""images/causal_sequence/dog_causal/dog_causal_4.png"" class=""exp-image"">
                    <div class=""question-area"">
                        <p style=""font-size: 20px; font-weight: bold; margin: 0;"">Is there a person in this image?</p>
                    </div>
                </div>","0","main_experiment_trial","4","dog_causal","causal_sequence","chronological","","","","","","",""
"","","","","","html-keyboard-response","88","294297","0.0-88.0","27A55A4000E74742B493872496C7245E","019cfc7c-4a63-7a64-93bf-bf57b2d742f2","019cfc7b-6c7b-7b1b-afe7-acad8efc6711","","null","
                <div class=""stimulus-container"">
                    <img src=""images/causal_sequence/dog_causal/dog_causal_5.png"" class=""exp-image"">
                    <div class=""question-area""></div> 
                </div>","null","","","","","","","","","","","",""
"","","","","","html-button-response","89","295258","0.0-89.0","27A55A4000E74742B493872496C7245E","019cfc7c-4a63-7a64-93bf-bf57b2d742f2","019cfc7b-6c7b-7b1b-afe7-acad8efc6711","","961","
                <div class=""stimulus-container"">
                    <img src=""images/causal_sequence/dog_causal/dog_causal_5.png"" class=""exp-image"">
                    <div class=""question-area"">
                        <p style=""font-size: 20px; font-weight: bold; margin: 0;"">Is there a person in this image?</p>
                    </div>
                </div>","0","main_experiment_trial","5","dog_causal","causal_sequence","chronological","","","","","","",""
"","","","","","html-keyboard-response","90","300267","0.0-90.0","27A55A4000E74742B493872496C7245E","019cfc7c-4a63-7a64-93bf-bf57b2d742f2","019cfc7b-6c7b-7b1b-afe7-acad8efc6711","","null","
                <div class=""stimulus-container"">
                    <img src=""images/causal_sequence/dog_causal/dog_causal_6.png"" class=""exp-image"">
                    <div class=""question-area""></div> 
                </div>","null","","","","","","","","","","","",""
"","","","","","html-button-response","91","301137","0.0-91.0","27A55A4000E74742B493872496C7245E","019cfc7c-4a63-7a64-93bf-bf57b2d742f2","019cfc7b-6c7b-7b1b-afe7-acad8efc6711","","869","
                <div class=""stimulus-container"">
                    <img src=""images/causal_sequence/dog_causal/dog_causal_6.png"" class=""exp-image"">
                    <div class=""question-area"">
                        <p style=""font-size: 20px; font-weight: bold; margin: 0;"">Is there a person in this image?</p>
                    </div>
                </div>","0","main_experiment_trial","6","dog_causal","causal_sequence","chronological","","","","","","",""
"","","","","","html-keyboard-response","92","306143","0.0-92.0","27A55A4000E74742B493872496C7245E","019cfc7c-4a63-7a64-93bf-bf57b2d742f2","019cfc7b-6c7b-7b1b-afe7-acad8efc6711","","null","
                <div class=""stimulus-container"">
                    <img src=""images/causal_sequence/dog_causal/dog_causal_7.png"" class=""exp-image"">
                    <div class=""question-area""></div> 
                </div>","null","","","","","","","","","","","",""
"","","","","","html-button-response","93","307474","0.0-93.0","27A55A4000E74742B493872496C7245E","019cfc7c-4a63-7a64-93bf-bf57b2d742f2","019cfc7b-6c7b-7b1b-afe7-acad8efc6711","","1331","
                <div class=""stimulus-container"">
                    <img src=""images/causal_sequence/dog_causal/dog_causal_7.png"" class=""exp-image"">
                    <div class=""question-area"">
                        <p style=""font-size: 20px; font-weight: bold; margin: 0;"">Is there a person in this image?</p>
                    </div>
                </div>","0","main_experiment_trial","7","dog_causal","causal_sequence","chronological","","","","","","",""
"","","","","","html-keyboard-response","94","312477","0.0-94.0","27A55A4000E74742B493872496C7245E","019cfc7c-4a63-7a64-93bf-bf57b2d742f2","019cfc7b-6c7b-7b1b-afe7-acad8efc6711","","null","
                <div class=""stimulus-container"">
                    <img src=""images/causal_sequence/dog_causal/dog_causal_8.png"" class=""exp-image"">
                    <div class=""question-area""></div> 
                </div>","null","","","","","","","","","","","",""
"","","","","","html-button-response","95","313325","0.0-95.0","27A55A4000E74742B493872496C7245E","019cfc7c-4a63-7a64-93bf-bf57b2d742f2","019cfc7b-6c7b-7b1b-afe7-acad8efc6711","","847","
                <div class=""stimulus-container"">
                    <img src=""images/causal_sequence/dog_causal/dog_causal_8.png"" class=""exp-image"">
                    <div class=""question-area"">
                        <p style=""font-size: 20px; font-weight: bold; margin: 0;"">Is there a person in this image?</p>
                    </div>
                </div>","0","main_experiment_trial","8","dog_causal","causal_sequence","chronological","","","","","","",""
"","","","","","html-keyboard-response","96","318326","0.0-96.0","27A55A4000E74742B493872496C7245E","019cfc7c-4a63-7a64-93bf-bf57b2d742f2","019cfc7b-6c7b-7b1b-afe7-acad8efc6711","","null","
                <div class=""stimulus-container"">
                    <img src=""images/causal_sequence/dog_causal/dog_causal_9.png"" class=""exp-image"">
                    <div class=""question-area""></div> 
                </div>","null","","","","","","","","","","","",""
"","","","","","html-button-response","97","318942","0.0-97.0","27A55A4000E74742B493872496C7245E","019cfc7c-4a63-7a64-93bf-bf57b2d742f2","019cfc7b-6c7b-7b1b-afe7-acad8efc6711","","616","
                <div class=""stimulus-container"">
                    <img src=""images/causal_sequence/dog_causal/dog_causal_9.png"" class=""exp-image"">
                    <div class=""question-area"">
                        <p style=""font-size: 20px; font-weight: bold; margin: 0;"">Is there a person in this image?</p>
                    </div>
                </div>","0","main_experiment_trial","9","dog_causal","causal_sequence","chronological","","","","","","",""
"","","","","","html-keyboard-response","98","323944","0.0-98.0","27A55A4000E74742B493872496C7245E","019cfc7c-4a63-7a64-93bf-bf57b2d742f2","019cfc7b-6c7b-7b1b-afe7-acad8efc6711","","null","
                <div class=""stimulus-container"">
                    <img src=""images/causal_sequence/dog_causal/dog_causal_ten.png"" class=""exp-image"">
                    <div class=""question-area""></div> 
                </div>","null","","","","","","","","","","","",""
"","","","","","html-button-response","99","325895","0.0-99.0","27A55A4000E74742B493872496C7245E","019cfc7c-4a63-7a64-93bf-bf57b2d742f2","019cfc7b-6c7b-7b1b-afe7-acad8efc6711","","1950","
                <div class=""stimulus-container"">
                    <img src=""images/causal_sequence/dog_causal/dog_causal_ten.png"" class=""exp-image"">
                    <div class=""question-area"">
                        <p style=""font-size: 20px; font-weight: bold; margin: 0;"">Is there a person in this image?</p>
                    </div>
                </div>","0","main_experiment_trial","ten","dog_causal","causal_sequence","chronological","","","","","","",""
"","","","","","html-keyboard-response","100","330897","0.0-100.0","27A55A4000E74742B493872496C7245E","019cfc7c-4a63-7a64-93bf-bf57b2d742f2","019cfc7b-6c7b-7b1b-afe7-acad8efc6711","","null","<div style=""background-color: white; width: 100vw; height: 100vh;""></div>","null","","","","","","","","","","","",""
"","","","","","html-keyboard-response","101","335912","0.0-101.0","27A55A4000E74742B493872496C7245E","019cfc7c-4a63-7a64-93bf-bf57b2d742f2","019cfc7b-6c7b-7b1b-afe7-acad8efc6711","","null","
                <div class=""stimulus-container"">
                    <img src=""images/schematic_sequence/restaurant_scheme/restaurant_scheme_1.png"" class=""exp-image"">
                    <div class=""question-area""></div> 
                </div>","null","","","","","","","","","","","",""
"","","","","","html-button-response","102","337378","0.0-102.0","27A55A4000E74742B493872496C7245E","019cfc7c-4a63-7a64-93bf-bf57b2d742f2","019cfc7b-6c7b-7b1b-afe7-acad8efc6711","","1466","
                <div class=""stimulus-container"">
                    <img src=""images/schematic_sequence/restaurant_scheme/restaurant_scheme_1.png"" class=""exp-image"">
                    <div class=""question-area"">
                        <p style=""font-size: 20px; font-weight: bold; margin: 0;"">Is there a person in this image?</p>
                    </div>
                </div>","0","main_experiment_trial","1","restaurant_scheme","schematic_sequence","chronological","","","","","","",""
"","","","","","html-keyboard-response","103","342382","0.0-103.0","27A55A4000E74742B493872496C7245E","019cfc7c-4a63-7a64-93bf-bf57b2d742f2","019cfc7b-6c7b-7b1b-afe7-acad8efc6711","","null","
                <div class=""stimulus-container"">
                    <img src=""images/schematic_sequence/restaurant_scheme/restaurant_scheme_2.png"" class=""exp-image"">
                    <div class=""question-area""></div> 
                </div>","null","","","","","","","","","","","",""
"","","","","","html-button-response","104","343040","0.0-104.0","27A55A4000E74742B493872496C7245E","019cfc7c-4a63-7a64-93bf-bf57b2d742f2","019cfc7b-6c7b-7b1b-afe7-acad8efc6711","","658","
                <div class=""stimulus-container"">
                    <img src=""images/schematic_sequence/restaurant_scheme/restaurant_scheme_2.png"" class=""exp-image"">
                    <div class=""question-area"">
                        <p style=""font-size: 20px; font-weight: bold; margin: 0;"">Is there a person in this image?</p>
                    </div>
                </div>","1","main_experiment_trial","2","restaurant_scheme","schematic_sequence","chronological","","","","","","",""
"","","","","","html-keyboard-response","105","348050","0.0-105.0","27A55A4000E74742B493872496C7245E","019cfc7c-4a63-7a64-93bf-bf57b2d742f2","019cfc7b-6c7b-7b1b-afe7-acad8efc6711","","null","
                <div class=""stimulus-container"">
                    <img src=""images/schematic_sequence/restaurant_scheme/restaurant_scheme_3.png"" class=""exp-image"">
                    <div class=""question-area""></div> 
                </div>","null","","","","","","","","","","","",""
"","","","","","html-button-response","106","349381","0.0-106.0","27A55A4000E74742B493872496C7245E","019cfc7c-4a63-7a64-93bf-bf57b2d742f2","019cfc7b-6c7b-7b1b-afe7-acad8efc6711","","1330","
                <div class=""stimulus-container"">
                    <img src=""images/schematic_sequence/restaurant_scheme/restaurant_scheme_3.png"" class=""exp-image"">
                    <div class=""question-area"">
                        <p style=""font-size: 20px; font-weight: bold; margin: 0;"">Is there a person in this image?</p>
                    </div>
                </div>","1","main_experiment_trial","3","restaurant_scheme","schematic_sequence","chronological","","","","","","",""
"","","","","","html-keyboard-response","107","354396","0.0-107.0","27A55A4000E74742B493872496C7245E","019cfc7c-4a63-7a64-93bf-bf57b2d742f2","019cfc7b-6c7b-7b1b-afe7-acad8efc6711","","null","
                <div class=""stimulus-container"">
                    <img src=""images/schematic_sequence/restaurant_scheme/restaurant_scheme_4.png"" class=""exp-image"">
                    <div class=""question-area""></div> 
                </div>","null","","","","","","","","","","","",""
"","","","","","html-button-response","108","355066","0.0-108.0","27A55A4000E74742B493872496C7245E","019cfc7c-4a63-7a64-93bf-bf57b2d742f2","019cfc7b-6c7b-7b1b-afe7-acad8efc6711","","669","
                <div class=""stimulus-container"">
                    <img src=""images/schematic_sequence/restaurant_scheme/restaurant_scheme_4.png"" class=""exp-image"">
                    <div class=""question-area"">
                        <p style=""font-size: 20px; font-weight: bold; margin: 0;"">Is there a person in this image?</p>
                    </div>
                </div>","0","main_experiment_trial","4","restaurant_scheme","schematic_sequence","chronological","","","","","","",""
"","","","","","html-keyboard-response","109","360070","0.0-109.0","27A55A4000E74742B493872496C7245E","019cfc7c-4a63-7a64-93bf-bf57b2d742f2","019cfc7b-6c7b-7b1b-afe7-acad8efc6711","","null","
                <div class=""stimulus-container"">
                    <img src=""images/schematic_sequence/restaurant_scheme/restaurant_scheme_5.png"" class=""exp-image"">
                    <div class=""question-area""></div> 
                </div>","null","","","","","","","","","","","",""
"","","","","","html-button-response","110","360571","0.0-110.0","27A55A4000E74742B493872496C7245E","019cfc7c-4a63-7a64-93bf-bf57b2d742f2","019cfc7b-6c7b-7b1b-afe7-acad8efc6711","","500","
                <div class=""stimulus-container"">
                    <img src=""images/schematic_sequence/restaurant_scheme/restaurant_scheme_5.png"" class=""exp-image"">
                    <div class=""question-area"">
                        <p style=""font-size: 20px; font-weight: bold; margin: 0;"">Is there a person in this image?</p>
                    </div>
                </div>","0","main_experiment_trial","5","restaurant_scheme","schematic_sequence","chronological","","","","","","",""
"","","","","","html-keyboard-response","111","365572","0.0-111.0","27A55A4000E74742B493872496C7245E","019cfc7c-4a63-7a64-93bf-bf57b2d742f2","019cfc7b-6c7b-7b1b-afe7-acad8efc6711","","null","
                <div class=""stimulus-container"">
                    <img src=""images/schematic_sequence/restaurant_scheme/restaurant_scheme_6.png"" class=""exp-image"">
                    <div class=""question-area""></div> 
                </div>","null","","","","","","","","","","","",""
"","","","","","html-button-response","112","366616","0.0-112.0","27A55A4000E74742B493872496C7245E","019cfc7c-4a63-7a64-93bf-bf57b2d742f2","019cfc7b-6c7b-7b1b-afe7-acad8efc6711","","1043","
                <div class=""stimulus-container"">
                    <img src=""images/schematic_sequence/restaurant_scheme/restaurant_scheme_6.png"" class=""exp-image"">
                    <div class=""question-area"">
                        <p style=""font-size: 20px; font-weight: bold; margin: 0;"">Is there a person in this image?</p>
                    </div>
                </div>","1","main_experiment_trial","6","restaurant_scheme","schematic_sequence","chronological","","","","","","",""
"","","","","","html-keyboard-response","113","371629","0.0-113.0","27A55A4000E74742B493872496C7245E","019cfc7c-4a63-7a64-93bf-bf57b2d742f2","019cfc7b-6c7b-7b1b-afe7-acad8efc6711","","null","
                <div class=""stimulus-container"">
                    <img src=""images/schematic_sequence/restaurant_scheme/restaurant_scheme_7.png"" class=""exp-image"">
                    <div class=""question-area""></div> 
                </div>","null","","","","","","","","","","","",""
"","","","","","html-button-response","114","372203","0.0-114.0","27A55A4000E74742B493872496C7245E","019cfc7c-4a63-7a64-93bf-bf57b2d742f2","019cfc7b-6c7b-7b1b-afe7-acad8efc6711","","574","
                <div class=""stimulus-container"">
                    <img src=""images/schematic_sequence/restaurant_scheme/restaurant_scheme_7.png"" class=""exp-image"">
                    <div class=""question-area"">
                        <p style=""font-size: 20px; font-weight: bold; margin: 0;"">Is there a person in this image?</p>
                    </div>
                </div>","1","main_experiment_trial","7","restaurant_scheme","schematic_sequence","chronological","","","","","","",""
"","","","","","html-keyboard-response","115","377206","0.0-115.0","27A55A4000E74742B493872496C7245E","019cfc7c-4a63-7a64-93bf-bf57b2d742f2","019cfc7b-6c7b-7b1b-afe7-acad8efc6711","","null","
                <div class=""stimulus-container"">
                    <img src=""images/schematic_sequence/restaurant_scheme/restaurant_scheme_8.png"" class=""exp-image"">
                    <div class=""question-area""></div> 
                </div>","null","","","","","","","","","","","",""
"","","","","","html-button-response","116","377694","0.0-116.0","27A55A4000E74742B493872496C7245E","019cfc7c-4a63-7a64-93bf-bf57b2d742f2","019cfc7b-6c7b-7b1b-afe7-acad8efc6711","","488","
                <div class=""stimulus-container"">
                    <img src=""images/schematic_sequence/restaurant_scheme/restaurant_scheme_8.png"" class=""exp-image"">
                    <div class=""question-area"">
                        <p style=""font-size: 20px; font-weight: bold; margin: 0;"">Is there a person in this image?</p>
                    </div>
                </div>","1","main_experiment_trial","8","restaurant_scheme","schematic_sequence","chronological","","","","","","",""
"","","","","","html-keyboard-response","117","382697","0.0-117.0","27A55A4000E74742B493872496C7245E","019cfc7c-4a63-7a64-93bf-bf57b2d742f2","019cfc7b-6c7b-7b1b-afe7-acad8efc6711","","null","
                <div class=""stimulus-container"">
                    <img src=""images/schematic_sequence/restaurant_scheme/restaurant_scheme_9.png"" class=""exp-image"">
                    <div class=""question-area""></div> 
                </div>","null","","","","","","","","","","","",""
"","","","","","html-button-response","118","383349","0.0-118.0","27A55A4000E74742B493872496C7245E","019cfc7c-4a63-7a64-93bf-bf57b2d742f2","019cfc7b-6c7b-7b1b-afe7-acad8efc6711","","651","
                <div class=""stimulus-container"">
                    <img src=""images/schematic_sequence/restaurant_scheme/restaurant_scheme_9.png"" class=""exp-image"">
                    <div class=""question-area"">
                        <p style=""font-size: 20px; font-weight: bold; margin: 0;"">Is there a person in this image?</p>
                    </div>
                </div>","0","main_experiment_trial","9","restaurant_scheme","schematic_sequence","chronological","","","","","","",""
"","","","","","html-keyboard-response","119","388351","0.0-119.0","27A55A4000E74742B493872496C7245E","019cfc7c-4a63-7a64-93bf-bf57b2d742f2","019cfc7b-6c7b-7b1b-afe7-acad8efc6711","","null","
                <div class=""stimulus-container"">
                    <img src=""images/schematic_sequence/restaurant_scheme/restaurant_scheme_ten.png"" class=""exp-image"">
                    <div class=""question-area""></div> 
                </div>","null","","","","","","","","","","","",""
"","","","","","html-button-response","120","389019","0.0-120.0","27A55A4000E74742B493872496C7245E","019cfc7c-4a63-7a64-93bf-bf57b2d742f2","019cfc7b-6c7b-7b1b-afe7-acad8efc6711","","667","
                <div class=""stimulus-container"">
                    <img src=""images/schematic_sequence/restaurant_scheme/restaurant_scheme_ten.png"" class=""exp-image"">
                    <div class=""question-area"">
                        <p style=""font-size: 20px; font-weight: bold; margin: 0;"">Is there a person in this image?</p>
                    </div>
                </div>","0","main_experiment_trial","ten","restaurant_scheme","schematic_sequence","chronological","","","","","","",""
"","","","","","html-keyboard-response","121","394030","0.0-121.0","27A55A4000E74742B493872496C7245E","019cfc7c-4a63-7a64-93bf-bf57b2d742f2","019cfc7b-6c7b-7b1b-afe7-acad8efc6711","","null","<div style=""background-color: white; width: 100vw; height: 100vh;""></div>","null","","","","","","","","","","","",""
"","","","","","html-keyboard-response","122","399031","0.0-122.0","27A55A4000E74742B493872496C7245E","019cfc7c-4a63-7a64-93bf-bf57b2d742f2","019cfc7b-6c7b-7b1b-afe7-acad8efc6711","","null","
                <div class=""stimulus-container"">
                    <img src=""images/causal_sequence/the_performance_causal/the_performance_causal_1.png"" class=""exp-image"">
                    <div class=""question-area""></div> 
                </div>","null","","","","","","","","","","","",""
"","","","","","html-button-response","123","399617","0.0-123.0","27A55A4000E74742B493872496C7245E","019cfc7c-4a63-7a64-93bf-bf57b2d742f2","019cfc7b-6c7b-7b1b-afe7-acad8efc6711","","586","
                <div class=""stimulus-container"">
                    <img src=""images/causal_sequence/the_performance_causal/the_performance_causal_1.png"" class=""exp-image"">
                    <div class=""question-area"">
                        <p style=""font-size: 20px; font-weight: bold; margin: 0;"">Is there a person in this image?</p>
                    </div>
                </div>","0","main_experiment_trial","1","the_performance_causal","causal_sequence","chronological","","","","","","",""
"","","","","","html-keyboard-response","124","404630","0.0-124.0","27A55A4000E74742B493872496C7245E","019cfc7c-4a63-7a64-93bf-bf57b2d742f2","019cfc7b-6c7b-7b1b-afe7-acad8efc6711","","null","
                <div class=""stimulus-container"">
                    <img src=""images/causal_sequence/the_performance_causal/the_performance_causal_2.png"" class=""exp-image"">
                    <div class=""question-area""></div> 
                </div>","null","","","","","","","","","","","",""
"","","","","","html-button-response","125","405160","0.0-125.0","27A55A4000E74742B493872496C7245E","019cfc7c-4a63-7a64-93bf-bf57b2d742f2","019cfc7b-6c7b-7b1b-afe7-acad8efc6711","","529","
                <div class=""stimulus-container"">
                    <img src=""images/causal_sequence/the_performance_causal/the_performance_causal_2.png"" class=""exp-image"">
                    <div class=""question-area"">
                        <p style=""font-size: 20px; font-weight: bold; margin: 0;"">Is there a person in this image?</p>
                    </div>
                </div>","0","main_experiment_trial","2","the_performance_causal","causal_sequence","chronological","","","","","","",""
"","","","","","html-keyboard-response","126","410163","0.0-126.0","27A55A4000E74742B493872496C7245E","019cfc7c-4a63-7a64-93bf-bf57b2d742f2","019cfc7b-6c7b-7b1b-afe7-acad8efc6711","","null","
                <div class=""stimulus-container"">
                    <img src=""images/causal_sequence/the_performance_causal/the_performance_causal_3.png"" class=""exp-image"">
                    <div class=""question-area""></div> 
                </div>","null","","","","","","","","","","","",""
"","","","","","html-button-response","127","410871","0.0-127.0","27A55A4000E74742B493872496C7245E","019cfc7c-4a63-7a64-93bf-bf57b2d742f2","019cfc7b-6c7b-7b1b-afe7-acad8efc6711","","707","
                <div class=""stimulus-container"">
                    <img src=""images/causal_sequence/the_performance_causal/the_performance_causal_3.png"" class=""exp-image"">
                    <div class=""question-area"">
                        <p style=""font-size: 20px; font-weight: bold; margin: 0;"">Is there a person in this image?</p>
                    </div>
                </div>","0","main_experiment_trial","3","the_performance_causal","causal_sequence","chronological","","","","","","",""
"","","","","","html-keyboard-response","128","415881","0.0-128.0","27A55A4000E74742B493872496C7245E","019cfc7c-4a63-7a64-93bf-bf57b2d742f2","019cfc7b-6c7b-7b1b-afe7-acad8efc6711","","null","
                <div class=""stimulus-container"">
                    <img src=""images/causal_sequence/the_performance_causal/the_performance_causal_4.png"" class=""exp-image"">
                    <div class=""question-area""></div> 
                </div>","null","","","","","","","","","","","",""
"","","","","","html-button-response","129","417028","0.0-129.0","27A55A4000E74742B493872496C7245E","019cfc7c-4a63-7a64-93bf-bf57b2d742f2","019cfc7b-6c7b-7b1b-afe7-acad8efc6711","","1147","
                <div class=""stimulus-container"">
                    <img src=""images/causal_sequence/the_performance_causal/the_performance_causal_4.png"" class=""exp-image"">
                    <div class=""question-area"">
                        <p style=""font-size: 20px; font-weight: bold; margin: 0;"">Is there a person in this image?</p>
                    </div>
                </div>","0","main_experiment_trial","4","the_performance_causal","causal_sequence","chronological","","","","","","",""
"","","","","","html-keyboard-response","130","422035","0.0-130.0","27A55A4000E74742B493872496C7245E","019cfc7c-4a63-7a64-93bf-bf57b2d742f2","019cfc7b-6c7b-7b1b-afe7-acad8efc6711","","null","
                <div class=""stimulus-container"">
                    <img src=""images/causal_sequence/the_performance_causal/the_performance_causal_5.png"" class=""exp-image"">
                    <div class=""question-area""></div> 
                </div>","null","","","","","","","","","","","",""
"","","","","","html-button-response","131","422901","0.0-131.0","27A55A4000E74742B493872496C7245E","019cfc7c-4a63-7a64-93bf-bf57b2d742f2","019cfc7b-6c7b-7b1b-afe7-acad8efc6711","","865","
                <div class=""stimulus-container"">
                    <img src=""images/causal_sequence/the_performance_causal/the_performance_causal_5.png"" class=""exp-image"">
                    <div class=""question-area"">
                        <p style=""font-size: 20px; font-weight: bold; margin: 0;"">Is there a person in this image?</p>
                    </div>
                </div>","0","main_experiment_trial","5","the_performance_causal","causal_sequence","chronological","","","","","","",""
"","","","","","html-keyboard-response","132","427915","0.0-132.0","27A55A4000E74742B493872496C7245E","019cfc7c-4a63-7a64-93bf-bf57b2d742f2","019cfc7b-6c7b-7b1b-afe7-acad8efc6711","","null","
                <div class=""stimulus-container"">
                    <img src=""images/causal_sequence/the_performance_causal/the_performance_causal_6.png"" class=""exp-image"">
                    <div class=""question-area""></div> 
                </div>","null","","","","","","","","","","","",""
"","","","","","html-button-response","133","429509","0.0-133.0","27A55A4000E74742B493872496C7245E","019cfc7c-4a63-7a64-93bf-bf57b2d742f2","019cfc7b-6c7b-7b1b-afe7-acad8efc6711","","1594","
                <div class=""stimulus-container"">
                    <img src=""images/causal_sequence/the_performance_causal/the_performance_causal_6.png"" class=""exp-image"">
                    <div class=""question-area"">
                        <p style=""font-size: 20px; font-weight: bold; margin: 0;"">Is there a person in this image?</p>
                    </div>
                </div>","0","main_experiment_trial","6","the_performance_causal","causal_sequence","chronological","","","","","","",""
"","","","","","html-keyboard-response","134","434526","0.0-134.0","27A55A4000E74742B493872496C7245E","019cfc7c-4a63-7a64-93bf-bf57b2d742f2","019cfc7b-6c7b-7b1b-afe7-acad8efc6711","","null","
                <div class=""stimulus-container"">
                    <img src=""images/causal_sequence/the_performance_causal/the_performance_causal_7.png"" class=""exp-image"">
                    <div class=""question-area""></div> 
                </div>","null","","","","","","","","","","","",""
"","","","","","html-button-response","135","435535","0.0-135.0","27A55A4000E74742B493872496C7245E","019cfc7c-4a63-7a64-93bf-bf57b2d742f2","019cfc7b-6c7b-7b1b-afe7-acad8efc6711","","1007","
                <div class=""stimulus-container"">
                    <img src=""images/causal_sequence/the_performance_causal/the_performance_causal_7.png"" class=""exp-image"">
                    <div class=""question-area"">
                        <p style=""font-size: 20px; font-weight: bold; margin: 0;"">Is there a person in this image?</p>
                    </div>
                </div>","0","main_experiment_trial","7","the_performance_causal","causal_sequence","chronological","","","","","","",""
"","","","","","html-keyboard-response","136","440545","0.0-136.0","27A55A4000E74742B493872496C7245E","019cfc7c-4a63-7a64-93bf-bf57b2d742f2","019cfc7b-6c7b-7b1b-afe7-acad8efc6711","","null","
                <div class=""stimulus-container"">
                    <img src=""images/causal_sequence/the_performance_causal/the_performance_causal_8.png"" class=""exp-image"">
                    <div class=""question-area""></div> 
                </div>","null","","","","","","","","","","","",""
"","","","","","html-button-response","137","441013","0.0-137.0","27A55A4000E74742B493872496C7245E","019cfc7c-4a63-7a64-93bf-bf57b2d742f2","019cfc7b-6c7b-7b1b-afe7-acad8efc6711","","467","
                <div class=""stimulus-container"">
                    <img src=""images/causal_sequence/the_performance_causal/the_performance_causal_8.png"" class=""exp-image"">
                    <div class=""question-area"">
                        <p style=""font-size: 20px; font-weight: bold; margin: 0;"">Is there a person in this image?</p>
                    </div>
                </div>","0","main_experiment_trial","8","the_performance_causal","causal_sequence","chronological","","","","","","",""
"","","","","","html-keyboard-response","138","446028","0.0-138.0","27A55A4000E74742B493872496C7245E","019cfc7c-4a63-7a64-93bf-bf57b2d742f2","019cfc7b-6c7b-7b1b-afe7-acad8efc6711","","null","
                <div class=""stimulus-container"">
                    <img src=""images/causal_sequence/the_performance_causal/the_performance_causal_9.png"" class=""exp-image"">
                    <div class=""question-area""></div> 
                </div>","null","","","","","","","","","","","",""
"","","","","","html-button-response","139","446946","0.0-139.0","27A55A4000E74742B493872496C7245E","019cfc7c-4a63-7a64-93bf-bf57b2d742f2","019cfc7b-6c7b-7b1b-afe7-acad8efc6711","","917","
                <div class=""stimulus-container"">
                    <img src=""images/causal_sequence/the_performance_causal/the_performance_causal_9.png"" class=""exp-image"">
                    <div class=""question-area"">
                        <p style=""font-size: 20px; font-weight: bold; margin: 0;"">Is there a person in this image?</p>
                    </div>
                </div>","0","main_experiment_trial","9","the_performance_causal","causal_sequence","chronological","","","","","","",""
"","","","","","html-keyboard-response","140","451952","0.0-140.0","27A55A4000E74742B493872496C7245E","019cfc7c-4a63-7a64-93bf-bf57b2d742f2","019cfc7b-6c7b-7b1b-afe7-acad8efc6711","","null","
                <div class=""stimulus-container"">
                    <img src=""images/causal_sequence/the_performance_causal/the_performance_causal_ten.png"" class=""exp-image"">
                    <div class=""question-area""></div> 
                </div>","null","","","","","","","","","","","",""
"","","","","","html-button-response","141","452278","0.0-141.0","27A55A4000E74742B493872496C7245E","019cfc7c-4a63-7a64-93bf-bf57b2d742f2","019cfc7b-6c7b-7b1b-afe7-acad8efc6711","","326","
                <div class=""stimulus-container"">
                    <img src=""images/causal_sequence/the_performance_causal/the_performance_causal_ten.png"" class=""exp-image"">
                    <div class=""question-area"">
                        <p style=""font-size: 20px; font-weight: bold; margin: 0;"">Is there a person in this image?</p>
                    </div>
                </div>","0","main_experiment_trial","ten","the_performance_causal","causal_sequence","chronological","","","","","","",""
"","","","","","html-keyboard-response","142","457291","0.0-142.0","27A55A4000E74742B493872496C7245E","019cfc7c-4a63-7a64-93bf-bf57b2d742f2","019cfc7b-6c7b-7b1b-afe7-acad8efc6711","","null","<div style=""background-color: white; width: 100vw; height: 100vh;""></div>","null","","","","","","","","","","","",""
"","","","","","html-keyboard-response","143","462300","0.0-143.0","27A55A4000E74742B493872496C7245E","019cfc7c-4a63-7a64-93bf-bf57b2d742f2","019cfc7b-6c7b-7b1b-afe7-acad8efc6711","","null","
                <div class=""stimulus-container"">
                    <img src=""images/schematic_sequence/supermarket_scheme/supermarket_scheme_1.png"" class=""exp-image"">
                    <div class=""question-area""></div> 
                </div>","null","","","","","","","","","","","",""
"","","","","","html-button-response","144","463049","0.0-144.0","27A55A4000E74742B493872496C7245E","019cfc7c-4a63-7a64-93bf-bf57b2d742f2","019cfc7b-6c7b-7b1b-afe7-acad8efc6711","","748","
                <div class=""stimulus-container"">
                    <img src=""images/schematic_sequence/supermarket_scheme/supermarket_scheme_1.png"" class=""exp-image"">
                    <div class=""question-area"">
                        <p style=""font-size: 20px; font-weight: bold; margin: 0;"">Is there a person in this image?</p>
                    </div>
                </div>","1","main_experiment_trial","1","supermarket_scheme","schematic_sequence","chronological","","","","","","",""
"","","","","","html-keyboard-response","145","468058","0.0-145.0","27A55A4000E74742B493872496C7245E","019cfc7c-4a63-7a64-93bf-bf57b2d742f2","019cfc7b-6c7b-7b1b-afe7-acad8efc6711","","null","
                <div class=""stimulus-container"">
                    <img src=""images/schematic_sequence/supermarket_scheme/supermarket_scheme_2.png"" class=""exp-image"">
                    <div class=""question-area""></div> 
                </div>","null","","","","","","","","","","","",""
"","","","","","html-button-response","146","468484","0.0-146.0","27A55A4000E74742B493872496C7245E","019cfc7c-4a63-7a64-93bf-bf57b2d742f2","019cfc7b-6c7b-7b1b-afe7-acad8efc6711","","425","
                <div class=""stimulus-container"">
                    <img src=""images/schematic_sequence/supermarket_scheme/supermarket_scheme_2.png"" class=""exp-image"">
                    <div class=""question-area"">
                        <p style=""font-size: 20px; font-weight: bold; margin: 0;"">Is there a person in this image?</p>
                    </div>
                </div>","1","main_experiment_trial","2","supermarket_scheme","schematic_sequence","chronological","","","","","","",""
"","","","","","html-keyboard-response","147","473495","0.0-147.0","27A55A4000E74742B493872496C7245E","019cfc7c-4a63-7a64-93bf-bf57b2d742f2","019cfc7b-6c7b-7b1b-afe7-acad8efc6711","","null","
                <div class=""stimulus-container"">
                    <img src=""images/schematic_sequence/supermarket_scheme/supermarket_scheme_3.png"" class=""exp-image"">
                    <div class=""question-area""></div> 
                </div>","null","","","","","","","","","","","",""
"","","","","","html-button-response","148","473906","0.0-148.0","27A55A4000E74742B493872496C7245E","019cfc7c-4a63-7a64-93bf-bf57b2d742f2","019cfc7b-6c7b-7b1b-afe7-acad8efc6711","","410","
                <div class=""stimulus-container"">
                    <img src=""images/schematic_sequence/supermarket_scheme/supermarket_scheme_3.png"" class=""exp-image"">
                    <div class=""question-area"">
                        <p style=""font-size: 20px; font-weight: bold; margin: 0;"">Is there a person in this image?</p>
                    </div>
                </div>","1","main_experiment_trial","3","supermarket_scheme","schematic_sequence","chronological","","","","","","",""
"","","","","","html-keyboard-response","149","478916","0.0-149.0","27A55A4000E74742B493872496C7245E","019cfc7c-4a63-7a64-93bf-bf57b2d742f2","019cfc7b-6c7b-7b1b-afe7-acad8efc6711","","null","
                <div class=""stimulus-container"">
                    <img src=""images/schematic_sequence/supermarket_scheme/supermarket_scheme_4.png"" class=""exp-image"">
                    <div class=""question-area""></div> 
                </div>","null","","","","","","","","","","","",""
"","","","","","html-button-response","150","479790","0.0-150.0","27A55A4000E74742B493872496C7245E","019cfc7c-4a63-7a64-93bf-bf57b2d742f2","019cfc7b-6c7b-7b1b-afe7-acad8efc6711","","873","
                <div class=""stimulus-container"">
                    <img src=""images/schematic_sequence/supermarket_scheme/supermarket_scheme_4.png"" class=""exp-image"">
                    <div class=""question-area"">
                        <p style=""font-size: 20px; font-weight: bold; margin: 0;"">Is there a person in this image?</p>
                    </div>
                </div>","0","main_experiment_trial","4","supermarket_scheme","schematic_sequence","chronological","","","","","","",""
"","","","","","html-keyboard-response","151","484803","0.0-151.0","27A55A4000E74742B493872496C7245E","019cfc7c-4a63-7a64-93bf-bf57b2d742f2","019cfc7b-6c7b-7b1b-afe7-acad8efc6711","","null","
                <div class=""stimulus-container"">
                    <img src=""images/schematic_sequence/supermarket_scheme/supermarket_scheme_5.png"" class=""exp-image"">
                    <div class=""question-area""></div> 
                </div>","null","","","","","","","","","","","",""
"","","","","","html-button-response","152","485605","0.0-152.0","27A55A4000E74742B493872496C7245E","019cfc7c-4a63-7a64-93bf-bf57b2d742f2","019cfc7b-6c7b-7b1b-afe7-acad8efc6711","","802","
                <div class=""stimulus-container"">
                    <img src=""images/schematic_sequence/supermarket_scheme/supermarket_scheme_5.png"" class=""exp-image"">
                    <div class=""question-area"">
                        <p style=""font-size: 20px; font-weight: bold; margin: 0;"">Is there a person in this image?</p>
                    </div>
                </div>","1","main_experiment_trial","5","supermarket_scheme","schematic_sequence","chronological","","","","","","",""
"","","","","","html-keyboard-response","153","490614","0.0-153.0","27A55A4000E74742B493872496C7245E","019cfc7c-4a63-7a64-93bf-bf57b2d742f2","019cfc7b-6c7b-7b1b-afe7-acad8efc6711","","null","
                <div class=""stimulus-container"">
                    <img src=""images/schematic_sequence/supermarket_scheme/supermarket_scheme_6.png"" class=""exp-image"">
                    <div class=""question-area""></div> 
                </div>","null","","","","","","","","","","","",""
"","","","","","html-button-response","154","491325","0.0-154.0","27A55A4000E74742B493872496C7245E","019cfc7c-4a63-7a64-93bf-bf57b2d742f2","019cfc7b-6c7b-7b1b-afe7-acad8efc6711","","711","
                <div class=""stimulus-container"">
                    <img src=""images/schematic_sequence/supermarket_scheme/supermarket_scheme_6.png"" class=""exp-image"">
                    <div class=""question-area"">
                        <p style=""font-size: 20px; font-weight: bold; margin: 0;"">Is there a person in this image?</p>
                    </div>
                </div>","0","main_experiment_trial","6","supermarket_scheme","schematic_sequence","chronological","","","","","","",""
"","","","","","html-keyboard-response","155","496337","0.0-155.0","27A55A4000E74742B493872496C7245E","019cfc7c-4a63-7a64-93bf-bf57b2d742f2","019cfc7b-6c7b-7b1b-afe7-acad8efc6711","","null","
                <div class=""stimulus-container"">
                    <img src=""images/schematic_sequence/supermarket_scheme/supermarket_scheme_7.png"" class=""exp-image"">
                    <div class=""question-area""></div> 
                </div>","null","","","","","","","","","","","",""
"","","","","","html-button-response","156","497019","0.0-156.0","27A55A4000E74742B493872496C7245E","019cfc7c-4a63-7a64-93bf-bf57b2d742f2","019cfc7b-6c7b-7b1b-afe7-acad8efc6711","","681","
                <div class=""stimulus-container"">
                    <img src=""images/schematic_sequence/supermarket_scheme/supermarket_scheme_7.png"" class=""exp-image"">
                    <div class=""question-area"">
                        <p style=""font-size: 20px; font-weight: bold; margin: 0;"">Is there a person in this image?</p>
                    </div>
                </div>","0","main_experiment_trial","7","supermarket_scheme","schematic_sequence","chronological","","","","","","",""
"","","","","","html-keyboard-response","157","502030","0.0-157.0","27A55A4000E74742B493872496C7245E","019cfc7c-4a63-7a64-93bf-bf57b2d742f2","019cfc7b-6c7b-7b1b-afe7-acad8efc6711","","null","
                <div class=""stimulus-container"">
                    <img src=""images/schematic_sequence/supermarket_scheme/supermarket_scheme_8.png"" class=""exp-image"">
                    <div class=""question-area""></div> 
                </div>","null","","","","","","","","","","","",""
"","","","","","html-button-response","158","502884","0.0-158.0","27A55A4000E74742B493872496C7245E","019cfc7c-4a63-7a64-93bf-bf57b2d742f2","019cfc7b-6c7b-7b1b-afe7-acad8efc6711","","853","
                <div class=""stimulus-container"">
                    <img src=""images/schematic_sequence/supermarket_scheme/supermarket_scheme_8.png"" class=""exp-image"">
                    <div class=""question-area"">
                        <p style=""font-size: 20px; font-weight: bold; margin: 0;"">Is there a person in this image?</p>
                    </div>
                </div>","0","main_experiment_trial","8","supermarket_scheme","schematic_sequence","chronological","","","","","","",""
"","","","","","html-keyboard-response","159","507890","0.0-159.0","27A55A4000E74742B493872496C7245E","019cfc7c-4a63-7a64-93bf-bf57b2d742f2","019cfc7b-6c7b-7b1b-afe7-acad8efc6711","","null","
                <div class=""stimulus-container"">
                    <img src=""images/schematic_sequence/supermarket_scheme/supermarket_scheme_9.png"" class=""exp-image"">
                    <div class=""question-area""></div> 
                </div>","null","","","","","","","","","","","",""
"","","","","","html-button-response","160","509614","0.0-160.0","27A55A4000E74742B493872496C7245E","019cfc7c-4a63-7a64-93bf-bf57b2d742f2","019cfc7b-6c7b-7b1b-afe7-acad8efc6711","","1723","
                <div class=""stimulus-container"">
                    <img src=""images/schematic_sequence/supermarket_scheme/supermarket_scheme_9.png"" class=""exp-image"">
                    <div class=""question-area"">
                        <p style=""font-size: 20px; font-weight: bold; margin: 0;"">Is there a person in this image?</p>
                    </div>
                </div>","0","main_experiment_trial","9","supermarket_scheme","schematic_sequence","chronological","","","","","","",""
"","","","","","html-keyboard-response","161","514625","0.0-161.0","27A55A4000E74742B493872496C7245E","019cfc7c-4a63-7a64-93bf-bf57b2d742f2","019cfc7b-6c7b-7b1b-afe7-acad8efc6711","","null","
                <div class=""stimulus-container"">
                    <img src=""images/schematic_sequence/supermarket_scheme/supermarket_scheme_ten.png"" class=""exp-image"">
                    <div class=""question-area""></div> 
                </div>","null","","","","","","","","","","","",""
"","","","","","html-button-response","162","515217","0.0-162.0","27A55A4000E74742B493872496C7245E","019cfc7c-4a63-7a64-93bf-bf57b2d742f2","019cfc7b-6c7b-7b1b-afe7-acad8efc6711","","592","
                <div class=""stimulus-container"">
                    <img src=""images/schematic_sequence/supermarket_scheme/supermarket_scheme_ten.png"" class=""exp-image"">
                    <div class=""question-area"">
                        <p style=""font-size: 20px; font-weight: bold; margin: 0;"">Is there a person in this image?</p>
                    </div>
                </div>","1","main_experiment_trial","ten","supermarket_scheme","schematic_sequence","chronological","","","","","","",""
"","","","","","html-keyboard-response","163","520228","0.0-163.0","27A55A4000E74742B493872496C7245E","019cfc7c-4a63-7a64-93bf-bf57b2d742f2","019cfc7b-6c7b-7b1b-afe7-acad8efc6711","","null","<div style=""background-color: white; width: 100vw; height: 100vh;""></div>","null","","","","","","","","","","","",""
"","","","","","html-keyboard-response","164","525236","0.0-164.0","27A55A4000E74742B493872496C7245E","019cfc7c-4a63-7a64-93bf-bf57b2d742f2","019cfc7b-6c7b-7b1b-afe7-acad8efc6711","","null","
                <div class=""stimulus-container"">
                    <img src=""images/semantic_sequence/self_care_activities_semantic/self_care_activities_semantic_1.png"" class=""exp-image"">
                    <div class=""question-area""></div> 
                </div>","null","","","","","","","","","","","",""
"","","","","","html-button-response","165","526040","0.0-165.0","27A55A4000E74742B493872496C7245E","019cfc7c-4a63-7a64-93bf-bf57b2d742f2","019cfc7b-6c7b-7b1b-afe7-acad8efc6711","","804","
                <div class=""stimulus-container"">
                    <img src=""images/semantic_sequence/self_care_activities_semantic/self_care_activities_semantic_1.png"" class=""exp-image"">
                    <div class=""question-area"">
                        <p style=""font-size: 20px; font-weight: bold; margin: 0;"">Is there a person in this image?</p>
                    </div>
                </div>","0","main_experiment_trial","1","self_care_activities_semantic","semantic_sequence","chronological","","","","","","",""
"","","","","","html-keyboard-response","166","531041","0.0-166.0","27A55A4000E74742B493872496C7245E","019cfc7c-4a63-7a64-93bf-bf57b2d742f2","019cfc7b-6c7b-7b1b-afe7-acad8efc6711","","null","
                <div class=""stimulus-container"">
                    <img src=""images/semantic_sequence/self_care_activities_semantic/self_care_activities_semantic_2.png"" class=""exp-image"">
                    <div class=""question-area""></div> 
                </div>","null","","","","","","","","","","","",""
"","","","","","html-button-response","167","531792","0.0-167.0","27A55A4000E74742B493872496C7245E","019cfc7c-4a63-7a64-93bf-bf57b2d742f2","019cfc7b-6c7b-7b1b-afe7-acad8efc6711","","750","
                <div class=""stimulus-container"">
                    <img src=""images/semantic_sequence/self_care_activities_semantic/self_care_activities_semantic_2.png"" class=""exp-image"">
                    <div class=""question-area"">
                        <p style=""font-size: 20px; font-weight: bold; margin: 0;"">Is there a person in this image?</p>
                    </div>
                </div>","0","main_experiment_trial","2","self_care_activities_semantic","semantic_sequence","chronological","","","","","","",""
"","","","","","html-keyboard-response","168","536803","0.0-168.0","27A55A4000E74742B493872496C7245E","019cfc7c-4a63-7a64-93bf-bf57b2d742f2","019cfc7b-6c7b-7b1b-afe7-acad8efc6711","","null","
                <div class=""stimulus-container"">
                    <img src=""images/semantic_sequence/self_care_activities_semantic/self_care_activities_semantic_3.png"" class=""exp-image"">
                    <div class=""question-area""></div> 
                </div>","null","","","","","","","","","","","",""
"","","","","","html-button-response","169","537496","0.0-169.0","27A55A4000E74742B493872496C7245E","019cfc7c-4a63-7a64-93bf-bf57b2d742f2","019cfc7b-6c7b-7b1b-afe7-acad8efc6711","","693","
                <div class=""stimulus-container"">
                    <img src=""images/semantic_sequence/self_care_activities_semantic/self_care_activities_semantic_3.png"" class=""exp-image"">
                    <div class=""question-area"">
                        <p style=""font-size: 20px; font-weight: bold; margin: 0;"">Is there a person in this image?</p>
                    </div>
                </div>","0","main_experiment_trial","3","self_care_activities_semantic","semantic_sequence","chronological","","","","","","",""
"","","","","","html-keyboard-response","170","542503","0.0-170.0","27A55A4000E74742B493872496C7245E","019cfc7c-4a63-7a64-93bf-bf57b2d742f2","019cfc7b-6c7b-7b1b-afe7-acad8efc6711","","null","
                <div class=""stimulus-container"">
                    <img src=""images/semantic_sequence/self_care_activities_semantic/self_care_activities_semantic_4.png"" class=""exp-image"">
                    <div class=""question-area""></div> 
                </div>","null","","","","","","","","","","","",""
"","","","","","html-button-response","171","543280","0.0-171.0","27A55A4000E74742B493872496C7245E","019cfc7c-4a63-7a64-93bf-bf57b2d742f2","019cfc7b-6c7b-7b1b-afe7-acad8efc6711","","776","
                <div class=""stimulus-container"">
                    <img src=""images/semantic_sequence/self_care_activities_semantic/self_care_activities_semantic_4.png"" class=""exp-image"">
                    <div class=""question-area"">
                        <p style=""font-size: 20px; font-weight: bold; margin: 0;"">Is there a person in this image?</p>
                    </div>
                </div>","0","main_experiment_trial","4","self_care_activities_semantic","semantic_sequence","chronological","","","","","","",""
"","","","","","html-keyboard-response","172","548294","0.0-172.0","27A55A4000E74742B493872496C7245E","019cfc7c-4a63-7a64-93bf-bf57b2d742f2","019cfc7b-6c7b-7b1b-afe7-acad8efc6711","","null","
                <div class=""stimulus-container"">
                    <img src=""images/semantic_sequence/self_care_activities_semantic/self_care_activities_semantic_5.png"" class=""exp-image"">
                    <div class=""question-area""></div> 
                </div>","null","","","","","","","","","","","",""
"","","","","","html-button-response","173","551296","0.0-173.0","27A55A4000E74742B493872496C7245E","019cfc7c-4a63-7a64-93bf-bf57b2d742f2","019cfc7b-6c7b-7b1b-afe7-acad8efc6711","","null","
                <div class=""stimulus-container"">
                    <img src=""images/semantic_sequence/self_care_activities_semantic/self_care_activities_semantic_5.png"" class=""exp-image"">
                    <div class=""question-area"">
                        <p style=""font-size: 20px; font-weight: bold; margin: 0;"">Is there a person in this image?</p>
                    </div>
                </div>","null","main_experiment_trial","5","self_care_activities_semantic","semantic_sequence","chronological","","","","","","",""
"","","","","","html-keyboard-response","174","556309","0.0-174.0","27A55A4000E74742B493872496C7245E","019cfc7c-4a63-7a64-93bf-bf57b2d742f2","019cfc7b-6c7b-7b1b-afe7-acad8efc6711","","null","
                <div class=""stimulus-container"">
                    <img src=""images/semantic_sequence/self_care_activities_semantic/self_care_activities_semantic_6.png"" class=""exp-image"">
                    <div class=""question-area""></div> 
                </div>","null","","","","","","","","","","","",""
"","","","","","html-button-response","175","556989","0.0-175.0","27A55A4000E74742B493872496C7245E","019cfc7c-4a63-7a64-93bf-bf57b2d742f2","019cfc7b-6c7b-7b1b-afe7-acad8efc6711","","679","
                <div class=""stimulus-container"">
                    <img src=""images/semantic_sequence/self_care_activities_semantic/self_care_activities_semantic_6.png"" class=""exp-image"">
                    <div class=""question-area"">
                        <p style=""font-size: 20px; font-weight: bold; margin: 0;"">Is there a person in this image?</p>
                    </div>
                </div>","1","main_experiment_trial","6","self_care_activities_semantic","semantic_sequence","chronological","","","","","","",""
"","","","","","html-keyboard-response","176","562005","0.0-176.0","27A55A4000E74742B493872496C7245E","019cfc7c-4a63-7a64-93bf-bf57b2d742f2","019cfc7b-6c7b-7b1b-afe7-acad8efc6711","","null","
                <div class=""stimulus-container"">
                    <img src=""images/semantic_sequence/self_care_activities_semantic/self_care_activities_semantic_7.png"" class=""exp-image"">
                    <div class=""question-area""></div> 
                </div>","null","","","","","","","","","","","",""
"","","","","","html-button-response","177","562846","0.0-177.0","27A55A4000E74742B493872496C7245E","019cfc7c-4a63-7a64-93bf-bf57b2d742f2","019cfc7b-6c7b-7b1b-afe7-acad8efc6711","","841","
                <div class=""stimulus-container"">
                    <img src=""images/semantic_sequence/self_care_activities_semantic/self_care_activities_semantic_7.png"" class=""exp-image"">
                    <div class=""question-area"">
                        <p style=""font-size: 20px; font-weight: bold; margin: 0;"">Is there a person in this image?</p>
                    </div>
