"success","timeout","failed_images","failed_audio","failed_video","trial_type","trial_index","time_elapsed","internal_node_id","subject_id","study_id","session_id","view_history","rt","stimulus","response","task","image_index","folder","sequence_type","valuable_image_index","reward_type","chosen_image_index","correct_choice"
"true","false","[]","[]","[]","preload","0","16637","0.0-0.0","98E529A5DDB440AFA1223471DA9DD034","019cef8b-6687-7558-afe6-dd6e26b40d90","019cef87-c56d-7b55-9135-c5814367ec25","","","","","","","","","","","",""
"","","","","","instructions","1","34477","0.0-1.0","98E529A5DDB440AFA1223471DA9DD034","019cef8b-6687-7558-afe6-dd6e26b40d90","019cef87-c56d-7b55-9135-c5814367ec25","[{""page_index"":0,""viewing_time"":17838}]","17839","","","","","","","","","",""
"","","","","","instructions","2","69887","0.0-2.0","98E529A5DDB440AFA1223471DA9DD034","019cef8b-6687-7558-afe6-dd6e26b40d90","019cef87-c56d-7b55-9135-c5814367ec25","[{""page_index"":0,""viewing_time"":35410}]","35410","","","","","","","","","",""
"true","","","","","fullscreen","3","73518","0.0-3.0","98E529A5DDB440AFA1223471DA9DD034","019cef8b-6687-7558-afe6-dd6e26b40d90","019cef87-c56d-7b55-9135-c5814367ec25","","2577","","","","","","","","","",""
"","","","","","instructions","4","84819","0.0-4.0","98E529A5DDB440AFA1223471DA9DD034","019cef8b-6687-7558-afe6-dd6e26b40d90","019cef87-c56d-7b55-9135-c5814367ec25","[{""page_index"":0,""viewing_time"":11300}]","11300","","","","","","","","","",""
"","","","","","instructions","5","96649","0.0-5.0","98E529A5DDB440AFA1223471DA9DD034","019cef8b-6687-7558-afe6-dd6e26b40d90","019cef87-c56d-7b55-9135-c5814367ec25","[{""page_index"":0,""viewing_time"":11829}]","11829","","","","","","","","","",""
"","","","","","html-keyboard-response","6","100662","0.0-6.0","98E529A5DDB440AFA1223471DA9DD034","019cef8b-6687-7558-afe6-dd6e26b40d90","019cef87-c56d-7b55-9135-c5814367ec25","","null","
                <div class=""stimulus-container"">
                    <img src=""images/instructions/movie_1.png"" class=""exp-image"">
                    <div class=""question-area""></div> 
                </div>","null","","","","","","","",""
"","","","","","html-button-response","7","102853","0.0-7.0","98E529A5DDB440AFA1223471DA9DD034","019cef8b-6687-7558-afe6-dd6e26b40d90","019cef87-c56d-7b55-9135-c5814367ec25","","2189","
                <div class=""stimulus-container"">
                    <img src=""images/instructions/movie_1.png"" class=""exp-image"">
                    <div class=""question-area"">
                        <p style=""font-size: 20px; font-weight: bold; margin: 0;"">Was there a person in this image?</p>
                    </div>
                </div>","0","example_question","1","","","","","",""
"","","","","","html-keyboard-response","8","106860","0.0-8.0","98E529A5DDB440AFA1223471DA9DD034","019cef8b-6687-7558-afe6-dd6e26b40d90","019cef87-c56d-7b55-9135-c5814367ec25","","null","
                <div class=""stimulus-container"">
                    <img src=""images/instructions/movie_2.png"" class=""exp-image"">
                    <div class=""question-area""></div> 
                </div>","null","","","","","","","",""
"","","","","","html-button-response","9","108232","0.0-9.0","98E529A5DDB440AFA1223471DA9DD034","019cef8b-6687-7558-afe6-dd6e26b40d90","019cef87-c56d-7b55-9135-c5814367ec25","","1370","
                <div class=""stimulus-container"">
                    <img src=""images/instructions/movie_2.png"" class=""exp-image"">
                    <div class=""question-area"">
                        <p style=""font-size: 20px; font-weight: bold; margin: 0;"">Was there a person in this image?</p>
                    </div>
                </div>","1","example_question","2","","","","","",""
"","","","","","html-keyboard-response","10","112245","0.0-10.0","98E529A5DDB440AFA1223471DA9DD034","019cef8b-6687-7558-afe6-dd6e26b40d90","019cef87-c56d-7b55-9135-c5814367ec25","","null","
                <div class=""stimulus-container"">
                    <img src=""images/instructions/movie_3.png"" class=""exp-image"">
                    <div class=""question-area""></div> 
                </div>","null","","","","","","","",""
"","","","","","html-button-response","11","113532","0.0-11.0","98E529A5DDB440AFA1223471DA9DD034","019cef8b-6687-7558-afe6-dd6e26b40d90","019cef87-c56d-7b55-9135-c5814367ec25","","1286","
                <div class=""stimulus-container"">
                    <img src=""images/instructions/movie_3.png"" class=""exp-image"">
                    <div class=""question-area"">
                        <p style=""font-size: 20px; font-weight: bold; margin: 0;"">Was there a person in this image?</p>
                    </div>
                </div>","0","example_question","3","","","","","",""
"","","","","","html-keyboard-response","12","117540","0.0-12.0","98E529A5DDB440AFA1223471DA9DD034","019cef8b-6687-7558-afe6-dd6e26b40d90","019cef87-c56d-7b55-9135-c5814367ec25","","null","
                <div class=""stimulus-container"">
                    <img src=""images/instructions/movie_4.png"" class=""exp-image"">
                    <div class=""question-area""></div> 
                </div>","null","","","","","","","",""
"","","","","","html-button-response","13","118383","0.0-13.0","98E529A5DDB440AFA1223471DA9DD034","019cef8b-6687-7558-afe6-dd6e26b40d90","019cef87-c56d-7b55-9135-c5814367ec25","","841","
                <div class=""stimulus-container"">
                    <img src=""images/instructions/movie_4.png"" class=""exp-image"">
                    <div class=""question-area"">
                        <p style=""font-size: 20px; font-weight: bold; margin: 0;"">Was there a person in this image?</p>
                    </div>
                </div>","0","example_question","4","","","","","",""
"","","","","","instructions","14","120965","0.0-14.0","98E529A5DDB440AFA1223471DA9DD034","019cef8b-6687-7558-afe6-dd6e26b40d90","019cef87-c56d-7b55-9135-c5814367ec25","[{""page_index"":0,""viewing_time"":2581}]","2582","","","","","","","","","",""
"","","","","","instructions","15","130446","0.0-15.0","98E529A5DDB440AFA1223471DA9DD034","019cef8b-6687-7558-afe6-dd6e26b40d90","019cef87-c56d-7b55-9135-c5814367ec25","[{""page_index"":0,""viewing_time"":9467}]","9468","","","","","","","","","",""
"","","","","","html-keyboard-response","16","131454","0.0-16.0","98E529A5DDB440AFA1223471DA9DD034","019cef8b-6687-7558-afe6-dd6e26b40d90","019cef87-c56d-7b55-9135-c5814367ec25","","null","<div style=""background-color: white; width: 100vw; height: 100vh;""></div>","null","","","","","","","",""
"","","","","","html-keyboard-response","17","136458","0.0-17.0","98E529A5DDB440AFA1223471DA9DD034","019cef8b-6687-7558-afe6-dd6e26b40d90","019cef87-c56d-7b55-9135-c5814367ec25","","null","
                <div class=""stimulus-container"">
                    <img src=""images/causal_sequence/the_performance_causal/the_performance_causal_1.png"" class=""exp-image"">
                    <div class=""question-area""></div> 
                </div>","null","","","","","","","",""
"","","","","","html-button-response","18","138717","0.0-18.0","98E529A5DDB440AFA1223471DA9DD034","019cef8b-6687-7558-afe6-dd6e26b40d90","019cef87-c56d-7b55-9135-c5814367ec25","","2258","
                <div class=""stimulus-container"">
                    <img src=""images/causal_sequence/the_performance_causal/the_performance_causal_1.png"" class=""exp-image"">
                    <div class=""question-area"">
                        <p style=""font-size: 20px; font-weight: bold; margin: 0;"">Is there a person in this image?</p>
                    </div>
                </div>","0","main_experiment_trial","1","the_performance_causal","causal_sequence","","","",""
"","","","","","html-keyboard-response","19","143718","0.0-19.0","98E529A5DDB440AFA1223471DA9DD034","019cef8b-6687-7558-afe6-dd6e26b40d90","019cef87-c56d-7b55-9135-c5814367ec25","","null","
                <div class=""stimulus-container"">
                    <img src=""images/causal_sequence/the_performance_causal/the_performance_causal_2.png"" class=""exp-image"">
                    <div class=""question-area""></div> 
                </div>","null","","","","","","","",""
"","","","","","html-button-response","20","144490","0.0-20.0","98E529A5DDB440AFA1223471DA9DD034","019cef8b-6687-7558-afe6-dd6e26b40d90","019cef87-c56d-7b55-9135-c5814367ec25","","771","
                <div class=""stimulus-container"">
                    <img src=""images/causal_sequence/the_performance_causal/the_performance_causal_2.png"" class=""exp-image"">
                    <div class=""question-area"">
                        <p style=""font-size: 20px; font-weight: bold; margin: 0;"">Is there a person in this image?</p>
                    </div>
                </div>","0","main_experiment_trial","2","the_performance_causal","causal_sequence","","","",""
"","","","","","html-keyboard-response","21","149499","0.0-21.0","98E529A5DDB440AFA1223471DA9DD034","019cef8b-6687-7558-afe6-dd6e26b40d90","019cef87-c56d-7b55-9135-c5814367ec25","","null","
                <div class=""stimulus-container"">
                    <img src=""images/causal_sequence/the_performance_causal/the_performance_causal_3.png"" class=""exp-image"">
                    <div class=""question-area""></div> 
                </div>","null","","","","","","","",""
"","","","","","html-button-response","22","150369","0.0-22.0","98E529A5DDB440AFA1223471DA9DD034","019cef8b-6687-7558-afe6-dd6e26b40d90","019cef87-c56d-7b55-9135-c5814367ec25","","869","
                <div class=""stimulus-container"">
                    <img src=""images/causal_sequence/the_performance_causal/the_performance_causal_3.png"" class=""exp-image"">
                    <div class=""question-area"">
                        <p style=""font-size: 20px; font-weight: bold; margin: 0;"">Is there a person in this image?</p>
                    </div>
                </div>","0","main_experiment_trial","3","the_performance_causal","causal_sequence","","","",""
"","","","","","html-keyboard-response","23","155380","0.0-23.0","98E529A5DDB440AFA1223471DA9DD034","019cef8b-6687-7558-afe6-dd6e26b40d90","019cef87-c56d-7b55-9135-c5814367ec25","","null","
                <div class=""stimulus-container"">
                    <img src=""images/causal_sequence/the_performance_causal/the_performance_causal_4.png"" class=""exp-image"">
                    <div class=""question-area""></div> 
                </div>","null","","","","","","","",""
"","","","","","html-button-response","24","156092","0.0-24.0","98E529A5DDB440AFA1223471DA9DD034","019cef8b-6687-7558-afe6-dd6e26b40d90","019cef87-c56d-7b55-9135-c5814367ec25","","711","
                <div class=""stimulus-container"">
                    <img src=""images/causal_sequence/the_performance_causal/the_performance_causal_4.png"" class=""exp-image"">
                    <div class=""question-area"">
                        <p style=""font-size: 20px; font-weight: bold; margin: 0;"">Is there a person in this image?</p>
                    </div>
                </div>","0","main_experiment_trial","4","the_performance_causal","causal_sequence","","","",""
"","","","","","html-keyboard-response","25","161102","0.0-25.0","98E529A5DDB440AFA1223471DA9DD034","019cef8b-6687-7558-afe6-dd6e26b40d90","019cef87-c56d-7b55-9135-c5814367ec25","","null","
                <div class=""stimulus-container"">
                    <img src=""images/causal_sequence/the_performance_causal/the_performance_causal_5.png"" class=""exp-image"">
                    <div class=""question-area""></div> 
                </div>","null","","","","","","","",""
"","","","","","html-button-response","26","161873","0.0-26.0","98E529A5DDB440AFA1223471DA9DD034","019cef8b-6687-7558-afe6-dd6e26b40d90","019cef87-c56d-7b55-9135-c5814367ec25","","770","
                <div class=""stimulus-container"">
                    <img src=""images/causal_sequence/the_performance_causal/the_performance_causal_5.png"" class=""exp-image"">
                    <div class=""question-area"">
                        <p style=""font-size: 20px; font-weight: bold; margin: 0;"">Is there a person in this image?</p>
                    </div>
                </div>","0","main_experiment_trial","5","the_performance_causal","causal_sequence","","","",""
"","","","","","html-keyboard-response","27","166881","0.0-27.0","98E529A5DDB440AFA1223471DA9DD034","019cef8b-6687-7558-afe6-dd6e26b40d90","019cef87-c56d-7b55-9135-c5814367ec25","","null","
                <div class=""stimulus-container"">
                    <img src=""images/causal_sequence/the_performance_causal/the_performance_causal_6.png"" class=""exp-image"">
                    <div class=""question-area""></div> 
                </div>","null","","","","","","","",""
"","","","","","html-button-response","28","168025","0.0-28.0","98E529A5DDB440AFA1223471DA9DD034","019cef8b-6687-7558-afe6-dd6e26b40d90","019cef87-c56d-7b55-9135-c5814367ec25","","1143","
                <div class=""stimulus-container"">
                    <img src=""images/causal_sequence/the_performance_causal/the_performance_causal_6.png"" class=""exp-image"">
                    <div class=""question-area"">
                        <p style=""font-size: 20px; font-weight: bold; margin: 0;"">Is there a person in this image?</p>
                    </div>
                </div>","0","main_experiment_trial","6","the_performance_causal","causal_sequence","","","",""
"","","","","","html-keyboard-response","29","173032","0.0-29.0","98E529A5DDB440AFA1223471DA9DD034","019cef8b-6687-7558-afe6-dd6e26b40d90","019cef87-c56d-7b55-9135-c5814367ec25","","null","
                <div class=""stimulus-container"">
                    <img src=""images/causal_sequence/the_performance_causal/the_performance_causal_7.png"" class=""exp-image"">
                    <div class=""question-area""></div> 
                </div>","null","","","","","","","",""
"","","","","","html-button-response","30","174027","0.0-30.0","98E529A5DDB440AFA1223471DA9DD034","019cef8b-6687-7558-afe6-dd6e26b40d90","019cef87-c56d-7b55-9135-c5814367ec25","","994","
                <div class=""stimulus-container"">
                    <img src=""images/causal_sequence/the_performance_causal/the_performance_causal_7.png"" class=""exp-image"">
                    <div class=""question-area"">
                        <p style=""font-size: 20px; font-weight: bold; margin: 0;"">Is there a person in this image?</p>
                    </div>
                </div>","0","main_experiment_trial","7","the_performance_causal","causal_sequence","","","",""
"","","","","","html-keyboard-response","31","179030","0.0-31.0","98E529A5DDB440AFA1223471DA9DD034","019cef8b-6687-7558-afe6-dd6e26b40d90","019cef87-c56d-7b55-9135-c5814367ec25","","null","
                <div class=""stimulus-container"">
                    <img src=""images/causal_sequence/the_performance_causal/the_performance_causal_8.png"" class=""exp-image"">
                    <div class=""question-area""></div> 
                </div>","null","","","","","","","",""
"","","","","","html-button-response","32","180072","0.0-32.0","98E529A5DDB440AFA1223471DA9DD034","019cef8b-6687-7558-afe6-dd6e26b40d90","019cef87-c56d-7b55-9135-c5814367ec25","","1041","
                <div class=""stimulus-container"">
                    <img src=""images/causal_sequence/the_performance_causal/the_performance_causal_8.png"" class=""exp-image"">
                    <div class=""question-area"">
                        <p style=""font-size: 20px; font-weight: bold; margin: 0;"">Is there a person in this image?</p>
                    </div>
                </div>","0","main_experiment_trial","8","the_performance_causal","causal_sequence","","","",""
"","","","","","html-keyboard-response","33","185079","0.0-33.0","98E529A5DDB440AFA1223471DA9DD034","019cef8b-6687-7558-afe6-dd6e26b40d90","019cef87-c56d-7b55-9135-c5814367ec25","","null","
                <div class=""stimulus-container"">
                    <img src=""images/causal_sequence/the_performance_causal/the_performance_causal_9.png"" class=""exp-image"">
                    <div class=""question-area""></div> 
                </div>","null","","","","","","","",""
"","","","","","html-button-response","34","187452","0.0-34.0","98E529A5DDB440AFA1223471DA9DD034","019cef8b-6687-7558-afe6-dd6e26b40d90","019cef87-c56d-7b55-9135-c5814367ec25","","2372","
                <div class=""stimulus-container"">
                    <img src=""images/causal_sequence/the_performance_causal/the_performance_causal_9.png"" class=""exp-image"">
                    <div class=""question-area"">
                        <p style=""font-size: 20px; font-weight: bold; margin: 0;"">Is there a person in this image?</p>
                    </div>
                </div>","0","main_experiment_trial","9","the_performance_causal","causal_sequence","","","",""
"","","","","","html-keyboard-response","35","192468","0.0-35.0","98E529A5DDB440AFA1223471DA9DD034","019cef8b-6687-7558-afe6-dd6e26b40d90","019cef87-c56d-7b55-9135-c5814367ec25","","null","
                <div class=""stimulus-container"">
                    <img src=""images/causal_sequence/the_performance_causal/the_performance_causal_ten.png"" class=""exp-image"">
                    <div class=""question-area""></div> 
                </div>","null","","","","","","","",""
"","","","","","html-button-response","36","193655","0.0-36.0","98E529A5DDB440AFA1223471DA9DD034","019cef8b-6687-7558-afe6-dd6e26b40d90","019cef87-c56d-7b55-9135-c5814367ec25","","1187","
                <div class=""stimulus-container"">
                    <img src=""images/causal_sequence/the_performance_causal/the_performance_causal_ten.png"" class=""exp-image"">
                    <div class=""question-area"">
                        <p style=""font-size: 20px; font-weight: bold; margin: 0;"">Is there a person in this image?</p>
                    </div>
                </div>","0","main_experiment_trial","ten","the_performance_causal","causal_sequence","","","",""
"","","","","","html-keyboard-response","37","194659","0.0-37.0","98E529A5DDB440AFA1223471DA9DD034","019cef8b-6687-7558-afe6-dd6e26b40d90","019cef87-c56d-7b55-9135-c5814367ec25","","null","<div style=""background-color: white; width: 100vw; height: 100vh;""></div>","null","","","","","","","",""
"","","","","","html-keyboard-response","38","199668","0.0-38.0","98E529A5DDB440AFA1223471DA9DD034","019cef8b-6687-7558-afe6-dd6e26b40d90","019cef87-c56d-7b55-9135-c5814367ec25","","null","
                <div class=""stimulus-container"">
                    <img src=""images/schematic_sequence/restaurant_scheme/restaurant_scheme_1.png"" class=""exp-image"">
                    <div class=""question-area""></div> 
                </div>","null","","","","","","","",""
"","","","","","html-button-response","39","200351","0.0-39.0","98E529A5DDB440AFA1223471DA9DD034","019cef8b-6687-7558-afe6-dd6e26b40d90","019cef87-c56d-7b55-9135-c5814367ec25","","682","
                <div class=""stimulus-container"">
                    <img src=""images/schematic_sequence/restaurant_scheme/restaurant_scheme_1.png"" class=""exp-image"">
                    <div class=""question-area"">
                        <p style=""font-size: 20px; font-weight: bold; margin: 0;"">Is there a person in this image?</p>
                    </div>
                </div>","0","main_experiment_trial","1","restaurant_scheme","schematic_sequence","","","",""
"","","","","","html-keyboard-response","40","205367","0.0-40.0","98E529A5DDB440AFA1223471DA9DD034","019cef8b-6687-7558-afe6-dd6e26b40d90","019cef87-c56d-7b55-9135-c5814367ec25","","null","
                <div class=""stimulus-container"">
                    <img src=""images/schematic_sequence/restaurant_scheme/restaurant_scheme_2.png"" class=""exp-image"">
                    <div class=""question-area""></div> 
                </div>","null","","","","","","","",""
"","","","","","html-button-response","41","206619","0.0-41.0","98E529A5DDB440AFA1223471DA9DD034","019cef8b-6687-7558-afe6-dd6e26b40d90","019cef87-c56d-7b55-9135-c5814367ec25","","1251","
                <div class=""stimulus-container"">
                    <img src=""images/schematic_sequence/restaurant_scheme/restaurant_scheme_2.png"" class=""exp-image"">
                    <div class=""question-area"">
                        <p style=""font-size: 20px; font-weight: bold; margin: 0;"">Is there a person in this image?</p>
                    </div>
                </div>","1","main_experiment_trial","2","restaurant_scheme","schematic_sequence","","","",""
"","","","","","html-keyboard-response","42","211629","0.0-42.0","98E529A5DDB440AFA1223471DA9DD034","019cef8b-6687-7558-afe6-dd6e26b40d90","019cef87-c56d-7b55-9135-c5814367ec25","","null","
                <div class=""stimulus-container"">
                    <img src=""images/schematic_sequence/restaurant_scheme/restaurant_scheme_3.png"" class=""exp-image"">
                    <div class=""question-area""></div> 
                </div>","null","","","","","","","",""
"","","","","","html-button-response","43","212752","0.0-43.0","98E529A5DDB440AFA1223471DA9DD034","019cef8b-6687-7558-afe6-dd6e26b40d90","019cef87-c56d-7b55-9135-c5814367ec25","","1122","
                <div class=""stimulus-container"">
                    <img src=""images/schematic_sequence/restaurant_scheme/restaurant_scheme_3.png"" class=""exp-image"">
                    <div class=""question-area"">
                        <p style=""font-size: 20px; font-weight: bold; margin: 0;"">Is there a person in this image?</p>
                    </div>
                </div>","1","main_experiment_trial","3","restaurant_scheme","schematic_sequence","","","",""
"","","","","","html-keyboard-response","44","217758","0.0-44.0","98E529A5DDB440AFA1223471DA9DD034","019cef8b-6687-7558-afe6-dd6e26b40d90","019cef87-c56d-7b55-9135-c5814367ec25","","null","
                <div class=""stimulus-container"">
                    <img src=""images/schematic_sequence/restaurant_scheme/restaurant_scheme_4.png"" class=""exp-image"">
                    <div class=""question-area""></div> 
                </div>","null","","","","","","","",""
"","","","","","html-button-response","45","218884","0.0-45.0","98E529A5DDB440AFA1223471DA9DD034","019cef8b-6687-7558-afe6-dd6e26b40d90","019cef87-c56d-7b55-9135-c5814367ec25","","1126","
                <div class=""stimulus-container"">
                    <img src=""images/schematic_sequence/restaurant_scheme/restaurant_scheme_4.png"" class=""exp-image"">
                    <div class=""question-area"">
                        <p style=""font-size: 20px; font-weight: bold; margin: 0;"">Is there a person in this image?</p>
                    </div>
                </div>","0","main_experiment_trial","4","restaurant_scheme","schematic_sequence","","","",""
"","","","","","html-keyboard-response","46","223889","0.0-46.0","98E529A5DDB440AFA1223471DA9DD034","019cef8b-6687-7558-afe6-dd6e26b40d90","019cef87-c56d-7b55-9135-c5814367ec25","","null","
                <div class=""stimulus-container"">
                    <img src=""images/schematic_sequence/restaurant_scheme/restaurant_scheme_5.png"" class=""exp-image"">
                    <div class=""question-area""></div> 
                </div>","null","","","","","","","",""
"","","","","","html-button-response","47","224944","0.0-47.0","98E529A5DDB440AFA1223471DA9DD034","019cef8b-6687-7558-afe6-dd6e26b40d90","019cef87-c56d-7b55-9135-c5814367ec25","","1054","
                <div class=""stimulus-container"">
                    <img src=""images/schematic_sequence/restaurant_scheme/restaurant_scheme_5.png"" class=""exp-image"">
                    <div class=""question-area"">
                        <p style=""font-size: 20px; font-weight: bold; margin: 0;"">Is there a person in this image?</p>
                    </div>
                </div>","0","main_experiment_trial","5","restaurant_scheme","schematic_sequence","","","",""
"","","","","","html-keyboard-response","48","229956","0.0-48.0","98E529A5DDB440AFA1223471DA9DD034","019cef8b-6687-7558-afe6-dd6e26b40d90","019cef87-c56d-7b55-9135-c5814367ec25","","null","
                <div class=""stimulus-container"">
                    <img src=""images/schematic_sequence/restaurant_scheme/restaurant_scheme_6.png"" class=""exp-image"">
                    <div class=""question-area""></div> 
                </div>","null","","","","","","","",""
"","","","","","html-button-response","49","231020","0.0-49.0","98E529A5DDB440AFA1223471DA9DD034","019cef8b-6687-7558-afe6-dd6e26b40d90","019cef87-c56d-7b55-9135-c5814367ec25","","1062","
                <div class=""stimulus-container"">
                    <img src=""images/schematic_sequence/restaurant_scheme/restaurant_scheme_6.png"" class=""exp-image"">
                    <div class=""question-area"">
                        <p style=""font-size: 20px; font-weight: bold; margin: 0;"">Is there a person in this image?</p>
                    </div>
                </div>","1","main_experiment_trial","6","restaurant_scheme","schematic_sequence","","","",""
"","","","","","html-keyboard-response","50","236031","0.0-50.0","98E529A5DDB440AFA1223471DA9DD034","019cef8b-6687-7558-afe6-dd6e26b40d90","019cef87-c56d-7b55-9135-c5814367ec25","","null","
                <div class=""stimulus-container"">
                    <img src=""images/schematic_sequence/restaurant_scheme/restaurant_scheme_7.png"" class=""exp-image"">
                    <div class=""question-area""></div> 
                </div>","null","","","","","","","",""
"","","","","","html-button-response","51","237103","0.0-51.0","98E529A5DDB440AFA1223471DA9DD034","019cef8b-6687-7558-afe6-dd6e26b40d90","019cef87-c56d-7b55-9135-c5814367ec25","","1070","
                <div class=""stimulus-container"">
                    <img src=""images/schematic_sequence/restaurant_scheme/restaurant_scheme_7.png"" class=""exp-image"">
                    <div class=""question-area"">
                        <p style=""font-size: 20px; font-weight: bold; margin: 0;"">Is there a person in this image?</p>
                    </div>
                </div>","1","main_experiment_trial","7","restaurant_scheme","schematic_sequence","","","",""
"","","","","","html-keyboard-response","52","242106","0.0-52.0","98E529A5DDB440AFA1223471DA9DD034","019cef8b-6687-7558-afe6-dd6e26b40d90","019cef87-c56d-7b55-9135-c5814367ec25","","null","
                <div class=""stimulus-container"">
                    <img src=""images/schematic_sequence/restaurant_scheme/restaurant_scheme_8.png"" class=""exp-image"">
                    <div class=""question-area""></div> 
                </div>","null","","","","","","","",""
"","","","","","html-button-response","53","242841","0.0-53.0","98E529A5DDB440AFA1223471DA9DD034","019cef8b-6687-7558-afe6-dd6e26b40d90","019cef87-c56d-7b55-9135-c5814367ec25","","734","
                <div class=""stimulus-container"">
                    <img src=""images/schematic_sequence/restaurant_scheme/restaurant_scheme_8.png"" class=""exp-image"">
                    <div class=""question-area"">
                        <p style=""font-size: 20px; font-weight: bold; margin: 0;"">Is there a person in this image?</p>
                    </div>
                </div>","1","main_experiment_trial","8","restaurant_scheme","schematic_sequence","","","",""
"","","","","","html-keyboard-response","54","247849","0.0-54.0","98E529A5DDB440AFA1223471DA9DD034","019cef8b-6687-7558-afe6-dd6e26b40d90","019cef87-c56d-7b55-9135-c5814367ec25","","null","
                <div class=""stimulus-container"">
                    <img src=""images/schematic_sequence/restaurant_scheme/restaurant_scheme_9.png"" class=""exp-image"">
                    <div class=""question-area""></div> 
                </div>","null","","","","","","","",""
"","","","","","html-button-response","55","249138","0.0-55.0","98E529A5DDB440AFA1223471DA9DD034","019cef8b-6687-7558-afe6-dd6e26b40d90","019cef87-c56d-7b55-9135-c5814367ec25","","1288","
                <div class=""stimulus-container"">
                    <img src=""images/schematic_sequence/restaurant_scheme/restaurant_scheme_9.png"" class=""exp-image"">
                    <div class=""question-area"">
                        <p style=""font-size: 20px; font-weight: bold; margin: 0;"">Is there a person in this image?</p>
                    </div>
                </div>","0","main_experiment_trial","9","restaurant_scheme","schematic_sequence","","","",""
"","","","","","html-keyboard-response","56","254140","0.0-56.0","98E529A5DDB440AFA1223471DA9DD034","019cef8b-6687-7558-afe6-dd6e26b40d90","019cef87-c56d-7b55-9135-c5814367ec25","","null","
                <div class=""stimulus-container"">
                    <img src=""images/schematic_sequence/restaurant_scheme/restaurant_scheme_ten.png"" class=""exp-image"">
                    <div class=""question-area""></div> 
                </div>","null","","","","","","","",""
"","","","","","html-button-response","57","255429","0.0-57.0","98E529A5DDB440AFA1223471DA9DD034","019cef8b-6687-7558-afe6-dd6e26b40d90","019cef87-c56d-7b55-9135-c5814367ec25","","1287","
                <div class=""stimulus-container"">
                    <img src=""images/schematic_sequence/restaurant_scheme/restaurant_scheme_ten.png"" class=""exp-image"">
                    <div class=""question-area"">
                        <p style=""font-size: 20px; font-weight: bold; margin: 0;"">Is there a person in this image?</p>
                    </div>
                </div>","0","main_experiment_trial","ten","restaurant_scheme","schematic_sequence","","","",""
"","","","","","html-keyboard-response","58","256444","0.0-58.0","98E529A5DDB440AFA1223471DA9DD034","019cef8b-6687-7558-afe6-dd6e26b40d90","019cef87-c56d-7b55-9135-c5814367ec25","","null","<div style=""background-color: white; width: 100vw; height: 100vh;""></div>","null","","","","","","","",""
"","","","","","html-keyboard-response","59","261449","0.0-59.0","98E529A5DDB440AFA1223471DA9DD034","019cef8b-6687-7558-afe6-dd6e26b40d90","019cef87-c56d-7b55-9135-c5814367ec25","","null","
                <div class=""stimulus-container"">
                    <img src=""images/schematic_sequence/supermarket_scheme/supermarket_scheme_1.png"" class=""exp-image"">
                    <div class=""question-area""></div> 
                </div>","null","","","","","","","",""
"","","","","","html-button-response","60","262540","0.0-60.0","98E529A5DDB440AFA1223471DA9DD034","019cef8b-6687-7558-afe6-dd6e26b40d90","019cef87-c56d-7b55-9135-c5814367ec25","","1089","
                <div class=""stimulus-container"">
                    <img src=""images/schematic_sequence/supermarket_scheme/supermarket_scheme_1.png"" class=""exp-image"">
                    <div class=""question-area"">
                        <p style=""font-size: 20px; font-weight: bold; margin: 0;"">Is there a person in this image?</p>
                    </div>
                </div>","1","main_experiment_trial","1","supermarket_scheme","schematic_sequence","","","",""
"","","","","","html-keyboard-response","61","267557","0.0-61.0","98E529A5DDB440AFA1223471DA9DD034","019cef8b-6687-7558-afe6-dd6e26b40d90","019cef87-c56d-7b55-9135-c5814367ec25","","null","
                <div class=""stimulus-container"">
                    <img src=""images/schematic_sequence/supermarket_scheme/supermarket_scheme_2.png"" class=""exp-image"">
                    <div class=""question-area""></div> 
                </div>","null","","","","","","","",""
"","","","","","html-button-response","62","268800","0.0-62.0","98E529A5DDB440AFA1223471DA9DD034","019cef8b-6687-7558-afe6-dd6e26b40d90","019cef87-c56d-7b55-9135-c5814367ec25","","1243","
                <div class=""stimulus-container"">
                    <img src=""images/schematic_sequence/supermarket_scheme/supermarket_scheme_2.png"" class=""exp-image"">
                    <div class=""question-area"">
                        <p style=""font-size: 20px; font-weight: bold; margin: 0;"">Is there a person in this image?</p>
                    </div>
                </div>","1","main_experiment_trial","2","supermarket_scheme","schematic_sequence","","","",""
"","","","","","html-keyboard-response","63","273815","0.0-63.0","98E529A5DDB440AFA1223471DA9DD034","019cef8b-6687-7558-afe6-dd6e26b40d90","019cef87-c56d-7b55-9135-c5814367ec25","","null","
                <div class=""stimulus-container"">
                    <img src=""images/schematic_sequence/supermarket_scheme/supermarket_scheme_3.png"" class=""exp-image"">
                    <div class=""question-area""></div> 
                </div>","null","","","","","","","",""
"","","","","","html-button-response","64","275056","0.0-64.0","98E529A5DDB440AFA1223471DA9DD034","019cef8b-6687-7558-afe6-dd6e26b40d90","019cef87-c56d-7b55-9135-c5814367ec25","","1239","
                <div class=""stimulus-container"">
                    <img src=""images/schematic_sequence/supermarket_scheme/supermarket_scheme_3.png"" class=""exp-image"">
                    <div class=""question-area"">
                        <p style=""font-size: 20px; font-weight: bold; margin: 0;"">Is there a person in this image?</p>
                    </div>
                </div>","1","main_experiment_trial","3","supermarket_scheme","schematic_sequence","","","",""
"","","","","","html-keyboard-response","65","280066","0.0-65.0","98E529A5DDB440AFA1223471DA9DD034","019cef8b-6687-7558-afe6-dd6e26b40d90","019cef87-c56d-7b55-9135-c5814367ec25","","null","
                <div class=""stimulus-container"">
                    <img src=""images/schematic_sequence/supermarket_scheme/supermarket_scheme_4.png"" class=""exp-image"">
                    <div class=""question-area""></div> 
                </div>","null","","","","","","","",""
"","","","","","html-button-response","66","281217","0.0-66.0","98E529A5DDB440AFA1223471DA9DD034","019cef8b-6687-7558-afe6-dd6e26b40d90","019cef87-c56d-7b55-9135-c5814367ec25","","1149","
                <div class=""stimulus-container"">
                    <img src=""images/schematic_sequence/supermarket_scheme/supermarket_scheme_4.png"" class=""exp-image"">
                    <div class=""question-area"">
                        <p style=""font-size: 20px; font-weight: bold; margin: 0;"">Is there a person in this image?</p>
                    </div>
                </div>","0","main_experiment_trial","4","supermarket_scheme","schematic_sequence","","","",""
"","","","","","html-keyboard-response","67","286224","0.0-67.0","98E529A5DDB440AFA1223471DA9DD034","019cef8b-6687-7558-afe6-dd6e26b40d90","019cef87-c56d-7b55-9135-c5814367ec25","","null","
                <div class=""stimulus-container"">
                    <img src=""images/schematic_sequence/supermarket_scheme/supermarket_scheme_5.png"" class=""exp-image"">
                    <div class=""question-area""></div> 
                </div>","null","","","","","","","",""
"","","","","","html-button-response","68","287750","0.0-68.0","98E529A5DDB440AFA1223471DA9DD034","019cef8b-6687-7558-afe6-dd6e26b40d90","019cef87-c56d-7b55-9135-c5814367ec25","","1525","
                <div class=""stimulus-container"">
                    <img src=""images/schematic_sequence/supermarket_scheme/supermarket_scheme_5.png"" class=""exp-image"">
                    <div class=""question-area"">
                        <p style=""font-size: 20px; font-weight: bold; margin: 0;"">Is there a person in this image?</p>
                    </div>
                </div>","1","main_experiment_trial","5","supermarket_scheme","schematic_sequence","","","",""
"","","","","","html-keyboard-response","69","292754","0.0-69.0","98E529A5DDB440AFA1223471DA9DD034","019cef8b-6687-7558-afe6-dd6e26b40d90","019cef87-c56d-7b55-9135-c5814367ec25","","null","
                <div class=""stimulus-container"">
                    <img src=""images/schematic_sequence/supermarket_scheme/supermarket_scheme_6.png"" class=""exp-image"">
                    <div class=""question-area""></div> 
                </div>","null","","","","","","","",""
"","","","","","html-button-response","70","294276","0.0-70.0","98E529A5DDB440AFA1223471DA9DD034","019cef8b-6687-7558-afe6-dd6e26b40d90","019cef87-c56d-7b55-9135-c5814367ec25","","1521","
                <div class=""stimulus-container"">
                    <img src=""images/schematic_sequence/supermarket_scheme/supermarket_scheme_6.png"" class=""exp-image"">
                    <div class=""question-area"">
                        <p style=""font-size: 20px; font-weight: bold; margin: 0;"">Is there a person in this image?</p>
                    </div>
                </div>","0","main_experiment_trial","6","supermarket_scheme","schematic_sequence","","","",""
"","","","","","html-keyboard-response","71","299287","0.0-71.0","98E529A5DDB440AFA1223471DA9DD034","019cef8b-6687-7558-afe6-dd6e26b40d90","019cef87-c56d-7b55-9135-c5814367ec25","","null","
                <div class=""stimulus-container"">
                    <img src=""images/schematic_sequence/supermarket_scheme/supermarket_scheme_7.png"" class=""exp-image"">
                    <div class=""question-area""></div> 
                </div>","null","","","","","","","",""
"","","","","","html-button-response","72","300275","0.0-72.0","98E529A5DDB440AFA1223471DA9DD034","019cef8b-6687-7558-afe6-dd6e26b40d90","019cef87-c56d-7b55-9135-c5814367ec25","","987","
                <div class=""stimulus-container"">
                    <img src=""images/schematic_sequence/supermarket_scheme/supermarket_scheme_7.png"" class=""exp-image"">
                    <div class=""question-area"">
                        <p style=""font-size: 20px; font-weight: bold; margin: 0;"">Is there a person in this image?</p>
                    </div>
                </div>","0","main_experiment_trial","7","supermarket_scheme","schematic_sequence","","","",""
"","","","","","html-keyboard-response","73","305289","0.0-73.0","98E529A5DDB440AFA1223471DA9DD034","019cef8b-6687-7558-afe6-dd6e26b40d90","019cef87-c56d-7b55-9135-c5814367ec25","","null","
                <div class=""stimulus-container"">
                    <img src=""images/schematic_sequence/supermarket_scheme/supermarket_scheme_8.png"" class=""exp-image"">
                    <div class=""question-area""></div> 
                </div>","null","","","","","","","",""
"","","","","","html-button-response","74","306331","0.0-74.0","98E529A5DDB440AFA1223471DA9DD034","019cef8b-6687-7558-afe6-dd6e26b40d90","019cef87-c56d-7b55-9135-c5814367ec25","","1041","
                <div class=""stimulus-container"">
                    <img src=""images/schematic_sequence/supermarket_scheme/supermarket_scheme_8.png"" class=""exp-image"">
                    <div class=""question-area"">
                        <p style=""font-size: 20px; font-weight: bold; margin: 0;"">Is there a person in this image?</p>
                    </div>
                </div>","0","main_experiment_trial","8","supermarket_scheme","schematic_sequence","","","",""
"","","","","","html-keyboard-response","75","311335","0.0-75.0","98E529A5DDB440AFA1223471DA9DD034","019cef8b-6687-7558-afe6-dd6e26b40d90","019cef87-c56d-7b55-9135-c5814367ec25","","null","
                <div class=""stimulus-container"">
                    <img src=""images/schematic_sequence/supermarket_scheme/supermarket_scheme_9.png"" class=""exp-image"">
                    <div class=""question-area""></div> 
                </div>","null","","","","","","","",""
"","","","","","html-button-response","76","312580","0.0-76.0","98E529A5DDB440AFA1223471DA9DD034","019cef8b-6687-7558-afe6-dd6e26b40d90","019cef87-c56d-7b55-9135-c5814367ec25","","1244","
                <div class=""stimulus-container"">
                    <img src=""images/schematic_sequence/supermarket_scheme/supermarket_scheme_9.png"" class=""exp-image"">
                    <div class=""question-area"">
                        <p style=""font-size: 20px; font-weight: bold; margin: 0;"">Is there a person in this image?</p>
                    </div>
                </div>","0","main_experiment_trial","9","supermarket_scheme","schematic_sequence","","","",""
"","","","","","html-keyboard-response","77","317585","0.0-77.0","98E529A5DDB440AFA1223471DA9DD034","019cef8b-6687-7558-afe6-dd6e26b40d90","019cef87-c56d-7b55-9135-c5814367ec25","","null","
                <div class=""stimulus-container"">
                    <img src=""images/schematic_sequence/supermarket_scheme/supermarket_scheme_ten.png"" class=""exp-image"">
                    <div class=""question-area""></div> 
                </div>","null","","","","","","","",""
"","","","","","html-button-response","78","318408","0.0-78.0","98E529A5DDB440AFA1223471DA9DD034","019cef8b-6687-7558-afe6-dd6e26b40d90","019cef87-c56d-7b55-9135-c5814367ec25","","821","
                <div class=""stimulus-container"">
                    <img src=""images/schematic_sequence/supermarket_scheme/supermarket_scheme_ten.png"" class=""exp-image"">
                    <div class=""question-area"">
                        <p style=""font-size: 20px; font-weight: bold; margin: 0;"">Is there a person in this image?</p>
                    </div>
                </div>","1","main_experiment_trial","ten","supermarket_scheme","schematic_sequence","","","",""
"","","","","","html-keyboard-response","79","319420","0.0-79.0","98E529A5DDB440AFA1223471DA9DD034","019cef8b-6687-7558-afe6-dd6e26b40d90","019cef87-c56d-7b55-9135-c5814367ec25","","null","<div style=""background-color: white; width: 100vw; height: 100vh;""></div>","null","","","","","","","",""
"","","","","","html-keyboard-response","80","324436","0.0-80.0","98E529A5DDB440AFA1223471DA9DD034","019cef8b-6687-7558-afe6-dd6e26b40d90","019cef87-c56d-7b55-9135-c5814367ec25","","null","
                <div class=""stimulus-container"">
                    <img src=""images/schematic_sequence/dinner_party_scheme/dinner_party_scheme_1.png"" class=""exp-image"">
                    <div class=""question-area""></div> 
                </div>","null","","","","","","","",""
"","","","","","html-button-response","81","326022","0.0-81.0","98E529A5DDB440AFA1223471DA9DD034","019cef8b-6687-7558-afe6-dd6e26b40d90","019cef87-c56d-7b55-9135-c5814367ec25","","1585","
                <div class=""stimulus-container"">
                    <img src=""images/schematic_sequence/dinner_party_scheme/dinner_party_scheme_1.png"" class=""exp-image"">
                    <div class=""question-area"">
                        <p style=""font-size: 20px; font-weight: bold; margin: 0;"">Is there a person in this image?</p>
                    </div>
                </div>","0","main_experiment_trial","1","dinner_party_scheme","schematic_sequence","","","",""
"","","","","","html-keyboard-response","82","331026","0.0-82.0","98E529A5DDB440AFA1223471DA9DD034","019cef8b-6687-7558-afe6-dd6e26b40d90","019cef87-c56d-7b55-9135-c5814367ec25","","null","
                <div class=""stimulus-container"">
                    <img src=""images/schematic_sequence/dinner_party_scheme/dinner_party_scheme_2.png"" class=""exp-image"">
                    <div class=""question-area""></div> 
                </div>","null","","","","","","","",""
"","","","","","html-button-response","83","333715","0.0-83.0","98E529A5DDB440AFA1223471DA9DD034","019cef8b-6687-7558-afe6-dd6e26b40d90","019cef87-c56d-7b55-9135-c5814367ec25","","2688","
                <div class=""stimulus-container"">
                    <img src=""images/schematic_sequence/dinner_party_scheme/dinner_party_scheme_2.png"" class=""exp-image"">
                    <div class=""question-area"">
                        <p style=""font-size: 20px; font-weight: bold; margin: 0;"">Is there a person in this image?</p>
                    </div>
                </div>","1","main_experiment_trial","2","dinner_party_scheme","schematic_sequence","","","",""
"","","","","","html-keyboard-response","84","338723","0.0-84.0","98E529A5DDB440AFA1223471DA9DD034","019cef8b-6687-7558-afe6-dd6e26b40d90","019cef87-c56d-7b55-9135-c5814367ec25","","null","
                <div class=""stimulus-container"">
                    <img src=""images/schematic_sequence/dinner_party_scheme/dinner_party_scheme_3.png"" class=""exp-image"">
                    <div class=""question-area""></div> 
                </div>","null","","","","","","","",""
"","","","","","html-button-response","85","340201","0.0-85.0","98E529A5DDB440AFA1223471DA9DD034","019cef8b-6687-7558-afe6-dd6e26b40d90","019cef87-c56d-7b55-9135-c5814367ec25","","1477","
                <div class=""stimulus-container"">
                    <img src=""images/schematic_sequence/dinner_party_scheme/dinner_party_scheme_3.png"" class=""exp-image"">
                    <div class=""question-area"">
                        <p style=""font-size: 20px; font-weight: bold; margin: 0;"">Is there a person in this image?</p>
                    </div>
                </div>","0","main_experiment_trial","3","dinner_party_scheme","schematic_sequence","","","",""
"","","","","","html-keyboard-response","86","345214","0.0-86.0","98E529A5DDB440AFA1223471DA9DD034","019cef8b-6687-7558-afe6-dd6e26b40d90","019cef87-c56d-7b55-9135-c5814367ec25","","null","
                <div class=""stimulus-container"">
                    <img src=""images/schematic_sequence/dinner_party_scheme/dinner_party_scheme_4.png"" class=""exp-image"">
                    <div class=""question-area""></div> 
                </div>","null","","","","","","","",""
"","","","","","html-button-response","87","345966","0.0-87.0","98E529A5DDB440AFA1223471DA9DD034","019cef8b-6687-7558-afe6-dd6e26b40d90","019cef87-c56d-7b55-9135-c5814367ec25","","750","
                <div class=""stimulus-container"">
                    <img src=""images/schematic_sequence/dinner_party_scheme/dinner_party_scheme_4.png"" class=""exp-image"">
                    <div class=""question-area"">
                        <p style=""font-size: 20px; font-weight: bold; margin: 0;"">Is there a person in this image?</p>
                    </div>
                </div>","0","main_experiment_trial","4","dinner_party_scheme","schematic_sequence","","","",""
"","","","","","html-keyboard-response","88","350981","0.0-88.0","98E529A5DDB440AFA1223471DA9DD034","019cef8b-6687-7558-afe6-dd6e26b40d90","019cef87-c56d-7b55-9135-c5814367ec25","","null","
                <div class=""stimulus-container"">
                    <img src=""images/schematic_sequence/dinner_party_scheme/dinner_party_scheme_5.png"" class=""exp-image"">
                    <div class=""question-area""></div> 
                </div>","null","","","","","","","",""
"","","","","","html-button-response","89","351731","0.0-89.0","98E529A5DDB440AFA1223471DA9DD034","019cef8b-6687-7558-afe6-dd6e26b40d90","019cef87-c56d-7b55-9135-c5814367ec25","","748","
                <div class=""stimulus-container"">
                    <img src=""images/schematic_sequence/dinner_party_scheme/dinner_party_scheme_5.png"" class=""exp-image"">
                    <div class=""question-area"">
                        <p style=""font-size: 20px; font-weight: bold; margin: 0;"">Is there a person in this image?</p>
                    </div>
                </div>","0","main_experiment_trial","5","dinner_party_scheme","schematic_sequence","","","",""
"","","","","","html-keyboard-response","90","356737","0.0-90.0","98E529A5DDB440AFA1223471DA9DD034","019cef8b-6687-7558-afe6-dd6e26b40d90","019cef87-c56d-7b55-9135-c5814367ec25","","null","
                <div class=""stimulus-container"">
                    <img src=""images/schematic_sequence/dinner_party_scheme/dinner_party_scheme_6.png"" class=""exp-image"">
                    <div class=""question-area""></div> 
                </div>","null","","","","","","","",""
"","","","","","html-button-response","91","357732","0.0-91.0","98E529A5DDB440AFA1223471DA9DD034","019cef8b-6687-7558-afe6-dd6e26b40d90","019cef87-c56d-7b55-9135-c5814367ec25","","993","
                <div class=""stimulus-container"">
                    <img src=""images/schematic_sequence/dinner_party_scheme/dinner_party_scheme_6.png"" class=""exp-image"">
                    <div class=""question-area"">
                        <p style=""font-size: 20px; font-weight: bold; margin: 0;"">Is there a person in this image?</p>
                    </div>
                </div>","0","main_experiment_trial","6","dinner_party_scheme","schematic_sequence","","","",""
"","","","","","html-keyboard-response","92","362742","0.0-92.0","98E529A5DDB440AFA1223471DA9DD034","019cef8b-6687-7558-afe6-dd6e26b40d90","019cef87-c56d-7b55-9135-c5814367ec25","","null","
                <div class=""stimulus-container"">
                    <img src=""images/schematic_sequence/dinner_party_scheme/dinner_party_scheme_7.png"" class=""exp-image"">
                    <div class=""question-area""></div> 
                </div>","null","","","","","","","",""
"","","","","","html-button-response","93","364213","0.0-93.0","98E529A5DDB440AFA1223471DA9DD034","019cef8b-6687-7558-afe6-dd6e26b40d90","019cef87-c56d-7b55-9135-c5814367ec25","","1470","
                <div class=""stimulus-container"">
                    <img src=""images/schematic_sequence/dinner_party_scheme/dinner_party_scheme_7.png"" class=""exp-image"">
                    <div class=""question-area"">
                        <p style=""font-size: 20px; font-weight: bold; margin: 0;"">Is there a person in this image?</p>
                    </div>
                </div>","0","main_experiment_trial","7","dinner_party_scheme","schematic_sequence","","","",""
"","","","","","html-keyboard-response","94","369221","0.0-94.0","98E529A5DDB440AFA1223471DA9DD034","019cef8b-6687-7558-afe6-dd6e26b40d90","019cef87-c56d-7b55-9135-c5814367ec25","","null","
                <div class=""stimulus-container"">
                    <img src=""images/schematic_sequence/dinner_party_scheme/dinner_party_scheme_8.png"" class=""exp-image"">
                    <div class=""question-area""></div> 
                </div>","null","","","","","","","",""
"","","","","","html-button-response","95","369906","0.0-95.0","98E529A5DDB440AFA1223471DA9DD034","019cef8b-6687-7558-afe6-dd6e26b40d90","019cef87-c56d-7b55-9135-c5814367ec25","","684","
                <div class=""stimulus-container"">
                    <img src=""images/schematic_sequence/dinner_party_scheme/dinner_party_scheme_8.png"" class=""exp-image"">
                    <div class=""question-area"">
                        <p style=""font-size: 20px; font-weight: bold; margin: 0;"">Is there a person in this image?</p>
                    </div>
                </div>","0","main_experiment_trial","8","dinner_party_scheme","schematic_sequence","","","",""
"","","","","","html-keyboard-response","96","374914","0.0-96.0","98E529A5DDB440AFA1223471DA9DD034","019cef8b-6687-7558-afe6-dd6e26b40d90","019cef87-c56d-7b55-9135-c5814367ec25","","null","
                <div class=""stimulus-container"">
                    <img src=""images/schematic_sequence/dinner_party_scheme/dinner_party_scheme_9.png"" class=""exp-image"">
                    <div class=""question-area""></div> 
                </div>","null","","","","","","","",""
"","","","","","html-button-response","97","375629","0.0-97.0","98E529A5DDB440AFA1223471DA9DD034","019cef8b-6687-7558-afe6-dd6e26b40d90","019cef87-c56d-7b55-9135-c5814367ec25","","714","
                <div class=""stimulus-container"">
                    <img src=""images/schematic_sequence/dinner_party_scheme/dinner_party_scheme_9.png"" class=""exp-image"">
                    <div class=""question-area"">
                        <p style=""font-size: 20px; font-weight: bold; margin: 0;"">Is there a person in this image?</p>
                    </div>
                </div>","0","main_experiment_trial","9","dinner_party_scheme","schematic_sequence","","","",""
"","","","","","html-keyboard-response","98","380641","0.0-98.0","98E529A5DDB440AFA1223471DA9DD034","019cef8b-6687-7558-afe6-dd6e26b40d90","019cef87-c56d-7b55-9135-c5814367ec25","","null","
                <div class=""stimulus-container"">
                    <img src=""images/schematic_sequence/dinner_party_scheme/dinner_party_scheme_ten.png"" class=""exp-image"">
                    <div class=""question-area""></div> 
                </div>","null","","","","","","","",""
"","","","","","html-button-response","99","381344","0.0-99.0","98E529A5DDB440AFA1223471DA9DD034","019cef8b-6687-7558-afe6-dd6e26b40d90","019cef87-c56d-7b55-9135-c5814367ec25","","701","
                <div class=""stimulus-container"">
                    <img src=""images/schematic_sequence/dinner_party_scheme/dinner_party_scheme_ten.png"" class=""exp-image"">
                    <div class=""question-area"">
                        <p style=""font-size: 20px; font-weight: bold; margin: 0;"">Is there a person in this image?</p>
                    </div>
                </div>","0","main_experiment_trial","ten","dinner_party_scheme","schematic_sequence","","","",""
"","","","","","html-keyboard-response","100","382346","0.0-100.0","98E529A5DDB440AFA1223471DA9DD034","019cef8b-6687-7558-afe6-dd6e26b40d90","019cef87-c56d-7b55-9135-c5814367ec25","","null","<div style=""background-color: white; width: 100vw; height: 100vh;""></div>","null","","","","","","","",""
"","","","","","html-keyboard-response","101","387352","0.0-101.0","98E529A5DDB440AFA1223471DA9DD034","019cef8b-6687-7558-afe6-dd6e26b40d90","019cef87-c56d-7b55-9135-c5814367ec25","","null","
                <div class=""stimulus-container"">
                    <img src=""images/causal_sequence/package_causal/package_causal_1.png"" class=""exp-image"">
                    <div class=""question-area""></div> 
                </div>","null","","","","","","","",""
"","","","","","html-button-response","102","389604","0.0-102.0","98E529A5DDB440AFA1223471DA9DD034","019cef8b-6687-7558-afe6-dd6e26b40d90","019cef87-c56d-7b55-9135-c5814367ec25","","2251","
                <div class=""stimulus-container"">
                    <img src=""images/causal_sequence/package_causal/package_causal_1.png"" class=""exp-image"">
                    <div class=""question-area"">
                        <p style=""font-size: 20px; font-weight: bold; margin: 0;"">Is there a person in this image?</p>
                    </div>
                </div>","0","main_experiment_trial","1","package_causal","causal_sequence","","","",""
"","","","","","html-keyboard-response","103","394609","0.0-103.0","98E529A5DDB440AFA1223471DA9DD034","019cef8b-6687-7558-afe6-dd6e26b40d90","019cef87-c56d-7b55-9135-c5814367ec25","","null","
                <div class=""stimulus-container"">
                    <img src=""images/causal_sequence/package_causal/package_causal_2.png"" class=""exp-image"">
                    <div class=""question-area""></div> 
                </div>","null","","","","","","","",""
"","","","","","html-button-response","104","395825","0.0-104.0","98E529A5DDB440AFA1223471DA9DD034","019cef8b-6687-7558-afe6-dd6e26b40d90","019cef87-c56d-7b55-9135-c5814367ec25","","1215","
                <div class=""stimulus-container"">
                    <img src=""images/causal_sequence/package_causal/package_causal_2.png"" class=""exp-image"">
                    <div class=""question-area"">
                        <p style=""font-size: 20px; font-weight: bold; margin: 0;"">Is there a person in this image?</p>
                    </div>
                </div>","0","main_experiment_trial","2","package_causal","causal_sequence","","","",""
"","","","","","html-keyboard-response","105","400832","0.0-105.0","98E529A5DDB440AFA1223471DA9DD034","019cef8b-6687-7558-afe6-dd6e26b40d90","019cef87-c56d-7b55-9135-c5814367ec25","","null","
                <div class=""stimulus-container"">
                    <img src=""images/causal_sequence/package_causal/package_causal_3.png"" class=""exp-image"">
                    <div class=""question-area""></div> 
                </div>","null","","","","","","","",""
"","","","","","html-button-response","106","401627","0.0-106.0","98E529A5DDB440AFA1223471DA9DD034","019cef8b-6687-7558-afe6-dd6e26b40d90","019cef87-c56d-7b55-9135-c5814367ec25","","794","
                <div class=""stimulus-container"">
                    <img src=""images/causal_sequence/package_causal/package_causal_3.png"" class=""exp-image"">
                    <div class=""question-area"">
                        <p style=""font-size: 20px; font-weight: bold; margin: 0;"">Is there a person in this image?</p>
                    </div>
                </div>","0","main_experiment_trial","3","package_causal","causal_sequence","","","",""
"","","","","","html-keyboard-response","107","406631","0.0-107.0","98E529A5DDB440AFA1223471DA9DD034","019cef8b-6687-7558-afe6-dd6e26b40d90","019cef87-c56d-7b55-9135-c5814367ec25","","null","
                <div class=""stimulus-container"">
                    <img src=""images/causal_sequence/package_causal/package_causal_4.png"" class=""exp-image"">
                    <div class=""question-area""></div> 
                </div>","null","","","","","","","",""
"","","","","","html-button-response","108","407398","0.0-108.0","98E529A5DDB440AFA1223471DA9DD034","019cef8b-6687-7558-afe6-dd6e26b40d90","019cef87-c56d-7b55-9135-c5814367ec25","","766","
                <div class=""stimulus-container"">
                    <img src=""images/causal_sequence/package_causal/package_causal_4.png"" class=""exp-image"">
                    <div class=""question-area"">
                        <p style=""font-size: 20px; font-weight: bold; margin: 0;"">Is there a person in this image?</p>
                    </div>
                </div>","1","main_experiment_trial","4","package_causal","causal_sequence","","","",""
"","","","","","html-keyboard-response","109","412409","0.0-109.0","98E529A5DDB440AFA1223471DA9DD034","019cef8b-6687-7558-afe6-dd6e26b40d90","019cef87-c56d-7b55-9135-c5814367ec25","","null","
                <div class=""stimulus-container"">
                    <img src=""images/causal_sequence/package_causal/package_causal_5.png"" class=""exp-image"">
                    <div class=""question-area""></div> 
                </div>","null","","","","","","","",""
"","","","","","html-button-response","110","413557","0.0-110.0","98E529A5DDB440AFA1223471DA9DD034","019cef8b-6687-7558-afe6-dd6e26b40d90","019cef87-c56d-7b55-9135-c5814367ec25","","1147","
                <div class=""stimulus-container"">
                    <img src=""images/causal_sequence/package_causal/package_causal_5.png"" class=""exp-image"">
                    <div class=""question-area"">
                        <p style=""font-size: 20px; font-weight: bold; margin: 0;"">Is there a person in this image?</p>
                    </div>
                </div>","0","main_experiment_trial","5","package_causal","causal_sequence","","","",""
"","","","","","html-keyboard-response","111","418561","0.0-111.0","98E529A5DDB440AFA1223471DA9DD034","019cef8b-6687-7558-afe6-dd6e26b40d90","019cef87-c56d-7b55-9135-c5814367ec25","","null","
                <div class=""stimulus-container"">
                    <img src=""images/causal_sequence/package_causal/package_causal_6.png"" class=""exp-image"">
                    <div class=""question-area""></div> 
                </div>","null","","","","","","","",""
"","","","","","html-button-response","112","419573","0.0-112.0","98E529A5DDB440AFA1223471DA9DD034","019cef8b-6687-7558-afe6-dd6e26b40d90","019cef87-c56d-7b55-9135-c5814367ec25","","1010","
                <div class=""stimulus-container"">
                    <img src=""images/causal_sequence/package_causal/package_causal_6.png"" class=""exp-image"">
                    <div class=""question-area"">
                        <p style=""font-size: 20px; font-weight: bold; margin: 0;"">Is there a person in this image?</p>
                    </div>
                </div>","0","main_experiment_trial","6","package_causal","causal_sequence","","","",""
"","","","","","html-keyboard-response","113","424586","0.0-113.0","98E529A5DDB440AFA1223471DA9DD034","019cef8b-6687-7558-afe6-dd6e26b40d90","019cef87-c56d-7b55-9135-c5814367ec25","","null","
                <div class=""stimulus-container"">
                    <img src=""images/causal_sequence/package_causal/package_causal_7.png"" class=""exp-image"">
                    <div class=""question-area""></div> 
                </div>","null","","","","","","","",""
"","","","","","html-button-response","114","425938","0.0-114.0","98E529A5DDB440AFA1223471DA9DD034","019cef8b-6687-7558-afe6-dd6e26b40d90","019cef87-c56d-7b55-9135-c5814367ec25","","1351","
                <div class=""stimulus-container"">
                    <img src=""images/causal_sequence/package_causal/package_causal_7.png"" class=""exp-image"">
                    <div class=""question-area"">
                        <p style=""font-size: 20px; font-weight: bold; margin: 0;"">Is there a person in this image?</p>
                    </div>
                </div>","0","main_experiment_trial","7","package_causal","causal_sequence","","","",""
"","","","","","html-keyboard-response","115","430954","0.0-115.0","98E529A5DDB440AFA1223471DA9DD034","019cef8b-6687-7558-afe6-dd6e26b40d90","019cef87-c56d-7b55-9135-c5814367ec25","","null","
                <div class=""stimulus-container"">
                    <img src=""images/causal_sequence/package_causal/package_causal_8.png"" class=""exp-image"">
                    <div class=""question-area""></div> 
                </div>","null","","","","","","","",""
"","","","","","html-button-response","116","431860","0.0-116.0","98E529A5DDB440AFA1223471DA9DD034","019cef8b-6687-7558-afe6-dd6e26b40d90","019cef87-c56d-7b55-9135-c5814367ec25","","904","
                <div class=""stimulus-container"">
                    <img src=""images/causal_sequence/package_causal/package_causal_8.png"" class=""exp-image"">
                    <div class=""question-area"">
                        <p style=""font-size: 20px; font-weight: bold; margin: 0;"">Is there a person in this image?</p>
                    </div>
                </div>","0","main_experiment_trial","8","package_causal","causal_sequence","","","",""
"","","","","","html-keyboard-response","117","436874","0.0-117.0","98E529A5DDB440AFA1223471DA9DD034","019cef8b-6687-7558-afe6-dd6e26b40d90","019cef87-c56d-7b55-9135-c5814367ec25","","null","
                <div class=""stimulus-container"">
                    <img src=""images/causal_sequence/package_causal/package_causal_9.png"" class=""exp-image"">
                    <div class=""question-area""></div> 
                </div>","null","","","","","","","",""
"","","","","","html-button-response","118","437489","0.0-118.0","98E529A5DDB440AFA1223471DA9DD034","019cef8b-6687-7558-afe6-dd6e26b40d90","019cef87-c56d-7b55-9135-c5814367ec25","","615","
                <div class=""stimulus-container"">
                    <img src=""images/causal_sequence/package_causal/package_causal_9.png"" class=""exp-image"">
                    <div class=""question-area"">
                        <p style=""font-size: 20px; font-weight: bold; margin: 0;"">Is there a person in this image?</p>
                    </div>
                </div>","0","main_experiment_trial","9","package_causal","causal_sequence","","","",""
"","","","","","html-keyboard-response","119","442495","0.0-119.0","98E529A5DDB440AFA1223471DA9DD034","019cef8b-6687-7558-afe6-dd6e26b40d90","019cef87-c56d-7b55-9135-c5814367ec25","","null","
                <div class=""stimulus-container"">
                    <img src=""images/causal_sequence/package_causal/package_causal_ten.png"" class=""exp-image"">
                    <div class=""question-area""></div> 
                </div>","null","","","","","","","",""
"","","","","","html-button-response","120","443233","0.0-120.0","98E529A5DDB440AFA1223471DA9DD034","019cef8b-6687-7558-afe6-dd6e26b40d90","019cef87-c56d-7b55-9135-c5814367ec25","","737","
                <div class=""stimulus-container"">
                    <img src=""images/causal_sequence/package_causal/package_causal_ten.png"" class=""exp-image"">
                    <div class=""question-area"">
                        <p style=""font-size: 20px; font-weight: bold; margin: 0;"">Is there a person in this image?</p>
                    </div>
                </div>","0","main_experiment_trial","ten","package_causal","causal_sequence","","","",""
"","","","","","html-keyboard-response","121","444246","0.0-121.0","98E529A5DDB440AFA1223471DA9DD034","019cef8b-6687-7558-afe6-dd6e26b40d90","019cef87-c56d-7b55-9135-c5814367ec25","","null","<div style=""background-color: white; width: 100vw; height: 100vh;""></div>","null","","","","","","","",""
"","","","","","html-keyboard-response","122","449258","0.0-122.0","98E529A5DDB440AFA1223471DA9DD034","019cef8b-6687-7558-afe6-dd6e26b40d90","019cef87-c56d-7b55-9135-c5814367ec25","","null","
                <div class=""stimulus-container"">
                    <img src=""images/schematic_sequence/interview_scheme/interview_scheme_1.png"" class=""exp-image"">
                    <div class=""question-area""></div> 
                </div>","null","","","","","","","",""
"","","","","","html-button-response","123","451174","0.0-123.0","98E529A5DDB440AFA1223471DA9DD034","019cef8b-6687-7558-afe6-dd6e26b40d90","019cef87-c56d-7b55-9135-c5814367ec25","","1915","
                <div class=""stimulus-container"">
                    <img src=""images/schematic_sequence/interview_scheme/interview_scheme_1.png"" class=""exp-image"">
                    <div class=""question-area"">
                        <p style=""font-size: 20px; font-weight: bold; margin: 0;"">Is there a person in this image?</p>
                    </div>
                </div>","1","main_experiment_trial","1","interview_scheme","schematic_sequence","","","",""
"","","","","","html-keyboard-response","124","456184","0.0-124.0","98E529A5DDB440AFA1223471DA9DD034","019cef8b-6687-7558-afe6-dd6e26b40d90","019cef87-c56d-7b55-9135-c5814367ec25","","null","
                <div class=""stimulus-container"">
                    <img src=""images/schematic_sequence/interview_scheme/interview_scheme_2.png"" class=""exp-image"">
                    <div class=""question-area""></div> 
                </div>","null","","","","","","","",""
"","","","","","html-button-response","125","457089","0.0-125.0","98E529A5DDB440AFA1223471DA9DD034","019cef8b-6687-7558-afe6-dd6e26b40d90","019cef87-c56d-7b55-9135-c5814367ec25","","904","
                <div class=""stimulus-container"">
                    <img src=""images/schematic_sequence/interview_scheme/interview_scheme_2.png"" class=""exp-image"">
                    <div class=""question-area"">
                        <p style=""font-size: 20px; font-weight: bold; margin: 0;"">Is there a person in this image?</p>
                    </div>
                </div>","1","main_experiment_trial","2","interview_scheme","schematic_sequence","","","",""
"","","","","","html-keyboard-response","126","462097","0.0-126.0","98E529A5DDB440AFA1223471DA9DD034","019cef8b-6687-7558-afe6-dd6e26b40d90","019cef87-c56d-7b55-9135-c5814367ec25","","null","
                <div class=""stimulus-container"">
                    <img src=""images/schematic_sequence/interview_scheme/interview_scheme_3.png"" class=""exp-image"">
                    <div class=""question-area""></div> 
                </div>","null","","","","","","","",""
"","","","","","html-button-response","127","463304","0.0-127.0","98E529A5DDB440AFA1223471DA9DD034","019cef8b-6687-7558-afe6-dd6e26b40d90","019cef87-c56d-7b55-9135-c5814367ec25","","1206","
                <div class=""stimulus-container"">
                    <img src=""images/schematic_sequence/interview_scheme/interview_scheme_3.png"" class=""exp-image"">
                    <div class=""question-area"">
                        <p style=""font-size: 20px; font-weight: bold; margin: 0;"">Is there a person in this image?</p>
                    </div>
                </div>","1","main_experiment_trial","3","interview_scheme","schematic_sequence","","","",""
"","","","","","html-keyboard-response","128","468311","0.0-128.0","98E529A5DDB440AFA1223471DA9DD034","019cef8b-6687-7558-afe6-dd6e26b40d90","019cef87-c56d-7b55-9135-c5814367ec25","","null","
                <div class=""stimulus-container"">
                    <img src=""images/schematic_sequence/interview_scheme/interview_scheme_4.png"" class=""exp-image"">
                    <div class=""question-area""></div> 
                </div>","null","","","","","","","",""
"","","","","","html-button-response","129","469341","0.0-129.0","98E529A5DDB440AFA1223471DA9DD034","019cef8b-6687-7558-afe6-dd6e26b40d90","019cef87-c56d-7b55-9135-c5814367ec25","","1029","
                <div class=""stimulus-container"">
                    <img src=""images/schematic_sequence/interview_scheme/interview_scheme_4.png"" class=""exp-image"">
                    <div class=""question-area"">
                        <p style=""font-size: 20px; font-weight: bold; margin: 0;"">Is there a person in this image?</p>
                    </div>
                </div>","1","main_experiment_trial","4","interview_scheme","schematic_sequence","","","",""
"","","","","","html-keyboard-response","130","474347","0.0-130.0","98E529A5DDB440AFA1223471DA9DD034","019cef8b-6687-7558-afe6-dd6e26b40d90","019cef87-c56d-7b55-9135-c5814367ec25","","null","
                <div class=""stimulus-container"">
                    <img src=""images/schematic_sequence/interview_scheme/interview_scheme_5.png"" class=""exp-image"">
                    <div class=""question-area""></div> 
                </div>","null","","","","","","","",""
"","","","","","html-button-response","131","475988","0.0-131.0","98E529A5DDB440AFA1223471DA9DD034","019cef8b-6687-7558-afe6-dd6e26b40d90","019cef87-c56d-7b55-9135-c5814367ec25","","1640","
                <div class=""stimulus-container"">
                    <img src=""images/schematic_sequence/interview_scheme/interview_scheme_5.png"" class=""exp-image"">
                    <div class=""question-area"">
                        <p style=""font-size: 20px; font-weight: bold; margin: 0;"">Is there a person in this image?</p>
                    </div>
                </div>","0","main_experiment_trial","5","interview_scheme","schematic_sequence","","","",""
"","","","","","html-keyboard-response","132","480997","0.0-132.0","98E529A5DDB440AFA1223471DA9DD034","019cef8b-6687-7558-afe6-dd6e26b40d90","019cef87-c56d-7b55-9135-c5814367ec25","","null","
                <div class=""stimulus-container"">
                    <img src=""images/schematic_sequence/interview_scheme/interview_scheme_6.png"" class=""exp-image"">
                    <div class=""question-area""></div> 
                </div>","null","","","","","","","",""
"","","","","","html-button-response","133","481648","0.0-133.0","98E529A5DDB440AFA1223471DA9DD034","019cef8b-6687-7558-afe6-dd6e26b40d90","019cef87-c56d-7b55-9135-c5814367ec25","","650","
                <div class=""stimulus-container"">
                    <img src=""images/schematic_sequence/interview_scheme/interview_scheme_6.png"" class=""exp-image"">
                    <div class=""question-area"">
                        <p style=""font-size: 20px; font-weight: bold; margin: 0;"">Is there a person in this image?</p>
                    </div>
                </div>","0","main_experiment_trial","6","interview_scheme","schematic_sequence","","","",""
"","","","","","html-keyboard-response","134","486659","0.0-134.0","98E529A5DDB440AFA1223471DA9DD034","019cef8b-6687-7558-afe6-dd6e26b40d90","019cef87-c56d-7b55-9135-c5814367ec25","","null","
                <div class=""stimulus-container"">
                    <img src=""images/schematic_sequence/interview_scheme/interview_scheme_7.png"" class=""exp-image"">
                    <div class=""question-area""></div> 
                </div>","null","","","","","","","",""
"","","","","","html-button-response","135","487797","0.0-135.0","98E529A5DDB440AFA1223471DA9DD034","019cef8b-6687-7558-afe6-dd6e26b40d90","019cef87-c56d-7b55-9135-c5814367ec25","","1137","
                <div class=""stimulus-container"">
                    <img src=""images/schematic_sequence/interview_scheme/interview_scheme_7.png"" class=""exp-image"">
                    <div class=""question-area"">
                        <p style=""font-size: 20px; font-weight: bold; margin: 0;"">Is there a person in this image?</p>
                    </div>
                </div>","0","main_experiment_trial","7","interview_scheme","schematic_sequence","","","",""
"","","","","","html-keyboard-response","136","492811","0.0-136.0","98E529A5DDB440AFA1223471DA9DD034","019cef8b-6687-7558-afe6-dd6e26b40d90","019cef87-c56d-7b55-9135-c5814367ec25","","null","
                <div class=""stimulus-container"">
                    <img src=""images/schematic_sequence/interview_scheme/interview_scheme_8.png"" class=""exp-image"">
                    <div class=""question-area""></div> 
                </div>","null","","","","","","","",""
"","","","","","html-button-response","137","494034","0.0-137.0","98E529A5DDB440AFA1223471DA9DD034","019cef8b-6687-7558-afe6-dd6e26b40d90","019cef87-c56d-7b55-9135-c5814367ec25","","1221","
                <div class=""stimulus-container"">
                    <img src=""images/schematic_sequence/interview_scheme/interview_scheme_8.png"" class=""exp-image"">
                    <div class=""question-area"">
                        <p style=""font-size: 20px; font-weight: bold; margin: 0;"">Is there a person in this image?</p>
                    </div>
                </div>","0","main_experiment_trial","8","interview_scheme","schematic_sequence","","","",""
"","","","","","html-keyboard-response","138","499037","0.0-138.0","98E529A5DDB440AFA1223471DA9DD034","019cef8b-6687-7558-afe6-dd6e26b40d90","019cef87-c56d-7b55-9135-c5814367ec25","","null","
                <div class=""stimulus-container"">
                    <img src=""images/schematic_sequence/interview_scheme/interview_scheme_9.png"" class=""exp-image"">
                    <div class=""question-area""></div> 
                </div>","null","","","","","","","",""
"","","","","","html-button-response","139","500937","0.0-139.0","98E529A5DDB440AFA1223471DA9DD034","019cef8b-6687-7558-afe6-dd6e26b40d90","019cef87-c56d-7b55-9135-c5814367ec25","","1899","
                <div class=""stimulus-container"">
                    <img src=""images/schematic_sequence/interview_scheme/interview_scheme_9.png"" class=""exp-image"">
                    <div class=""question-area"">
                        <p style=""font-size: 20px; font-weight: bold; margin: 0;"">Is there a person in this image?</p>
                    </div>
                </div>","0","main_experiment_trial","9","interview_scheme","schematic_sequence","","","",""
"","","","","","html-keyboard-response","140","505948","0.0-140.0","98E529A5DDB440AFA1223471DA9DD034","019cef8b-6687-7558-afe6-dd6e26b40d90","019cef87-c56d-7b55-9135-c5814367ec25","","null","
                <div class=""stimulus-container"">
                    <img src=""images/schematic_sequence/interview_scheme/interview_scheme_ten.png"" class=""exp-image"">
                    <div class=""question-area""></div> 
                </div>","null","","","","","","","",""
"","","","","","html-button-response","141","508005","0.0-141.0","98E529A5DDB440AFA1223471DA9DD034","019cef8b-6687-7558-afe6-dd6e26b40d90","019cef87-c56d-7b55-9135-c5814367ec25","","2056","
                <div class=""stimulus-container"">
                    <img src=""images/schematic_sequence/interview_scheme/interview_scheme_ten.png"" class=""exp-image"">
                    <div class=""question-area"">
                        <p style=""font-size: 20px; font-weight: bold; margin: 0;"">Is there a person in this image?</p>
                    </div>
                </div>","0","main_experiment_trial","ten","interview_scheme","schematic_sequence","","","",""
"","","","","","html-keyboard-response","142","509009","0.0-142.0","98E529A5DDB440AFA1223471DA9DD034","019cef8b-6687-7558-afe6-dd6e26b40d90","019cef87-c56d-7b55-9135-c5814367ec25","","null","<div style=""background-color: white; width: 100vw; height: 100vh;""></div>","null","","","","","","","",""
"","","","","","html-keyboard-response","143","514025","0.0-143.0","98E529A5DDB440AFA1223471DA9DD034","019cef8b-6687-7558-afe6-dd6e26b40d90","019cef87-c56d-7b55-9135-c5814367ec25","","null","
                <div class=""stimulus-container"">
                    <img src=""images/schematic_sequence/flight_scheme/flight_scheme_1.png"" class=""exp-image"">
                    <div class=""question-area""></div> 
                </div>","null","","","","","","","",""
"","","","","","html-button-response","144","516543","0.0-144.0","98E529A5DDB440AFA1223471DA9DD034","019cef8b-6687-7558-afe6-dd6e26b40d90","019cef87-c56d-7b55-9135-c5814367ec25","","2517","
                <div class=""stimulus-container"">
                    <img src=""images/schematic_sequence/flight_scheme/flight_scheme_1.png"" class=""exp-image"">
                    <div class=""question-area"">
                        <p style=""font-size: 20px; font-weight: bold; margin: 0;"">Is there a person in this image?</p>
                    </div>
                </div>","1","main_experiment_trial","1","flight_scheme","schematic_sequence","","","",""
"","","","","","html-keyboard-response","145","521561","0.0-145.0","98E529A5DDB440AFA1223471DA9DD034","019cef8b-6687-7558-afe6-dd6e26b40d90","019cef87-c56d-7b55-9135-c5814367ec25","","null","
                <div class=""stimulus-container"">
                    <img src=""images/schematic_sequence/flight_scheme/flight_scheme_2.png"" class=""exp-image"">
                    <div class=""question-area""></div> 
                </div>","null","","","","","","","",""
"","","","","","html-button-response","146","522724","0.0-146.0","98E529A5DDB440AFA1223471DA9DD034","019cef8b-6687-7558-afe6-dd6e26b40d90","019cef87-c56d-7b55-9135-c5814367ec25","","1162","
                <div class=""stimulus-container"">
                    <img src=""images/schematic_sequence/flight_scheme/flight_scheme_2.png"" class=""exp-image"">
                    <div class=""question-area"">
                        <p style=""font-size: 20px; font-weight: bold; margin: 0;"">Is there a person in this image?</p>
                    </div>
                </div>","1","main_experiment_trial","2","flight_scheme","schematic_sequence","","","",""
"","","","","","html-keyboard-response","147","527741","0.0-147.0","98E529A5DDB440AFA1223471DA9DD034","019cef8b-6687-7558-afe6-dd6e26b40d90","019cef87-c56d-7b55-9135-c5814367ec25","","null","
                <div class=""stimulus-container"">
                    <img src=""images/schematic_sequence/flight_scheme/flight_scheme_3.png"" class=""exp-image"">
                    <div class=""question-area""></div> 
                </div>","null","","","","","","","",""
"","","","","","html-button-response","148","530333","0.0-148.0","98E529A5DDB440AFA1223471DA9DD034","019cef8b-6687-7558-afe6-dd6e26b40d90","019cef87-c56d-7b55-9135-c5814367ec25","","2591","
                <div class=""stimulus-container"">
                    <img src=""images/schematic_sequence/flight_scheme/flight_scheme_3.png"" class=""exp-image"">
                    <div class=""question-area"">
                        <p style=""font-size: 20px; font-weight: bold; margin: 0;"">Is there a person in this image?</p>
                    </div>
                </div>","0","main_experiment_trial","3","flight_scheme","schematic_sequence","","","",""
"","","","","","html-keyboard-response","149","535347","0.0-149.0","98E529A5DDB440AFA1223471DA9DD034","019cef8b-6687-7558-afe6-dd6e26b40d90","019cef87-c56d-7b55-9135-c5814367ec25","","null","
                <div class=""stimulus-container"">
                    <img src=""images/schematic_sequence/flight_scheme/flight_scheme_4.png"" class=""exp-image"">
                    <div class=""question-area""></div> 
                </div>","null","","","","","","","",""
"","","","","","html-button-response","150","536281","0.0-150.0","98E529A5DDB440AFA1223471DA9DD034","019cef8b-6687-7558-afe6-dd6e26b40d90","019cef87-c56d-7b55-9135-c5814367ec25","","934","
                <div class=""stimulus-container"">
                    <img src=""images/schematic_sequence/flight_scheme/flight_scheme_4.png"" class=""exp-image"">
                    <div class=""question-area"">
                        <p style=""font-size: 20px; font-weight: bold; margin: 0;"">Is there a person in this image?</p>
                    </div>
                </div>","0","main_experiment_trial","4","flight_scheme","schematic_sequence","","","",""
"","","","","","html-keyboard-response","151","541287","0.0-151.0","98E529A5DDB440AFA1223471DA9DD034","019cef8b-6687-7558-afe6-dd6e26b40d90","019cef87-c56d-7b55-9135-c5814367ec25","","null","
                <div class=""stimulus-container"">
                    <img src=""images/schematic_sequence/flight_scheme/flight_scheme_5.png"" class=""exp-image"">
                    <div class=""question-area""></div> 
                </div>","null","","","","","","","",""
"","","","","","html-button-response","152","542271","0.0-152.0","98E529A5DDB440AFA1223471DA9DD034","019cef8b-6687-7558-afe6-dd6e26b40d90","019cef87-c56d-7b55-9135-c5814367ec25","","983","
                <div class=""stimulus-container"">
                    <img src=""images/schematic_sequence/flight_scheme/flight_scheme_5.png"" class=""exp-image"">
                    <div class=""question-area"">
                        <p style=""font-size: 20px; font-weight: bold; margin: 0;"">Is there a person in this image?</p>
                    </div>
                </div>","0","main_experiment_trial","5","flight_scheme","schematic_sequence","","","",""
"","","","","","html-keyboard-response","153","547281","0.0-153.0","98E529A5DDB440AFA1223471DA9DD034","019cef8b-6687-7558-afe6-dd6e26b40d90","019cef87-c56d-7b55-9135-c5814367ec25","","null","
                <div class=""stimulus-container"">
                    <img src=""images/schematic_sequence/flight_scheme/flight_scheme_6.png"" class=""exp-image"">
                    <div class=""question-area""></div> 
                </div>","null","","","","","","","",""
"","","","","","html-button-response","154","548233","0.0-154.0","98E529A5DDB440AFA1223471DA9DD034","019cef8b-6687-7558-afe6-dd6e26b40d90","019cef87-c56d-7b55-9135-c5814367ec25","","950","
                <div class=""stimulus-container"">
                    <img src=""images/schematic_sequence/flight_scheme/flight_scheme_6.png"" class=""exp-image"">
                    <div class=""question-area"">
                        <p style=""font-size: 20px; font-weight: bold; margin: 0;"">Is there a person in this image?</p>
                    </div>
                </div>","1","main_experiment_trial","6","flight_scheme","schematic_sequence","","","",""
"","","","","","html-keyboard-response","155","553245","0.0-155.0","98E529A5DDB440AFA1223471DA9DD034","019cef8b-6687-7558-afe6-dd6e26b40d90","019cef87-c56d-7b55-9135-c5814367ec25","","null","
                <div class=""stimulus-container"">
                    <img src=""images/schematic_sequence/flight_scheme/flight_scheme_7.png"" class=""exp-image"">
                    <div class=""question-area""></div> 
                </div>","null","","","","","","","",""
"","","","","","html-button-response","156","554329","0.0-156.0","98E529A5DDB440AFA1223471DA9DD034","019cef8b-6687-7558-afe6-dd6e26b40d90","019cef87-c56d-7b55-9135-c5814367ec25","","1083","
                <div class=""stimulus-container"">
                    <img src=""images/schematic_sequence/flight_scheme/flight_scheme_7.png"" class=""exp-image"">
                    <div class=""question-area"">
                        <p style=""font-size: 20px; font-weight: bold; margin: 0;"">Is there a person in this image?</p>
                    </div>
                </div>","1","main_experiment_trial","7","flight_scheme","schematic_sequence","","","",""
"","","","","","html-keyboard-response","157","559346","0.0-157.0","98E529A5DDB440AFA1223471DA9DD034","019cef8b-6687-7558-afe6-dd6e26b40d90","019cef87-c56d-7b55-9135-c5814367ec25","","null","
                <div class=""stimulus-container"">
                    <img src=""images/schematic_sequence/flight_scheme/flight_scheme_8.png"" class=""exp-image"">
                    <div class=""question-area""></div> 
                </div>","null","","","","","","","",""
"","","","","","html-button-response","158","560478","0.0-158.0","98E529A5DDB440AFA1223471DA9DD034","019cef8b-6687-7558-afe6-dd6e26b40d90","019cef87-c56d-7b55-9135-c5814367ec25","","1131","
                <div class=""stimulus-container"">
                    <img src=""images/schematic_sequence/flight_scheme/flight_scheme_8.png"" class=""exp-image"">
                    <div class=""question-area"">
                        <p style=""font-size: 20px; font-weight: bold; margin: 0;"">Is there a person in this image?</p>
                    </div>
                </div>","1","main_experiment_trial","8","flight_scheme","schematic_sequence","","","",""
"","","","","","html-keyboard-response","159","565488","0.0-159.0","98E529A5DDB440AFA1223471DA9DD034","019cef8b-6687-7558-afe6-dd6e26b40d90","019cef87-c56d-7b55-9135-c5814367ec25","","null","
                <div class=""stimulus-container"">
                    <img src=""images/schematic_sequence/flight_scheme/flight_scheme_9.png"" class=""exp-image"">
                    <div class=""question-area""></div> 
                </div>","null","","","","","","","",""
"","","","","","html-button-response","160","567171","0.0-160.0","98E529A5DDB440AFA1223471DA9DD034","019cef8b-6687-7558-afe6-dd6e26b40d90","019cef87-c56d-7b55-9135-c5814367ec25","","1682","
                <div class=""stimulus-container"">
                    <img src=""images/schematic_sequence/flight_scheme/flight_scheme_9.png"" class=""exp-image"">
                    <div class=""question-area"">
                        <p style=""font-size: 20px; font-weight: bold; margin: 0;"">Is there a person in this image?</p>
                    </div>
                </div>","0","main_experiment_trial","9","flight_scheme","schematic_sequence","","","",""
"","","","","","html-keyboard-response","161","572183","0.0-161.0","98E529A5DDB440AFA1223471DA9DD034","019cef8b-6687-7558-afe6-dd6e26b40d90","019cef87-c56d-7b55-9135-c5814367ec25","","null","
                <div class=""stimulus-container"">
                    <img src=""images/schematic_sequence/flight_scheme/flight_scheme_ten.png"" class=""exp-image"">
                    <div class=""question-area""></div> 
                </div>","null","","","","","","","",""
"","","","","","html-button-response","162","574171","0.0-162.0","98E529A5DDB440AFA1223471DA9DD034","019cef8b-6687-7558-afe6-dd6e26b40d90","019cef87-c56d-7b55-9135-c5814367ec25","","1986","
                <div class=""stimulus-container"">
                    <img src=""images/schematic_sequence/flight_scheme/flight_scheme_ten.png"" class=""exp-image"">
                    <div class=""question-area"">
                        <p style=""font-size: 20px; font-weight: bold; margin: 0;"">Is there a person in this image?</p>
                    </div>
                </div>","0","main_experiment_trial","ten","flight_scheme","schematic_sequence","","","",""
"","","","","","html-keyboard-response","163","575184","0.0-163.0","98E529A5DDB440AFA1223471DA9DD034","019cef8b-6687-7558-afe6-dd6e26b40d90","019cef87-c56d-7b55-9135-c5814367ec25","","null","<div style=""background-color: white; width: 100vw; height: 100vh;""></div>","null","","","","","","","",""
"","","","","","html-keyboard-response","164","580198","0.0-164.0","98E529A5DDB440AFA1223471DA9DD034","019cef8b-6687-7558-afe6-dd6e26b40d90","019cef87-c56d-7b55-9135-c5814367ec25","","null","
                <div class=""stimulus-container"">
                    <img src=""images/causal_sequence/coin_causal/coin_causal_1.png"" class=""exp-image"">
                    <div class=""question-area""></div> 
                </div>","null","","","","","","","",""
"","","","","","html-button-response","165","581876","0.0-165.0","98E529A5DDB440AFA1223471DA9DD034","019cef8b-6687-7558-afe6-dd6e26b40d90","019cef87-c56d-7b55-9135-c5814367ec25","","1677","
                <div class=""stimulus-container"">
                    <img src=""images/causal_sequence/coin_causal/coin_causal_1.png"" class=""exp-image"">
                    <div class=""question-area"">
                        <p style=""font-size: 20px; font-weight: bold; margin: 0;"">Is there a person in this image?</p>
                    </div>
                </div>","0","main_experiment_trial","1","coin_causal","causal_sequence","","","",""
"","","","","","html-keyboard-response","166","586881","0.0-166.0","98E529A5DDB440AFA1223471DA9DD034","019cef8b-6687-7558-afe6-dd6e26b40d90","019cef87-c56d-7b55-9135-c5814367ec25","","null","
                <div class=""stimulus-container"">
                    <img src=""images/causal_sequence/coin_causal/coin_causal_2.png"" class=""exp-image"">
                    <div class=""question-area""></div> 
                </div>","null","","","","","","","",""
"","","","","","html-button-response","167","587870","0.0-167.0","98E529A5DDB440AFA1223471DA9DD034","019cef8b-6687-7558-afe6-dd6e26b40d90","019cef87-c56d-7b55-9135-c5814367ec25","","988","
                <div class=""stimulus-container"">
                    <img src=""images/causal_sequence/coin_causal/coin_causal_2.png"" class=""exp-image"">
                    <div class=""question-area"">
                        <p style=""font-size: 20px; font-weight: bold; margin: 0;"">Is there a person in this image?</p>
                    </div>
                </div>","0","main_experiment_trial","2","coin_causal","causal_sequence","","","",""
"","","","","","html-keyboard-response","168","592885","0.0-168.0","98E529A5DDB440AFA1223471DA9DD034","019cef8b-6687-7558-afe6-dd6e26b40d90","019cef87-c56d-7b55-9135-c5814367ec25","","null","
                <div class=""stimulus-container"">
                    <img src=""images/causal_sequence/coin_causal/coin_causal_3.png"" class=""exp-image"">
                    <div class=""question-area""></div> 
                </div>","null","","","","","","","",""
"","","","","","html-button-response","169","593862","0.0-169.0","98E529A5DDB440AFA1223471DA9DD034","019cef8b-6687-7558-afe6-dd6e26b40d90","019cef87-c56d-7b55-9135-c5814367ec25","","976","
                <div class=""stimulus-container"">
                    <img src=""images/causal_sequence/coin_causal/coin_causal_3.png"" class=""exp-image"">
                    <div class=""question-area"">
                        <p style=""font-size: 20px; font-weight: bold; margin: 0;"">Is there a person in this image?</p>
                    </div>
                </div>","0","main_experiment_trial","3","coin_causal","causal_sequence","","","",""
"","","","","","html-keyboard-response","170","598873","0.0-170.0","98E529A5DDB440AFA1223471DA9DD034","019cef8b-6687-7558-afe6-dd6e26b40d90","019cef87-c56d-7b55-9135-c5814367ec25","","null","
                <div class=""stimulus-container"">
                    <img src=""images/causal_sequence/coin_causal/coin_causal_4.png"" class=""exp-image"">
                    <div class=""question-area""></div> 
                </div>","null","","","","","","","",""
"","","","","","html-button-response","171","600735","0.0-171.0","98E529A5DDB440AFA1223471DA9DD034","019cef8b-6687-7558-afe6-dd6e26b40d90","019cef87-c56d-7b55-9135-c5814367ec25","","1860","
                <div class=""stimulus-container"">
                    <img src=""images/causal_sequence/coin_causal/coin_causal_4.png"" class=""exp-image"">
                    <div class=""question-area"">
                        <p style=""font-size: 20px; font-weight: bold; margin: 0;"">Is there a person in this image?</p>
                    </div>
                </div>","0","main_experiment_trial","4","coin_causal","causal_sequence","","","",""
"","","","","","html-keyboard-response","172","605749","0.0-172.0","98E529A5DDB440AFA1223471DA9DD034","019cef8b-6687-7558-afe6-dd6e26b40d90","019cef87-c56d-7b55-9135-c5814367ec25","","null","
                <div class=""stimulus-container"">
                    <img src=""images/causal_sequence/coin_causal/coin_causal_5.png"" class=""exp-image"">
                    <div class=""question-area""></div> 
                </div>","null","","","","","","","",""
"","","","","","html-button-response","173","607103","0.0-173.0","98E529A5DDB440AFA1223471DA9DD034","019cef8b-6687-7558-afe6-dd6e26b40d90","019cef87-c56d-7b55-9135-c5814367ec25","","1352","
                <div class=""stimulus-container"">
                    <img src=""images/causal_sequence/coin_causal/coin_causal_5.png"" class=""exp-image"">
                    <div class=""question-area"">
                        <p style=""font-size: 20px; font-weight: bold; margin: 0;"">Is there a person in this image?</p>
                    </div>
                </div>","0","main_experiment_trial","5","coin_causal","causal_sequence","","","",""
"","","","","","html-keyboard-response","174","612106","0.0-174.0","98E529A5DDB440AFA1223471DA9DD034","019cef8b-6687-7558-afe6-dd6e26b40d90","019cef87-c56d-7b55-9135-c5814367ec25","","null","
                <div class=""stimulus-container"">
                    <img src=""images/causal_sequence/coin_causal/coin_causal_6.png"" class=""exp-image"">
                    <div class=""question-area""></div> 
                </div>","null","","","","","","","",""
"","","","","","html-button-response","175","612973","0.0-175.0","98E529A5DDB440AFA1223471DA9DD034","019cef8b-6687-7558-afe6-dd6e26b40d90","019cef87-c56d-7b55-9135-c5814367ec25","","867","
                <div class=""stimulus-container"">
                    <img src=""images/causal_sequence/coin_causal/coin_causal_6.png"" class=""exp-image"">
                    <div class=""question-area"">
                        <p style=""font-size: 20px; font-weight: bold; margin: 0;"">Is there a person in this image?</p>
                    </div>
                </div>","0","main_experiment_trial","6","coin_causal","causal_sequence","","","",""
"","","","","","html-keyboard-response","176","617989","0.0-176.0","98E529A5DDB440AFA1223471DA9DD034","019cef8b-6687-7558-afe6-dd6e26b40d90","019cef87-c56d-7b55-9135-c5814367ec25","","null","
                <div class=""stimulus-container"">
                    <img src=""images/causal_sequence/coin_causal/coin_causal_7.png"" class=""exp-image"">
                    <div class=""question-area""></div> 
                </div>","null","","","","","","","",""
"","","","","","html-button-response","177","619922","0.0-177.0","98E529A5DDB440AFA1223471DA9DD034","019cef8b-6687-7558-afe6-dd6e26b40d90","019cef87-c56d-7b55-9135-c5814367ec25","","1931","
                <div class=""stimulus-container"">
                    <img src=""images/causal_sequence/coin_causal/coin_causal_7.png"" class=""exp-image"">
                    <div class=""question-area"">
                        <p style=""font-size: 20px; font-weight: bold; margin: 0;"">Is there a person in this image?</p>
                    </div>
                </div>","1","main_experiment_trial","7","coin_causal","causal_sequence","","","",""
"","","","","","html-keyboard-response","178","624933","0.0-178.0","98E529A5DDB440AFA1223471DA9DD034","019cef8b-6687-7558-afe6-dd6e26b40d90","019cef87-c56d-7b55-9135-c5814367ec25","","null","
                <div class=""stimulus-container"">
                    <img src=""images/causal_sequence/coin_causal/coin_causal_8.png"" class=""exp-image"">
                    <div class=""question-area""></div> 
                </div>","null","","","","","","","",""
"","","","","","html-button-response","179","626948","0.0-179.0","98E529A5DDB440AFA1223471DA9DD034","019cef8b-6687-7558-afe6-dd6e26b40d90","019cef87-c56d-7b55-9135-c5814367ec25","","2014","
                <div class=""stimulus-container"">
                    <img src=""images/causal_sequence/coin_causal/coin_causal_8.png"" class=""exp-image"">
                    <div class=""question-area"">
                        <p style=""font-size: 20px; font-weight: bold; margin: 0;"">Is there a person in this image?</p>
                    </div>
                </div>","0","main_experiment_trial","8","coin_causal","causal_sequence","","","",""
"","","","","","html-keyboard-response","180","631958","0.0-180.0","98E529A5DDB440AFA1223471DA9DD034","019cef8b-6687-7558-afe6-dd6e26b40d90","019cef87-c56d-7b55-9135-c5814367ec25","","null","
                <div class=""stimulus-container"">
                    <img src=""images/causal_sequence/coin_causal/coin_causal_9.png"" class=""exp-image"">
                    <div class=""question-area""></div> 
                </div>","null","","","","","","","",""
"","","","","","html-button-response","181","633362","0.0-181.0","98E529A5DDB440AFA1223471DA9DD034","019cef8b-6687-7558-afe6-dd6e26b40d90","019cef87-c56d-7b55-9135-c5814367ec25","","1402","
                <div class=""stimulus-container"">
                    <img src=""images/causal_sequence/coin_causal/coin_causal_9.png"" class=""exp-image"">
                    <div class=""question-area"">
                        <p style=""font-size: 20px; font-weight: bold; margin: 0;"">Is there a person in this image?</p>
                    </div>
                </div>","0","main_experiment_trial","9","coin_causal","causal_sequence","","","",""
"","","","","","html-keyboard-response","182","638371","0.0-182.0","98E529A5DDB440AFA1223471DA9DD034","019cef8b-6687-7558-afe6-dd6e26b40d90","019cef87-c56d-7b55-9135-c5814367ec25","","null","
                <div class=""stimulus-container"">
                    <img src=""images/causal_sequence/coin_causal/coin_causal_ten.png"" class=""exp-image"">
                    <div class=""question-area""></div> 
                </div>","null","","","","","","","",""
"","","","","","html-button-response","183","639486","0.0-183.0","98E529A5DDB440AFA1223471DA9DD034","019cef8b-6687-7558-afe6-dd6e26b40d90","019cef87-c56d-7b55-9135-c5814367ec25","","1114","
                <div class=""stimulus-container"">
                    <img src=""images/causal_sequence/coin_causal/coin_causal_ten.png"" class=""exp-image"">
                    <div class=""question-area"">
                        <p style=""font-size: 20px; font-weight: bold; margin: 0;"">Is there a person in this image?</p>
                    </div>
                </div>","0","main_experiment_trial","ten","coin_causal","causal_sequence","","","",""
