"success","timeout","failed_images","failed_audio","failed_video","trial_type","trial_index","time_elapsed","internal_node_id","subject_id","study_id","session_id","view_history","rt","stimulus","response","task","image_index","folder","sequence_type","presentation_order","valuable_image_index","reward_type","target_X","l_dist","r_dist","chosen_image_index","selected_after_X","correct_choice"
"true","false","[]","[]","[]","preload","0","29945","0.0-0.0","F6586134F687435A9064E1C721EBC99F","019d65fc-a8a6-750f-bd9b-9b905bda52ed","019d65e4-5dda-7a64-875b-926becb7401d","","","","","","","","","","","","","","","","",""
"","","","","","instructions","1","42322","0.0-1.0","F6586134F687435A9064E1C721EBC99F","019d65fc-a8a6-750f-bd9b-9b905bda52ed","019d65e4-5dda-7a64-875b-926becb7401d","[{""page_index"":0,""viewing_time"":12376}]","12377","","","","","","","","","","","","","","",""
"","","","","","instructions","2","44972","0.0-2.0","F6586134F687435A9064E1C721EBC99F","019d65fc-a8a6-750f-bd9b-9b905bda52ed","019d65e4-5dda-7a64-875b-926becb7401d","[{""page_index"":0,""viewing_time"":2648}]","2648","","","","","","","","","","","","","","",""
"true","","","","","fullscreen","3","47162","0.0-3.0","F6586134F687435A9064E1C721EBC99F","019d65fc-a8a6-750f-bd9b-9b905bda52ed","019d65e4-5dda-7a64-875b-926becb7401d","","1179","","","","","","","","","","","","","","",""
"","","","","","instructions","4","55731","0.0-4.0","F6586134F687435A9064E1C721EBC99F","019d65fc-a8a6-750f-bd9b-9b905bda52ed","019d65e4-5dda-7a64-875b-926becb7401d","[{""page_index"":0,""viewing_time"":8568}]","8568","","","","","","","","","","","","","","",""
"","","","","","instructions","5","66234","0.0-5.0","F6586134F687435A9064E1C721EBC99F","019d65fc-a8a6-750f-bd9b-9b905bda52ed","019d65e4-5dda-7a64-875b-926becb7401d","[{""page_index"":0,""viewing_time"":10502}]","10503","","","","","","","","","","","","","","",""
"","","","","","html-keyboard-response","6","70246","0.0-6.0","F6586134F687435A9064E1C721EBC99F","019d65fc-a8a6-750f-bd9b-9b905bda52ed","019d65e4-5dda-7a64-875b-926becb7401d","","null","
                <div class=""stimulus-container"">
                    <img src=""images/instructions/movie_1.png"" class=""exp-image"">
                    <div class=""question-area""></div> 
                </div>","null","","","","","","","","","","","","",""
"","","","","","html-button-response","7","71624","0.0-7.0","F6586134F687435A9064E1C721EBC99F","019d65fc-a8a6-750f-bd9b-9b905bda52ed","019d65e4-5dda-7a64-875b-926becb7401d","","1376","
                <div class=""stimulus-container"">
                    <img src=""images/instructions/movie_1.png"" class=""exp-image"">
                    <div class=""question-area"">
                        <p style=""font-size: 20px; font-weight: bold; margin: 0;"">Was there a person in this image?</p>
                    </div>
                </div>","0","example_question","1","","","","","","","","","","",""
"","","","","","html-keyboard-response","8","75627","0.0-8.0","F6586134F687435A9064E1C721EBC99F","019d65fc-a8a6-750f-bd9b-9b905bda52ed","019d65e4-5dda-7a64-875b-926becb7401d","","null","
                <div class=""stimulus-container"">
                    <img src=""images/instructions/movie_2.png"" class=""exp-image"">
                    <div class=""question-area""></div> 
                </div>","null","","","","","","","","","","","","",""
"","","","","","html-button-response","9","76451","0.0-9.0","F6586134F687435A9064E1C721EBC99F","019d65fc-a8a6-750f-bd9b-9b905bda52ed","019d65e4-5dda-7a64-875b-926becb7401d","","823","
                <div class=""stimulus-container"">
                    <img src=""images/instructions/movie_2.png"" class=""exp-image"">
                    <div class=""question-area"">
                        <p style=""font-size: 20px; font-weight: bold; margin: 0;"">Was there a person in this image?</p>
                    </div>
                </div>","0","example_question","2","","","","","","","","","","",""
"","","","","","html-keyboard-response","10","80454","0.0-10.0","F6586134F687435A9064E1C721EBC99F","019d65fc-a8a6-750f-bd9b-9b905bda52ed","019d65e4-5dda-7a64-875b-926becb7401d","","null","
                <div class=""stimulus-container"">
                    <img src=""images/instructions/movie_3.png"" class=""exp-image"">
                    <div class=""question-area""></div> 
                </div>","null","","","","","","","","","","","","",""
"","","","","","html-button-response","11","81487","0.0-11.0","F6586134F687435A9064E1C721EBC99F","019d65fc-a8a6-750f-bd9b-9b905bda52ed","019d65e4-5dda-7a64-875b-926becb7401d","","1032","
                <div class=""stimulus-container"">
                    <img src=""images/instructions/movie_3.png"" class=""exp-image"">
                    <div class=""question-area"">
                        <p style=""font-size: 20px; font-weight: bold; margin: 0;"">Was there a person in this image?</p>
                    </div>
                </div>","0","example_question","3","","","","","","","","","","",""
"","","","","","html-keyboard-response","12","85489","0.0-12.0","F6586134F687435A9064E1C721EBC99F","019d65fc-a8a6-750f-bd9b-9b905bda52ed","019d65e4-5dda-7a64-875b-926becb7401d","","null","
                <div class=""stimulus-container"">
                    <img src=""images/instructions/movie_4.png"" class=""exp-image"">
                    <div class=""question-area""></div> 
                </div>","null","","","","","","","","","","","","",""
"","","","","","html-button-response","13","86309","0.0-13.0","F6586134F687435A9064E1C721EBC99F","019d65fc-a8a6-750f-bd9b-9b905bda52ed","019d65e4-5dda-7a64-875b-926becb7401d","","819","
                <div class=""stimulus-container"">
                    <img src=""images/instructions/movie_4.png"" class=""exp-image"">
                    <div class=""question-area"">
                        <p style=""font-size: 20px; font-weight: bold; margin: 0;"">Was there a person in this image?</p>
                    </div>
                </div>","0","example_question","4","","","","","","","","","","",""
"","","","","","instructions","14","88019","0.0-14.0","F6586134F687435A9064E1C721EBC99F","019d65fc-a8a6-750f-bd9b-9b905bda52ed","019d65e4-5dda-7a64-875b-926becb7401d","[{""page_index"":0,""viewing_time"":1710}]","1710","","","","","","","","","","","","","","",""
"","","","","","instructions","15","94022","0.0-15.0","F6586134F687435A9064E1C721EBC99F","019d65fc-a8a6-750f-bd9b-9b905bda52ed","019d65e4-5dda-7a64-875b-926becb7401d","[{""page_index"":0,""viewing_time"":6001}]","6001","","","","","","","","","","","","","","",""
"","","","","","html-keyboard-response","16","99033","0.0-16.0","F6586134F687435A9064E1C721EBC99F","019d65fc-a8a6-750f-bd9b-9b905bda52ed","019d65e4-5dda-7a64-875b-926becb7401d","","null","<div style=""background-color: white; width: 100vw; height: 100vh;""></div>","null","","","","","","","","","","","","",""
"","","","","","html-keyboard-response","17","104040","0.0-17.0","F6586134F687435A9064E1C721EBC99F","019d65fc-a8a6-750f-bd9b-9b905bda52ed","019d65e4-5dda-7a64-875b-926becb7401d","","null","
                <div class=""stimulus-container"">
                    <img src=""images/causal_sequence/dog_causal/dog_causal_1.png"" class=""exp-image"">
                    <div class=""question-area""></div> 
                </div>","null","","","","","","","","","","","","",""
"","","","","","html-button-response","18","105051","0.0-18.0","F6586134F687435A9064E1C721EBC99F","019d65fc-a8a6-750f-bd9b-9b905bda52ed","019d65e4-5dda-7a64-875b-926becb7401d","","1010","
                <div class=""stimulus-container"">
                    <img src=""images/causal_sequence/dog_causal/dog_causal_1.png"" class=""exp-image"">
                    <div class=""question-area"">
                        <p style=""font-size: 20px; font-weight: bold; margin: 0;"">Is there a person in this image?</p>
                    </div>
                </div>","0","main_experiment_trial","1","dog_causal","causal_sequence","chronological","","","","","","","",""
"","","","","","html-keyboard-response","19","110059","0.0-19.0","F6586134F687435A9064E1C721EBC99F","019d65fc-a8a6-750f-bd9b-9b905bda52ed","019d65e4-5dda-7a64-875b-926becb7401d","","null","
                <div class=""stimulus-container"">
                    <img src=""images/causal_sequence/dog_causal/dog_causal_2.png"" class=""exp-image"">
                    <div class=""question-area""></div> 
                </div>","null","","","","","","","","","","","","",""
"","","","","","html-button-response","20","110559","0.0-20.0","F6586134F687435A9064E1C721EBC99F","019d65fc-a8a6-750f-bd9b-9b905bda52ed","019d65e4-5dda-7a64-875b-926becb7401d","","498","
                <div class=""stimulus-container"">
                    <img src=""images/causal_sequence/dog_causal/dog_causal_2.png"" class=""exp-image"">
                    <div class=""question-area"">
                        <p style=""font-size: 20px; font-weight: bold; margin: 0;"">Is there a person in this image?</p>
                    </div>
                </div>","0","main_experiment_trial","2","dog_causal","causal_sequence","chronological","","","","","","","",""
"","","","","","html-keyboard-response","21","115564","0.0-21.0","F6586134F687435A9064E1C721EBC99F","019d65fc-a8a6-750f-bd9b-9b905bda52ed","019d65e4-5dda-7a64-875b-926becb7401d","","null","
                <div class=""stimulus-container"">
                    <img src=""images/causal_sequence/dog_causal/dog_causal_3.png"" class=""exp-image"">
                    <div class=""question-area""></div> 
                </div>","null","","","","","","","","","","","","",""
"","","","","","html-button-response","22","116303","0.0-22.0","F6586134F687435A9064E1C721EBC99F","019d65fc-a8a6-750f-bd9b-9b905bda52ed","019d65e4-5dda-7a64-875b-926becb7401d","","737","
                <div class=""stimulus-container"">
                    <img src=""images/causal_sequence/dog_causal/dog_causal_3.png"" class=""exp-image"">
                    <div class=""question-area"">
                        <p style=""font-size: 20px; font-weight: bold; margin: 0;"">Is there a person in this image?</p>
                    </div>
                </div>","0","main_experiment_trial","3","dog_causal","causal_sequence","chronological","","","","","","","",""
"","","","","","html-keyboard-response","23","121313","0.0-23.0","F6586134F687435A9064E1C721EBC99F","019d65fc-a8a6-750f-bd9b-9b905bda52ed","019d65e4-5dda-7a64-875b-926becb7401d","","null","
                <div class=""stimulus-container"">
                    <img src=""images/causal_sequence/dog_causal/dog_causal_4.png"" class=""exp-image"">
                    <div class=""question-area""></div> 
                </div>","null","","","","","","","","","","","","",""
"","","","","","html-button-response","24","121721","0.0-24.0","F6586134F687435A9064E1C721EBC99F","019d65fc-a8a6-750f-bd9b-9b905bda52ed","019d65e4-5dda-7a64-875b-926becb7401d","","407","
                <div class=""stimulus-container"">
                    <img src=""images/causal_sequence/dog_causal/dog_causal_4.png"" class=""exp-image"">
                    <div class=""question-area"">
                        <p style=""font-size: 20px; font-weight: bold; margin: 0;"">Is there a person in this image?</p>
                    </div>
                </div>","0","main_experiment_trial","4","dog_causal","causal_sequence","chronological","","","","","","","",""
"","","","","","html-keyboard-response","25","126731","0.0-25.0","F6586134F687435A9064E1C721EBC99F","019d65fc-a8a6-750f-bd9b-9b905bda52ed","019d65e4-5dda-7a64-875b-926becb7401d","","null","
                <div class=""stimulus-container"">
                    <img src=""images/causal_sequence/dog_causal/dog_causal_5.png"" class=""exp-image"">
                    <div class=""question-area""></div> 
                </div>","null","","","","","","","","","","","","",""
"","","","","","html-button-response","26","127221","0.0-26.0","F6586134F687435A9064E1C721EBC99F","019d65fc-a8a6-750f-bd9b-9b905bda52ed","019d65e4-5dda-7a64-875b-926becb7401d","","489","
                <div class=""stimulus-container"">
                    <img src=""images/causal_sequence/dog_causal/dog_causal_5.png"" class=""exp-image"">
                    <div class=""question-area"">
                        <p style=""font-size: 20px; font-weight: bold; margin: 0;"">Is there a person in this image?</p>
                    </div>
                </div>","0","main_experiment_trial","5","dog_causal","causal_sequence","chronological","","","","","","","",""
"","","","","","html-keyboard-response","27","132232","0.0-27.0","F6586134F687435A9064E1C721EBC99F","019d65fc-a8a6-750f-bd9b-9b905bda52ed","019d65e4-5dda-7a64-875b-926becb7401d","","null","
                <div class=""stimulus-container"">
                    <img src=""images/causal_sequence/dog_causal/dog_causal_6.png"" class=""exp-image"">
                    <div class=""question-area""></div> 
                </div>","null","","","","","","","","","","","","",""
"","","","","","html-button-response","28","132743","0.0-28.0","F6586134F687435A9064E1C721EBC99F","019d65fc-a8a6-750f-bd9b-9b905bda52ed","019d65e4-5dda-7a64-875b-926becb7401d","","509","
                <div class=""stimulus-container"">
                    <img src=""images/causal_sequence/dog_causal/dog_causal_6.png"" class=""exp-image"">
                    <div class=""question-area"">
                        <p style=""font-size: 20px; font-weight: bold; margin: 0;"">Is there a person in this image?</p>
                    </div>
                </div>","0","main_experiment_trial","6","dog_causal","causal_sequence","chronological","","","","","","","",""
"","","","","","html-keyboard-response","29","137750","0.0-29.0","F6586134F687435A9064E1C721EBC99F","019d65fc-a8a6-750f-bd9b-9b905bda52ed","019d65e4-5dda-7a64-875b-926becb7401d","","null","
                <div class=""stimulus-container"">
                    <img src=""images/causal_sequence/dog_causal/dog_causal_7.png"" class=""exp-image"">
                    <div class=""question-area""></div> 
                </div>","null","","","","","","","","","","","","",""
"","","","","","html-button-response","30","138467","0.0-30.0","F6586134F687435A9064E1C721EBC99F","019d65fc-a8a6-750f-bd9b-9b905bda52ed","019d65e4-5dda-7a64-875b-926becb7401d","","716","
                <div class=""stimulus-container"">
                    <img src=""images/causal_sequence/dog_causal/dog_causal_7.png"" class=""exp-image"">
                    <div class=""question-area"">
                        <p style=""font-size: 20px; font-weight: bold; margin: 0;"">Is there a person in this image?</p>
                    </div>
                </div>","0","main_experiment_trial","7","dog_causal","causal_sequence","chronological","","","","","","","",""
"","","","","","html-keyboard-response","31","143482","0.0-31.0","F6586134F687435A9064E1C721EBC99F","019d65fc-a8a6-750f-bd9b-9b905bda52ed","019d65e4-5dda-7a64-875b-926becb7401d","","null","
                <div class=""stimulus-container"">
                    <img src=""images/causal_sequence/dog_causal/dog_causal_8.png"" class=""exp-image"">
                    <div class=""question-area""></div> 
                </div>","null","","","","","","","","","","","","",""
"","","","","","html-button-response","32","143995","0.0-32.0","F6586134F687435A9064E1C721EBC99F","019d65fc-a8a6-750f-bd9b-9b905bda52ed","019d65e4-5dda-7a64-875b-926becb7401d","","511","
                <div class=""stimulus-container"">
                    <img src=""images/causal_sequence/dog_causal/dog_causal_8.png"" class=""exp-image"">
                    <div class=""question-area"">
                        <p style=""font-size: 20px; font-weight: bold; margin: 0;"">Is there a person in this image?</p>
                    </div>
                </div>","0","main_experiment_trial","8","dog_causal","causal_sequence","chronological","","","","","","","",""
"","","","","","html-keyboard-response","33","148998","0.0-33.0","F6586134F687435A9064E1C721EBC99F","019d65fc-a8a6-750f-bd9b-9b905bda52ed","019d65e4-5dda-7a64-875b-926becb7401d","","null","
                <div class=""stimulus-container"">
                    <img src=""images/causal_sequence/dog_causal/dog_causal_9.png"" class=""exp-image"">
                    <div class=""question-area""></div> 
                </div>","null","","","","","","","","","","","","",""
"","","","","","html-button-response","34","149406","0.0-34.0","F6586134F687435A9064E1C721EBC99F","019d65fc-a8a6-750f-bd9b-9b905bda52ed","019d65e4-5dda-7a64-875b-926becb7401d","","406","
                <div class=""stimulus-container"">
                    <img src=""images/causal_sequence/dog_causal/dog_causal_9.png"" class=""exp-image"">
                    <div class=""question-area"">
                        <p style=""font-size: 20px; font-weight: bold; margin: 0;"">Is there a person in this image?</p>
                    </div>
                </div>","0","main_experiment_trial","9","dog_causal","causal_sequence","chronological","","","","","","","",""
"","","","","","html-keyboard-response","35","154416","0.0-35.0","F6586134F687435A9064E1C721EBC99F","019d65fc-a8a6-750f-bd9b-9b905bda52ed","019d65e4-5dda-7a64-875b-926becb7401d","","null","
                <div class=""stimulus-container"">
                    <img src=""images/causal_sequence/dog_causal/dog_causal_ten.png"" class=""exp-image"">
                    <div class=""question-area""></div> 
                </div>","null","","","","","","","","","","","","",""
"","","","","","html-button-response","36","154878","0.0-36.0","F6586134F687435A9064E1C721EBC99F","019d65fc-a8a6-750f-bd9b-9b905bda52ed","019d65e4-5dda-7a64-875b-926becb7401d","","461","
                <div class=""stimulus-container"">
                    <img src=""images/causal_sequence/dog_causal/dog_causal_ten.png"" class=""exp-image"">
                    <div class=""question-area"">
                        <p style=""font-size: 20px; font-weight: bold; margin: 0;"">Is there a person in this image?</p>
                    </div>
                </div>","0","main_experiment_trial","ten","dog_causal","causal_sequence","chronological","","","","","","","",""
"","","","","","html-keyboard-response","37","159883","0.0-37.0","F6586134F687435A9064E1C721EBC99F","019d65fc-a8a6-750f-bd9b-9b905bda52ed","019d65e4-5dda-7a64-875b-926becb7401d","","null","<div style=""background-color: white; width: 100vw; height: 100vh;""></div>","null","","","","","","","","","","","","",""
"","","","","","html-keyboard-response","38","164888","0.0-38.0","F6586134F687435A9064E1C721EBC99F","019d65fc-a8a6-750f-bd9b-9b905bda52ed","019d65e4-5dda-7a64-875b-926becb7401d","","null","
                <div class=""stimulus-container"">
                    <img src=""images/schematic_sequence/flight_scheme/flight_scheme_1.png"" class=""exp-image"">
                    <div class=""question-area""></div> 
                </div>","null","","","","","","","","","","","","",""
"","","","","","html-button-response","39","166012","0.0-39.0","F6586134F687435A9064E1C721EBC99F","019d65fc-a8a6-750f-bd9b-9b905bda52ed","019d65e4-5dda-7a64-875b-926becb7401d","","1123","
                <div class=""stimulus-container"">
                    <img src=""images/schematic_sequence/flight_scheme/flight_scheme_1.png"" class=""exp-image"">
                    <div class=""question-area"">
                        <p style=""font-size: 20px; font-weight: bold; margin: 0;"">Is there a person in this image?</p>
                    </div>
                </div>","0","main_experiment_trial","1","flight_scheme","schematic_sequence","chronological","","","","","","","",""
"","","","","","html-keyboard-response","40","171017","0.0-40.0","F6586134F687435A9064E1C721EBC99F","019d65fc-a8a6-750f-bd9b-9b905bda52ed","019d65e4-5dda-7a64-875b-926becb7401d","","null","
                <div class=""stimulus-container"">
                    <img src=""images/schematic_sequence/flight_scheme/flight_scheme_2.png"" class=""exp-image"">
                    <div class=""question-area""></div> 
                </div>","null","","","","","","","","","","","","",""
"","","","","","html-button-response","41","171617","0.0-41.0","F6586134F687435A9064E1C721EBC99F","019d65fc-a8a6-750f-bd9b-9b905bda52ed","019d65e4-5dda-7a64-875b-926becb7401d","","599","
                <div class=""stimulus-container"">
                    <img src=""images/schematic_sequence/flight_scheme/flight_scheme_2.png"" class=""exp-image"">
                    <div class=""question-area"">
                        <p style=""font-size: 20px; font-weight: bold; margin: 0;"">Is there a person in this image?</p>
                    </div>
                </div>","1","main_experiment_trial","2","flight_scheme","schematic_sequence","chronological","","","","","","","",""
"","","","","","html-keyboard-response","42","176630","0.0-42.0","F6586134F687435A9064E1C721EBC99F","019d65fc-a8a6-750f-bd9b-9b905bda52ed","019d65e4-5dda-7a64-875b-926becb7401d","","null","
                <div class=""stimulus-container"">
                    <img src=""images/schematic_sequence/flight_scheme/flight_scheme_3.png"" class=""exp-image"">
                    <div class=""question-area""></div> 
                </div>","null","","","","","","","","","","","","",""
"","","","","","html-button-response","43","177592","0.0-43.0","F6586134F687435A9064E1C721EBC99F","019d65fc-a8a6-750f-bd9b-9b905bda52ed","019d65e4-5dda-7a64-875b-926becb7401d","","960","
                <div class=""stimulus-container"">
                    <img src=""images/schematic_sequence/flight_scheme/flight_scheme_3.png"" class=""exp-image"">
                    <div class=""question-area"">
                        <p style=""font-size: 20px; font-weight: bold; margin: 0;"">Is there a person in this image?</p>
                    </div>
                </div>","0","main_experiment_trial","3","flight_scheme","schematic_sequence","chronological","","","","","","","",""
"","","","","","html-keyboard-response","44","182595","0.0-44.0","F6586134F687435A9064E1C721EBC99F","019d65fc-a8a6-750f-bd9b-9b905bda52ed","019d65e4-5dda-7a64-875b-926becb7401d","","null","
                <div class=""stimulus-container"">
                    <img src=""images/schematic_sequence/flight_scheme/flight_scheme_4.png"" class=""exp-image"">
                    <div class=""question-area""></div> 
                </div>","null","","","","","","","","","","","","",""
"","","","","","html-button-response","45","183205","0.0-45.0","F6586134F687435A9064E1C721EBC99F","019d65fc-a8a6-750f-bd9b-9b905bda52ed","019d65e4-5dda-7a64-875b-926becb7401d","","609","
                <div class=""stimulus-container"">
                    <img src=""images/schematic_sequence/flight_scheme/flight_scheme_4.png"" class=""exp-image"">
                    <div class=""question-area"">
                        <p style=""font-size: 20px; font-weight: bold; margin: 0;"">Is there a person in this image?</p>
                    </div>
                </div>","0","main_experiment_trial","4","flight_scheme","schematic_sequence","chronological","","","","","","","",""
"","","","","","html-keyboard-response","46","188210","0.0-46.0","F6586134F687435A9064E1C721EBC99F","019d65fc-a8a6-750f-bd9b-9b905bda52ed","019d65e4-5dda-7a64-875b-926becb7401d","","null","
                <div class=""stimulus-container"">
                    <img src=""images/schematic_sequence/flight_scheme/flight_scheme_5.png"" class=""exp-image"">
                    <div class=""question-area""></div> 
                </div>","null","","","","","","","","","","","","",""
"","","","","","html-button-response","47","188650","0.0-47.0","F6586134F687435A9064E1C721EBC99F","019d65fc-a8a6-750f-bd9b-9b905bda52ed","019d65e4-5dda-7a64-875b-926becb7401d","","438","
                <div class=""stimulus-container"">
                    <img src=""images/schematic_sequence/flight_scheme/flight_scheme_5.png"" class=""exp-image"">
                    <div class=""question-area"">
                        <p style=""font-size: 20px; font-weight: bold; margin: 0;"">Is there a person in this image?</p>
                    </div>
                </div>","0","main_experiment_trial","5","flight_scheme","schematic_sequence","chronological","","","","","","","",""
"","","","","","html-keyboard-response","48","193651","0.0-48.0","F6586134F687435A9064E1C721EBC99F","019d65fc-a8a6-750f-bd9b-9b905bda52ed","019d65e4-5dda-7a64-875b-926becb7401d","","null","
                <div class=""stimulus-container"">
                    <img src=""images/schematic_sequence/flight_scheme/flight_scheme_6.png"" class=""exp-image"">
                    <div class=""question-area""></div> 
                </div>","null","","","","","","","","","","","","",""
"","","","","","html-button-response","49","194122","0.0-49.0","F6586134F687435A9064E1C721EBC99F","019d65fc-a8a6-750f-bd9b-9b905bda52ed","019d65e4-5dda-7a64-875b-926becb7401d","","470","
                <div class=""stimulus-container"">
                    <img src=""images/schematic_sequence/flight_scheme/flight_scheme_6.png"" class=""exp-image"">
                    <div class=""question-area"">
                        <p style=""font-size: 20px; font-weight: bold; margin: 0;"">Is there a person in this image?</p>
                    </div>
                </div>","1","main_experiment_trial","6","flight_scheme","schematic_sequence","chronological","","","","","","","",""
"","","","","","html-keyboard-response","50","199128","0.0-50.0","F6586134F687435A9064E1C721EBC99F","019d65fc-a8a6-750f-bd9b-9b905bda52ed","019d65e4-5dda-7a64-875b-926becb7401d","","null","
                <div class=""stimulus-container"">
                    <img src=""images/schematic_sequence/flight_scheme/flight_scheme_7.png"" class=""exp-image"">
                    <div class=""question-area""></div> 
                </div>","null","","","","","","","","","","","","",""
"","","","","","html-button-response","51","199671","0.0-51.0","F6586134F687435A9064E1C721EBC99F","019d65fc-a8a6-750f-bd9b-9b905bda52ed","019d65e4-5dda-7a64-875b-926becb7401d","","541","
                <div class=""stimulus-container"">
                    <img src=""images/schematic_sequence/flight_scheme/flight_scheme_7.png"" class=""exp-image"">
                    <div class=""question-area"">
                        <p style=""font-size: 20px; font-weight: bold; margin: 0;"">Is there a person in this image?</p>
                    </div>
                </div>","1","main_experiment_trial","7","flight_scheme","schematic_sequence","chronological","","","","","","","",""
"","","","","","html-keyboard-response","52","204686","0.0-52.0","F6586134F687435A9064E1C721EBC99F","019d65fc-a8a6-750f-bd9b-9b905bda52ed","019d65e4-5dda-7a64-875b-926becb7401d","","null","
                <div class=""stimulus-container"">
                    <img src=""images/schematic_sequence/flight_scheme/flight_scheme_8.png"" class=""exp-image"">
                    <div class=""question-area""></div> 
                </div>","null","","","","","","","","","","","","",""
"","","","","","html-button-response","53","205310","0.0-53.0","F6586134F687435A9064E1C721EBC99F","019d65fc-a8a6-750f-bd9b-9b905bda52ed","019d65e4-5dda-7a64-875b-926becb7401d","","623","
                <div class=""stimulus-container"">
                    <img src=""images/schematic_sequence/flight_scheme/flight_scheme_8.png"" class=""exp-image"">
                    <div class=""question-area"">
                        <p style=""font-size: 20px; font-weight: bold; margin: 0;"">Is there a person in this image?</p>
                    </div>
                </div>","1","main_experiment_trial","8","flight_scheme","schematic_sequence","chronological","","","","","","","",""
"","","","","","html-keyboard-response","54","210318","0.0-54.0","F6586134F687435A9064E1C721EBC99F","019d65fc-a8a6-750f-bd9b-9b905bda52ed","019d65e4-5dda-7a64-875b-926becb7401d","","null","
                <div class=""stimulus-container"">
                    <img src=""images/schematic_sequence/flight_scheme/flight_scheme_9.png"" class=""exp-image"">
                    <div class=""question-area""></div> 
                </div>","null","","","","","","","","","","","","",""
"","","","","","html-button-response","55","210754","0.0-55.0","F6586134F687435A9064E1C721EBC99F","019d65fc-a8a6-750f-bd9b-9b905bda52ed","019d65e4-5dda-7a64-875b-926becb7401d","","434","
                <div class=""stimulus-container"">
                    <img src=""images/schematic_sequence/flight_scheme/flight_scheme_9.png"" class=""exp-image"">
                    <div class=""question-area"">
                        <p style=""font-size: 20px; font-weight: bold; margin: 0;"">Is there a person in this image?</p>
                    </div>
                </div>","0","main_experiment_trial","9","flight_scheme","schematic_sequence","chronological","","","","","","","",""
"","","","","","html-keyboard-response","56","215765","0.0-56.0","F6586134F687435A9064E1C721EBC99F","019d65fc-a8a6-750f-bd9b-9b905bda52ed","019d65e4-5dda-7a64-875b-926becb7401d","","null","
                <div class=""stimulus-container"">
                    <img src=""images/schematic_sequence/flight_scheme/flight_scheme_ten.png"" class=""exp-image"">
                    <div class=""question-area""></div> 
                </div>","null","","","","","","","","","","","","",""
"","","","","","html-button-response","57","216184","0.0-57.0","F6586134F687435A9064E1C721EBC99F","019d65fc-a8a6-750f-bd9b-9b905bda52ed","019d65e4-5dda-7a64-875b-926becb7401d","","417","
                <div class=""stimulus-container"">
                    <img src=""images/schematic_sequence/flight_scheme/flight_scheme_ten.png"" class=""exp-image"">
                    <div class=""question-area"">
                        <p style=""font-size: 20px; font-weight: bold; margin: 0;"">Is there a person in this image?</p>
                    </div>
                </div>","0","main_experiment_trial","ten","flight_scheme","schematic_sequence","chronological","","","","","","","",""
"","","","","","html-keyboard-response","58","221195","0.0-58.0","F6586134F687435A9064E1C721EBC99F","019d65fc-a8a6-750f-bd9b-9b905bda52ed","019d65e4-5dda-7a64-875b-926becb7401d","","null","<div style=""background-color: white; width: 100vw; height: 100vh;""></div>","null","","","","","","","","","","","","",""
"","","","","","html-keyboard-response","59","226209","0.0-59.0","F6586134F687435A9064E1C721EBC99F","019d65fc-a8a6-750f-bd9b-9b905bda52ed","019d65e4-5dda-7a64-875b-926becb7401d","","null","
                <div class=""stimulus-container"">
                    <img src=""images/schematic_sequence/interview_scheme/interview_scheme_1.png"" class=""exp-image"">
                    <div class=""question-area""></div> 
                </div>","null","","","","","","","","","","","","",""
"","","","","","html-button-response","60","227045","0.0-60.0","F6586134F687435A9064E1C721EBC99F","019d65fc-a8a6-750f-bd9b-9b905bda52ed","019d65e4-5dda-7a64-875b-926becb7401d","","834","
                <div class=""stimulus-container"">
                    <img src=""images/schematic_sequence/interview_scheme/interview_scheme_1.png"" class=""exp-image"">
                    <div class=""question-area"">
                        <p style=""font-size: 20px; font-weight: bold; margin: 0;"">Is there a person in this image?</p>
                    </div>
                </div>","1","main_experiment_trial","1","interview_scheme","schematic_sequence","chronological","","","","","","","",""
"","","","","","html-keyboard-response","61","232058","0.0-61.0","F6586134F687435A9064E1C721EBC99F","019d65fc-a8a6-750f-bd9b-9b905bda52ed","019d65e4-5dda-7a64-875b-926becb7401d","","null","
                <div class=""stimulus-container"">
                    <img src=""images/schematic_sequence/interview_scheme/interview_scheme_2.png"" class=""exp-image"">
                    <div class=""question-area""></div> 
                </div>","null","","","","","","","","","","","","",""
"","","","","","html-button-response","62","232748","0.0-62.0","F6586134F687435A9064E1C721EBC99F","019d65fc-a8a6-750f-bd9b-9b905bda52ed","019d65e4-5dda-7a64-875b-926becb7401d","","688","
                <div class=""stimulus-container"">
                    <img src=""images/schematic_sequence/interview_scheme/interview_scheme_2.png"" class=""exp-image"">
                    <div class=""question-area"">
                        <p style=""font-size: 20px; font-weight: bold; margin: 0;"">Is there a person in this image?</p>
                    </div>
                </div>","0","main_experiment_trial","2","interview_scheme","schematic_sequence","chronological","","","","","","","",""
"","","","","","html-keyboard-response","63","237764","0.0-63.0","F6586134F687435A9064E1C721EBC99F","019d65fc-a8a6-750f-bd9b-9b905bda52ed","019d65e4-5dda-7a64-875b-926becb7401d","","null","
                <div class=""stimulus-container"">
                    <img src=""images/schematic_sequence/interview_scheme/interview_scheme_3.png"" class=""exp-image"">
                    <div class=""question-area""></div> 
                </div>","null","","","","","","","","","","","","",""
"","","","","","html-button-response","64","238360","0.0-64.0","F6586134F687435A9064E1C721EBC99F","019d65fc-a8a6-750f-bd9b-9b905bda52ed","019d65e4-5dda-7a64-875b-926becb7401d","","594","
                <div class=""stimulus-container"">
                    <img src=""images/schematic_sequence/interview_scheme/interview_scheme_3.png"" class=""exp-image"">
                    <div class=""question-area"">
                        <p style=""font-size: 20px; font-weight: bold; margin: 0;"">Is there a person in this image?</p>
                    </div>
                </div>","1","main_experiment_trial","3","interview_scheme","schematic_sequence","chronological","","","","","","","",""
"","","","","","html-keyboard-response","65","243369","0.0-65.0","F6586134F687435A9064E1C721EBC99F","019d65fc-a8a6-750f-bd9b-9b905bda52ed","019d65e4-5dda-7a64-875b-926becb7401d","","null","
                <div class=""stimulus-container"">
                    <img src=""images/schematic_sequence/interview_scheme/interview_scheme_4.png"" class=""exp-image"">
                    <div class=""question-area""></div> 
                </div>","null","","","","","","","","","","","","",""
"","","","","","html-button-response","66","243791","0.0-66.0","F6586134F687435A9064E1C721EBC99F","019d65fc-a8a6-750f-bd9b-9b905bda52ed","019d65e4-5dda-7a64-875b-926becb7401d","","420","
                <div class=""stimulus-container"">
                    <img src=""images/schematic_sequence/interview_scheme/interview_scheme_4.png"" class=""exp-image"">
                    <div class=""question-area"">
                        <p style=""font-size: 20px; font-weight: bold; margin: 0;"">Is there a person in this image?</p>
                    </div>
                </div>","1","main_experiment_trial","4","interview_scheme","schematic_sequence","chronological","","","","","","","",""
"","","","","","html-keyboard-response","67","248802","0.0-67.0","F6586134F687435A9064E1C721EBC99F","019d65fc-a8a6-750f-bd9b-9b905bda52ed","019d65e4-5dda-7a64-875b-926becb7401d","","null","
                <div class=""stimulus-container"">
                    <img src=""images/schematic_sequence/interview_scheme/interview_scheme_5.png"" class=""exp-image"">
                    <div class=""question-area""></div> 
                </div>","null","","","","","","","","","","","","",""
"","","","","","html-button-response","68","249695","0.0-68.0","F6586134F687435A9064E1C721EBC99F","019d65fc-a8a6-750f-bd9b-9b905bda52ed","019d65e4-5dda-7a64-875b-926becb7401d","","892","
                <div class=""stimulus-container"">
                    <img src=""images/schematic_sequence/interview_scheme/interview_scheme_5.png"" class=""exp-image"">
                    <div class=""question-area"">
                        <p style=""font-size: 20px; font-weight: bold; margin: 0;"">Is there a person in this image?</p>
                    </div>
                </div>","0","main_experiment_trial","5","interview_scheme","schematic_sequence","chronological","","","","","","","",""
"","","","","","html-keyboard-response","69","254698","0.0-69.0","F6586134F687435A9064E1C721EBC99F","019d65fc-a8a6-750f-bd9b-9b905bda52ed","019d65e4-5dda-7a64-875b-926becb7401d","","null","
                <div class=""stimulus-container"">
                    <img src=""images/schematic_sequence/interview_scheme/interview_scheme_6.png"" class=""exp-image"">
                    <div class=""question-area""></div> 
                </div>","null","","","","","","","","","","","","",""
"","","","","","html-button-response","70","255476","0.0-70.0","F6586134F687435A9064E1C721EBC99F","019d65fc-a8a6-750f-bd9b-9b905bda52ed","019d65e4-5dda-7a64-875b-926becb7401d","","777","
                <div class=""stimulus-container"">
                    <img src=""images/schematic_sequence/interview_scheme/interview_scheme_6.png"" class=""exp-image"">
                    <div class=""question-area"">
                        <p style=""font-size: 20px; font-weight: bold; margin: 0;"">Is there a person in this image?</p>
                    </div>
                </div>","0","main_experiment_trial","6","interview_scheme","schematic_sequence","chronological","","","","","","","",""
"","","","","","html-keyboard-response","71","260486","0.0-71.0","F6586134F687435A9064E1C721EBC99F","019d65fc-a8a6-750f-bd9b-9b905bda52ed","019d65e4-5dda-7a64-875b-926becb7401d","","null","
                <div class=""stimulus-container"">
                    <img src=""images/schematic_sequence/interview_scheme/interview_scheme_7.png"" class=""exp-image"">
                    <div class=""question-area""></div> 
                </div>","null","","","","","","","","","","","","",""
"","","","","","html-button-response","72","260908","0.0-72.0","F6586134F687435A9064E1C721EBC99F","019d65fc-a8a6-750f-bd9b-9b905bda52ed","019d65e4-5dda-7a64-875b-926becb7401d","","421","
                <div class=""stimulus-container"">
                    <img src=""images/schematic_sequence/interview_scheme/interview_scheme_7.png"" class=""exp-image"">
                    <div class=""question-area"">
                        <p style=""font-size: 20px; font-weight: bold; margin: 0;"">Is there a person in this image?</p>
                    </div>
                </div>","0","main_experiment_trial","7","interview_scheme","schematic_sequence","chronological","","","","","","","",""
"","","","","","html-keyboard-response","73","265917","0.0-73.0","F6586134F687435A9064E1C721EBC99F","019d65fc-a8a6-750f-bd9b-9b905bda52ed","019d65e4-5dda-7a64-875b-926becb7401d","","null","
                <div class=""stimulus-container"">
                    <img src=""images/schematic_sequence/interview_scheme/interview_scheme_8.png"" class=""exp-image"">
                    <div class=""question-area""></div> 
                </div>","null","","","","","","","","","","","","",""
"","","","","","html-button-response","74","267872","0.0-74.0","F6586134F687435A9064E1C721EBC99F","019d65fc-a8a6-750f-bd9b-9b905bda52ed","019d65e4-5dda-7a64-875b-926becb7401d","","1953","
                <div class=""stimulus-container"">
                    <img src=""images/schematic_sequence/interview_scheme/interview_scheme_8.png"" class=""exp-image"">
                    <div class=""question-area"">
                        <p style=""font-size: 20px; font-weight: bold; margin: 0;"">Is there a person in this image?</p>
                    </div>
                </div>","0","main_experiment_trial","8","interview_scheme","schematic_sequence","chronological","","","","","","","",""
"","","","","","html-keyboard-response","75","272888","0.0-75.0","F6586134F687435A9064E1C721EBC99F","019d65fc-a8a6-750f-bd9b-9b905bda52ed","019d65e4-5dda-7a64-875b-926becb7401d","","null","
                <div class=""stimulus-container"">
                    <img src=""images/schematic_sequence/interview_scheme/interview_scheme_9.png"" class=""exp-image"">
                    <div class=""question-area""></div> 
                </div>","null","","","","","","","","","","","","",""
"","","","","","html-button-response","76","273338","0.0-76.0","F6586134F687435A9064E1C721EBC99F","019d65fc-a8a6-750f-bd9b-9b905bda52ed","019d65e4-5dda-7a64-875b-926becb7401d","","449","
                <div class=""stimulus-container"">
                    <img src=""images/schematic_sequence/interview_scheme/interview_scheme_9.png"" class=""exp-image"">
                    <div class=""question-area"">
                        <p style=""font-size: 20px; font-weight: bold; margin: 0;"">Is there a person in this image?</p>
                    </div>
                </div>","0","main_experiment_trial","9","interview_scheme","schematic_sequence","chronological","","","","","","","",""
"","","","","","html-keyboard-response","77","278353","0.0-77.0","F6586134F687435A9064E1C721EBC99F","019d65fc-a8a6-750f-bd9b-9b905bda52ed","019d65e4-5dda-7a64-875b-926becb7401d","","null","
                <div class=""stimulus-container"">
                    <img src=""images/schematic_sequence/interview_scheme/interview_scheme_ten.png"" class=""exp-image"">
                    <div class=""question-area""></div> 
                </div>","null","","","","","","","","","","","","",""
"","","","","","html-button-response","78","278776","0.0-78.0","F6586134F687435A9064E1C721EBC99F","019d65fc-a8a6-750f-bd9b-9b905bda52ed","019d65e4-5dda-7a64-875b-926becb7401d","","421","
                <div class=""stimulus-container"">
                    <img src=""images/schematic_sequence/interview_scheme/interview_scheme_ten.png"" class=""exp-image"">
                    <div class=""question-area"">
                        <p style=""font-size: 20px; font-weight: bold; margin: 0;"">Is there a person in this image?</p>
                    </div>
                </div>","0","main_experiment_trial","ten","interview_scheme","schematic_sequence","chronological","","","","","","","",""
"","","","","","html-keyboard-response","79","283781","0.0-79.0","F6586134F687435A9064E1C721EBC99F","019d65fc-a8a6-750f-bd9b-9b905bda52ed","019d65e4-5dda-7a64-875b-926becb7401d","","null","<div style=""background-color: white; width: 100vw; height: 100vh;""></div>","null","","","","","","","","","","","","",""
"","","","","","html-keyboard-response","80","288783","0.0-80.0","F6586134F687435A9064E1C721EBC99F","019d65fc-a8a6-750f-bd9b-9b905bda52ed","019d65e4-5dda-7a64-875b-926becb7401d","","null","
                <div class=""stimulus-container"">
                    <img src=""images/schematic_sequence/restaurant_scheme/restaurant_scheme_1.png"" class=""exp-image"">
                    <div class=""question-area""></div> 
                </div>","null","","","","","","","","","","","","",""
"","","","","","html-button-response","81","289185","0.0-81.0","F6586134F687435A9064E1C721EBC99F","019d65fc-a8a6-750f-bd9b-9b905bda52ed","019d65e4-5dda-7a64-875b-926becb7401d","","401","
                <div class=""stimulus-container"">
                    <img src=""images/schematic_sequence/restaurant_scheme/restaurant_scheme_1.png"" class=""exp-image"">
                    <div class=""question-area"">
                        <p style=""font-size: 20px; font-weight: bold; margin: 0;"">Is there a person in this image?</p>
                    </div>
                </div>","0","main_experiment_trial","1","restaurant_scheme","schematic_sequence","chronological","","","","","","","",""
"","","","","","html-keyboard-response","82","294196","0.0-82.0","F6586134F687435A9064E1C721EBC99F","019d65fc-a8a6-750f-bd9b-9b905bda52ed","019d65e4-5dda-7a64-875b-926becb7401d","","null","
                <div class=""stimulus-container"">
                    <img src=""images/schematic_sequence/restaurant_scheme/restaurant_scheme_2.png"" class=""exp-image"">
                    <div class=""question-area""></div> 
                </div>","null","","","","","","","","","","","","",""
"","","","","","html-button-response","83","294660","0.0-83.0","F6586134F687435A9064E1C721EBC99F","019d65fc-a8a6-750f-bd9b-9b905bda52ed","019d65e4-5dda-7a64-875b-926becb7401d","","462","
                <div class=""stimulus-container"">
                    <img src=""images/schematic_sequence/restaurant_scheme/restaurant_scheme_2.png"" class=""exp-image"">
                    <div class=""question-area"">
                        <p style=""font-size: 20px; font-weight: bold; margin: 0;"">Is there a person in this image?</p>
                    </div>
                </div>","1","main_experiment_trial","2","restaurant_scheme","schematic_sequence","chronological","","","","","","","",""
"","","","","","html-keyboard-response","84","299668","0.0-84.0","F6586134F687435A9064E1C721EBC99F","019d65fc-a8a6-750f-bd9b-9b905bda52ed","019d65e4-5dda-7a64-875b-926becb7401d","","null","
                <div class=""stimulus-container"">
                    <img src=""images/schematic_sequence/restaurant_scheme/restaurant_scheme_3.png"" class=""exp-image"">
                    <div class=""question-area""></div> 
                </div>","null","","","","","","","","","","","","",""
"","","","","","html-button-response","85","300084","0.0-85.0","F6586134F687435A9064E1C721EBC99F","019d65fc-a8a6-750f-bd9b-9b905bda52ed","019d65e4-5dda-7a64-875b-926becb7401d","","415","
                <div class=""stimulus-container"">
                    <img src=""images/schematic_sequence/restaurant_scheme/restaurant_scheme_3.png"" class=""exp-image"">
                    <div class=""question-area"">
                        <p style=""font-size: 20px; font-weight: bold; margin: 0;"">Is there a person in this image?</p>
                    </div>
                </div>","1","main_experiment_trial","3","restaurant_scheme","schematic_sequence","chronological","","","","","","","",""
"","","","","","html-keyboard-response","86","305092","0.0-86.0","F6586134F687435A9064E1C721EBC99F","019d65fc-a8a6-750f-bd9b-9b905bda52ed","019d65e4-5dda-7a64-875b-926becb7401d","","null","
                <div class=""stimulus-container"">
                    <img src=""images/schematic_sequence/restaurant_scheme/restaurant_scheme_4.png"" class=""exp-image"">
                    <div class=""question-area""></div> 
                </div>","null","","","","","","","","","","","","",""
"","","","","","html-button-response","87","305579","0.0-87.0","F6586134F687435A9064E1C721EBC99F","019d65fc-a8a6-750f-bd9b-9b905bda52ed","019d65e4-5dda-7a64-875b-926becb7401d","","486","
                <div class=""stimulus-container"">
                    <img src=""images/schematic_sequence/restaurant_scheme/restaurant_scheme_4.png"" class=""exp-image"">
                    <div class=""question-area"">
                        <p style=""font-size: 20px; font-weight: bold; margin: 0;"">Is there a person in this image?</p>
                    </div>
                </div>","0","main_experiment_trial","4","restaurant_scheme","schematic_sequence","chronological","","","","","","","",""
"","","","","","html-keyboard-response","88","310586","0.0-88.0","F6586134F687435A9064E1C721EBC99F","019d65fc-a8a6-750f-bd9b-9b905bda52ed","019d65e4-5dda-7a64-875b-926becb7401d","","null","
                <div class=""stimulus-container"">
                    <img src=""images/schematic_sequence/restaurant_scheme/restaurant_scheme_5.png"" class=""exp-image"">
                    <div class=""question-area""></div> 
                </div>","null","","","","","","","","","","","","",""
"","","","","","html-button-response","89","311157","0.0-89.0","F6586134F687435A9064E1C721EBC99F","019d65fc-a8a6-750f-bd9b-9b905bda52ed","019d65e4-5dda-7a64-875b-926becb7401d","","570","
                <div class=""stimulus-container"">
                    <img src=""images/schematic_sequence/restaurant_scheme/restaurant_scheme_5.png"" class=""exp-image"">
                    <div class=""question-area"">
                        <p style=""font-size: 20px; font-weight: bold; margin: 0;"">Is there a person in this image?</p>
                    </div>
                </div>","0","main_experiment_trial","5","restaurant_scheme","schematic_sequence","chronological","","","","","","","",""
"","","","","","html-keyboard-response","90","316167","0.0-90.0","F6586134F687435A9064E1C721EBC99F","019d65fc-a8a6-750f-bd9b-9b905bda52ed","019d65e4-5dda-7a64-875b-926becb7401d","","null","
                <div class=""stimulus-container"">
                    <img src=""images/schematic_sequence/restaurant_scheme/restaurant_scheme_6.png"" class=""exp-image"">
                    <div class=""question-area""></div> 
                </div>","null","","","","","","","","","","","","",""
"","","","","","html-button-response","91","316624","0.0-91.0","F6586134F687435A9064E1C721EBC99F","019d65fc-a8a6-750f-bd9b-9b905bda52ed","019d65e4-5dda-7a64-875b-926becb7401d","","455","
                <div class=""stimulus-container"">
                    <img src=""images/schematic_sequence/restaurant_scheme/restaurant_scheme_6.png"" class=""exp-image"">
                    <div class=""question-area"">
                        <p style=""font-size: 20px; font-weight: bold; margin: 0;"">Is there a person in this image?</p>
                    </div>
                </div>","1","main_experiment_trial","6","restaurant_scheme","schematic_sequence","chronological","","","","","","","",""
"","","","","","html-keyboard-response","92","321636","0.0-92.0","F6586134F687435A9064E1C721EBC99F","019d65fc-a8a6-750f-bd9b-9b905bda52ed","019d65e4-5dda-7a64-875b-926becb7401d","","null","
                <div class=""stimulus-container"">
                    <img src=""images/schematic_sequence/restaurant_scheme/restaurant_scheme_7.png"" class=""exp-image"">
                    <div class=""question-area""></div> 
                </div>","null","","","","","","","","","","","","",""
"","","","","","html-button-response","93","322145","0.0-93.0","F6586134F687435A9064E1C721EBC99F","019d65fc-a8a6-750f-bd9b-9b905bda52ed","019d65e4-5dda-7a64-875b-926becb7401d","","508","
                <div class=""stimulus-container"">
                    <img src=""images/schematic_sequence/restaurant_scheme/restaurant_scheme_7.png"" class=""exp-image"">
                    <div class=""question-area"">
                        <p style=""font-size: 20px; font-weight: bold; margin: 0;"">Is there a person in this image?</p>
                    </div>
                </div>","1","main_experiment_trial","7","restaurant_scheme","schematic_sequence","chronological","","","","","","","",""
"","","","","","html-keyboard-response","94","327151","0.0-94.0","F6586134F687435A9064E1C721EBC99F","019d65fc-a8a6-750f-bd9b-9b905bda52ed","019d65e4-5dda-7a64-875b-926becb7401d","","null","
                <div class=""stimulus-container"">
                    <img src=""images/schematic_sequence/restaurant_scheme/restaurant_scheme_8.png"" class=""exp-image"">
                    <div class=""question-area""></div> 
                </div>","null","","","","","","","","","","","","",""
"","","","","","html-button-response","95","328457","0.0-95.0","F6586134F687435A9064E1C721EBC99F","019d65fc-a8a6-750f-bd9b-9b905bda52ed","019d65e4-5dda-7a64-875b-926becb7401d","","1305","
                <div class=""stimulus-container"">
                    <img src=""images/schematic_sequence/restaurant_scheme/restaurant_scheme_8.png"" class=""exp-image"">
                    <div class=""question-area"">
                        <p style=""font-size: 20px; font-weight: bold; margin: 0;"">Is there a person in this image?</p>
                    </div>
                </div>","0","main_experiment_trial","8","restaurant_scheme","schematic_sequence","chronological","","","","","","","",""
"","","","","","html-keyboard-response","96","333467","0.0-96.0","F6586134F687435A9064E1C721EBC99F","019d65fc-a8a6-750f-bd9b-9b905bda52ed","019d65e4-5dda-7a64-875b-926becb7401d","","null","
                <div class=""stimulus-container"">
                    <img src=""images/schematic_sequence/restaurant_scheme/restaurant_scheme_9.png"" class=""exp-image"">
                    <div class=""question-area""></div> 
                </div>","null","","","","","","","","","","","","",""
"","","","","","html-button-response","97","334021","0.0-97.0","F6586134F687435A9064E1C721EBC99F","019d65fc-a8a6-750f-bd9b-9b905bda52ed","019d65e4-5dda-7a64-875b-926becb7401d","","552","
                <div class=""stimulus-container"">
                    <img src=""images/schematic_sequence/restaurant_scheme/restaurant_scheme_9.png"" class=""exp-image"">
                    <div class=""question-area"">
                        <p style=""font-size: 20px; font-weight: bold; margin: 0;"">Is there a person in this image?</p>
                    </div>
                </div>","0","main_experiment_trial","9","restaurant_scheme","schematic_sequence","chronological","","","","","","","",""
"","","","","","html-keyboard-response","98","339030","0.0-98.0","F6586134F687435A9064E1C721EBC99F","019d65fc-a8a6-750f-bd9b-9b905bda52ed","019d65e4-5dda-7a64-875b-926becb7401d","","null","
                <div class=""stimulus-container"">
                    <img src=""images/schematic_sequence/restaurant_scheme/restaurant_scheme_ten.png"" class=""exp-image"">
                    <div class=""question-area""></div> 
                </div>","null","","","","","","","","","","","","",""
"","","","","","html-button-response","99","339501","0.0-99.0","F6586134F687435A9064E1C721EBC99F","019d65fc-a8a6-750f-bd9b-9b905bda52ed","019d65e4-5dda-7a64-875b-926becb7401d","","471","
                <div class=""stimulus-container"">
                    <img src=""images/schematic_sequence/restaurant_scheme/restaurant_scheme_ten.png"" class=""exp-image"">
                    <div class=""question-area"">
                        <p style=""font-size: 20px; font-weight: bold; margin: 0;"">Is there a person in this image?</p>
                    </div>
                </div>","0","main_experiment_trial","ten","restaurant_scheme","schematic_sequence","chronological","","","","","","","",""
"","","","","","html-keyboard-response","100","344514","0.0-100.0","F6586134F687435A9064E1C721EBC99F","019d65fc-a8a6-750f-bd9b-9b905bda52ed","019d65e4-5dda-7a64-875b-926becb7401d","","null","<div style=""background-color: white; width: 100vw; height: 100vh;""></div>","null","","","","","","","","","","","","",""
"","","","","","html-keyboard-response","101","349516","0.0-101.0","F6586134F687435A9064E1C721EBC99F","019d65fc-a8a6-750f-bd9b-9b905bda52ed","019d65e4-5dda-7a64-875b-926becb7401d","","null","
                <div class=""stimulus-container"">
                    <img src=""images/semantic_sequence/maintaining_a_car_semantic/maintaining_a_car_semantic_1.png"" class=""exp-image"">
                    <div class=""question-area""></div> 
                </div>","null","","","","","","","","","","","","",""
"","","","","","html-button-response","102","349918","0.0-102.0","F6586134F687435A9064E1C721EBC99F","019d65fc-a8a6-750f-bd9b-9b905bda52ed","019d65e4-5dda-7a64-875b-926becb7401d","","400","
                <div class=""stimulus-container"">
                    <img src=""images/semantic_sequence/maintaining_a_car_semantic/maintaining_a_car_semantic_1.png"" class=""exp-image"">
                    <div class=""question-area"">
                        <p style=""font-size: 20px; font-weight: bold; margin: 0;"">Is there a person in this image?</p>
                    </div>
                </div>","0","main_experiment_trial","1","maintaining_a_car_semantic","semantic_sequence","chronological","","","","","","","",""
"","","","","","html-keyboard-response","103","354934","0.0-103.0","F6586134F687435A9064E1C721EBC99F","019d65fc-a8a6-750f-bd9b-9b905bda52ed","019d65e4-5dda-7a64-875b-926becb7401d","","null","
                <div class=""stimulus-container"">
                    <img src=""images/semantic_sequence/maintaining_a_car_semantic/maintaining_a_car_semantic_2.png"" class=""exp-image"">
                    <div class=""question-area""></div> 
                </div>","null","","","","","","","","","","","","",""
"","","","","","html-button-response","104","355377","0.0-104.0","F6586134F687435A9064E1C721EBC99F","019d65fc-a8a6-750f-bd9b-9b905bda52ed","019d65e4-5dda-7a64-875b-926becb7401d","","441","
                <div class=""stimulus-container"">
                    <img src=""images/semantic_sequence/maintaining_a_car_semantic/maintaining_a_car_semantic_2.png"" class=""exp-image"">
                    <div class=""question-area"">
                        <p style=""font-size: 20px; font-weight: bold; margin: 0;"">Is there a person in this image?</p>
                    </div>
                </div>","0","main_experiment_trial","2","maintaining_a_car_semantic","semantic_sequence","chronological","","","","","","","",""
"","","","","","html-keyboard-response","105","360385","0.0-105.0","F6586134F687435A9064E1C721EBC99F","019d65fc-a8a6-750f-bd9b-9b905bda52ed","019d65e4-5dda-7a64-875b-926becb7401d","","null","
                <div class=""stimulus-container"">
                    <img src=""images/semantic_sequence/maintaining_a_car_semantic/maintaining_a_car_semantic_3.png"" class=""exp-image"">
                    <div class=""question-area""></div> 
                </div>","null","","","","","","","","","","","","",""
"","","","","","html-button-response","106","360837","0.0-106.0","F6586134F687435A9064E1C721EBC99F","019d65fc-a8a6-750f-bd9b-9b905bda52ed","019d65e4-5dda-7a64-875b-926becb7401d","","450","
                <div class=""stimulus-container"">
                    <img src=""images/semantic_sequence/maintaining_a_car_semantic/maintaining_a_car_semantic_3.png"" class=""exp-image"">
                    <div class=""question-area"">
                        <p style=""font-size: 20px; font-weight: bold; margin: 0;"">Is there a person in this image?</p>
                    </div>
                </div>","0","main_experiment_trial","3","maintaining_a_car_semantic","semantic_sequence","chronological","","","","","","","",""
"","","","","","html-keyboard-response","107","365844","0.0-107.0","F6586134F687435A9064E1C721EBC99F","019d65fc-a8a6-750f-bd9b-9b905bda52ed","019d65e4-5dda-7a64-875b-926becb7401d","","null","
                <div class=""stimulus-container"">
                    <img src=""images/semantic_sequence/maintaining_a_car_semantic/maintaining_a_car_semantic_4.png"" class=""exp-image"">
                    <div class=""question-area""></div> 
                </div>","null","","","","","","","","","","","","",""
"","","","","","html-button-response","108","366700","0.0-108.0","F6586134F687435A9064E1C721EBC99F","019d65fc-a8a6-750f-bd9b-9b905bda52ed","019d65e4-5dda-7a64-875b-926becb7401d","","854","
                <div class=""stimulus-container"">
                    <img src=""images/semantic_sequence/maintaining_a_car_semantic/maintaining_a_car_semantic_4.png"" class=""exp-image"">
                    <div class=""question-area"">
                        <p style=""font-size: 20px; font-weight: bold; margin: 0;"">Is there a person in this image?</p>
                    </div>
                </div>","0","main_experiment_trial","4","maintaining_a_car_semantic","semantic_sequence","chronological","","","","","","","",""
"","","","","","html-keyboard-response","109","371712","0.0-109.0","F6586134F687435A9064E1C721EBC99F","019d65fc-a8a6-750f-bd9b-9b905bda52ed","019d65e4-5dda-7a64-875b-926becb7401d","","null","
                <div class=""stimulus-container"">
                    <img src=""images/semantic_sequence/maintaining_a_car_semantic/maintaining_a_car_semantic_5.png"" class=""exp-image"">
                    <div class=""question-area""></div> 
                </div>","null","","","","","","","","","","","","",""
"","","","","","html-button-response","110","372578","0.0-110.0","F6586134F687435A9064E1C721EBC99F","019d65fc-a8a6-750f-bd9b-9b905bda52ed","019d65e4-5dda-7a64-875b-926becb7401d","","865","
                <div class=""stimulus-container"">
                    <img src=""images/semantic_sequence/maintaining_a_car_semantic/maintaining_a_car_semantic_5.png"" class=""exp-image"">
                    <div class=""question-area"">
                        <p style=""font-size: 20px; font-weight: bold; margin: 0;"">Is there a person in this image?</p>
                    </div>
                </div>","0","main_experiment_trial","5","maintaining_a_car_semantic","semantic_sequence","chronological","","","","","","","",""
"","","","","","html-keyboard-response","111","377594","0.0-111.0","F6586134F687435A9064E1C721EBC99F","019d65fc-a8a6-750f-bd9b-9b905bda52ed","019d65e4-5dda-7a64-875b-926becb7401d","","null","
                <div class=""stimulus-container"">
                    <img src=""images/semantic_sequence/maintaining_a_car_semantic/maintaining_a_car_semantic_6.png"" class=""exp-image"">
                    <div class=""question-area""></div> 
                </div>","null","","","","","","","","","","","","",""
"","","","","","html-button-response","112","378078","0.0-112.0","F6586134F687435A9064E1C721EBC99F","019d65fc-a8a6-750f-bd9b-9b905bda52ed","019d65e4-5dda-7a64-875b-926becb7401d","","483","
                <div class=""stimulus-container"">
                    <img src=""images/semantic_sequence/maintaining_a_car_semantic/maintaining_a_car_semantic_6.png"" class=""exp-image"">
                    <div class=""question-area"">
                        <p style=""font-size: 20px; font-weight: bold; margin: 0;"">Is there a person in this image?</p>
                    </div>
                </div>","0","main_experiment_trial","6","maintaining_a_car_semantic","semantic_sequence","chronological","","","","","","","",""
"","","","","","html-keyboard-response","113","383082","0.0-113.0","F6586134F687435A9064E1C721EBC99F","019d65fc-a8a6-750f-bd9b-9b905bda52ed","019d65e4-5dda-7a64-875b-926becb7401d","","null","
                <div class=""stimulus-container"">
                    <img src=""images/semantic_sequence/maintaining_a_car_semantic/maintaining_a_car_semantic_7.png"" class=""exp-image"">
                    <div class=""question-area""></div> 
                </div>","null","","","","","","","","","","","","",""
"","","","","","html-button-response","114","383475","0.0-114.0","F6586134F687435A9064E1C721EBC99F","019d65fc-a8a6-750f-bd9b-9b905bda52ed","019d65e4-5dda-7a64-875b-926becb7401d","","392","
                <div class=""stimulus-container"">
                    <img src=""images/semantic_sequence/maintaining_a_car_semantic/maintaining_a_car_semantic_7.png"" class=""exp-image"">
                    <div class=""question-area"">
                        <p style=""font-size: 20px; font-weight: bold; margin: 0;"">Is there a person in this image?</p>
                    </div>
                </div>","0","main_experiment_trial","7","maintaining_a_car_semantic","semantic_sequence","chronological","","","","","","","",""
"","","","","","html-keyboard-response","115","388477","0.0-115.0","F6586134F687435A9064E1C721EBC99F","019d65fc-a8a6-750f-bd9b-9b905bda52ed","019d65e4-5dda-7a64-875b-926becb7401d","","null","
                <div class=""stimulus-container"">
                    <img src=""images/semantic_sequence/maintaining_a_car_semantic/maintaining_a_car_semantic_8.png"" class=""exp-image"">
                    <div class=""question-area""></div> 
                </div>","null","","","","","","","","","","","","",""
"","","","","","html-button-response","116","389206","0.0-116.0","F6586134F687435A9064E1C721EBC99F","019d65fc-a8a6-750f-bd9b-9b905bda52ed","019d65e4-5dda-7a64-875b-926becb7401d","","728","
                <div class=""stimulus-container"">
                    <img src=""images/semantic_sequence/maintaining_a_car_semantic/maintaining_a_car_semantic_8.png"" class=""exp-image"">
                    <div class=""question-area"">
                        <p style=""font-size: 20px; font-weight: bold; margin: 0;"">Is there a person in this image?</p>
                    </div>
                </div>","0","main_experiment_trial","8","maintaining_a_car_semantic","semantic_sequence","chronological","","","","","","","",""
"","","","","","html-keyboard-response","117","394209","0.0-117.0","F6586134F687435A9064E1C721EBC99F","019d65fc-a8a6-750f-bd9b-9b905bda52ed","019d65e4-5dda-7a64-875b-926becb7401d","","null","
                <div class=""stimulus-container"">
                    <img src=""images/semantic_sequence/maintaining_a_car_semantic/maintaining_a_car_semantic_9.png"" class=""exp-image"">
                    <div class=""question-area""></div> 
                </div>","null","","","","","","","","","","","","",""
"","","","","","html-button-response","118","394790","0.0-118.0","F6586134F687435A9064E1C721EBC99F","019d65fc-a8a6-750f-bd9b-9b905bda52ed","019d65e4-5dda-7a64-875b-926becb7401d","","579","
                <div class=""stimulus-container"">
                    <img src=""images/semantic_sequence/maintaining_a_car_semantic/maintaining_a_car_semantic_9.png"" class=""exp-image"">
                    <div class=""question-area"">
                        <p style=""font-size: 20px; font-weight: bold; margin: 0;"">Is there a person in this image?</p>
                    </div>
                </div>","0","main_experiment_trial","9","maintaining_a_car_semantic","semantic_sequence","chronological","","","","","","","",""
"","","","","","html-keyboard-response","119","399806","0.0-119.0","F6586134F687435A9064E1C721EBC99F","019d65fc-a8a6-750f-bd9b-9b905bda52ed","019d65e4-5dda-7a64-875b-926becb7401d","","null","
                <div class=""stimulus-container"">
                    <img src=""images/semantic_sequence/maintaining_a_car_semantic/maintaining_a_car_semantic_ten.png"" class=""exp-image"">
                    <div class=""question-area""></div> 
                </div>","null","","","","","","","","","","","","",""
"","","","","","html-button-response","120","400375","0.0-120.0","F6586134F687435A9064E1C721EBC99F","019d65fc-a8a6-750f-bd9b-9b905bda52ed","019d65e4-5dda-7a64-875b-926becb7401d","","567","
                <div class=""stimulus-container"">
                    <img src=""images/semantic_sequence/maintaining_a_car_semantic/maintaining_a_car_semantic_ten.png"" class=""exp-image"">
                    <div class=""question-area"">
                        <p style=""font-size: 20px; font-weight: bold; margin: 0;"">Is there a person in this image?</p>
                    </div>
                </div>","0","main_experiment_trial","ten","maintaining_a_car_semantic","semantic_sequence","chronological","","","","","","","",""
"","","","","","html-keyboard-response","121","405384","0.0-121.0","F6586134F687435A9064E1C721EBC99F","019d65fc-a8a6-750f-bd9b-9b905bda52ed","019d65e4-5dda-7a64-875b-926becb7401d","","null","<div style=""background-color: white; width: 100vw; height: 100vh;""></div>","null","","","","","","","","","","","","",""
"","","","","","html-keyboard-response","122","410387","0.0-122.0","F6586134F687435A9064E1C721EBC99F","019d65fc-a8a6-750f-bd9b-9b905bda52ed","019d65e4-5dda-7a64-875b-926becb7401d","","null","
                <div class=""stimulus-container"">
                    <img src=""images/causal_sequence/the_performance_causal/the_performance_causal_1.png"" class=""exp-image"">
                    <div class=""question-area""></div> 
                </div>","null","","","","","","","","","","","","",""
"","","","","","html-button-response","123","410873","0.0-123.0","F6586134F687435A9064E1C721EBC99F","019d65fc-a8a6-750f-bd9b-9b905bda52ed","019d65e4-5dda-7a64-875b-926becb7401d","","485","
                <div class=""stimulus-container"">
                    <img src=""images/causal_sequence/the_performance_causal/the_performance_causal_1.png"" class=""exp-image"">
                    <div class=""question-area"">
                        <p style=""font-size: 20px; font-weight: bold; margin: 0;"">Is there a person in this image?</p>
                    </div>
                </div>","0","main_experiment_trial","1","the_performance_causal","causal_sequence","chronological","","","","","","","",""
"","","","","","html-keyboard-response","124","415887","0.0-124.0","F6586134F687435A9064E1C721EBC99F","019d65fc-a8a6-750f-bd9b-9b905bda52ed","019d65e4-5dda-7a64-875b-926becb7401d","","null","
                <div class=""stimulus-container"">
                    <img src=""images/causal_sequence/the_performance_causal/the_performance_causal_2.png"" class=""exp-image"">
                    <div class=""question-area""></div> 
                </div>","null","","","","","","","","","","","","",""
"","","","","","html-button-response","125","416278","0.0-125.0","F6586134F687435A9064E1C721EBC99F","019d65fc-a8a6-750f-bd9b-9b905bda52ed","019d65e4-5dda-7a64-875b-926becb7401d","","390","
                <div class=""stimulus-container"">
                    <img src=""images/causal_sequence/the_performance_causal/the_performance_causal_2.png"" class=""exp-image"">
                    <div class=""question-area"">
                        <p style=""font-size: 20px; font-weight: bold; margin: 0;"">Is there a person in this image?</p>
                    </div>
                </div>","0","main_experiment_trial","2","the_performance_causal","causal_sequence","chronological","","","","","","","",""
"","","","","","html-keyboard-response","126","421291","0.0-126.0","F6586134F687435A9064E1C721EBC99F","019d65fc-a8a6-750f-bd9b-9b905bda52ed","019d65e4-5dda-7a64-875b-926becb7401d","","null","
                <div class=""stimulus-container"">
                    <img src=""images/causal_sequence/the_performance_causal/the_performance_causal_3.png"" class=""exp-image"">
                    <div class=""question-area""></div> 
                </div>","null","","","","","","","","","","","","",""
"","","","","","html-button-response","127","421680","0.0-127.0","F6586134F687435A9064E1C721EBC99F","019d65fc-a8a6-750f-bd9b-9b905bda52ed","019d65e4-5dda-7a64-875b-926becb7401d","","388","
                <div class=""stimulus-container"">
                    <img src=""images/causal_sequence/the_performance_causal/the_performance_causal_3.png"" class=""exp-image"">
                    <div class=""question-area"">
                        <p style=""font-size: 20px; font-weight: bold; margin: 0;"">Is there a person in this image?</p>
                    </div>
                </div>","0","main_experiment_trial","3","the_performance_causal","causal_sequence","chronological","","","","","","","",""
"","","","","","html-keyboard-response","128","426697","0.0-128.0","F6586134F687435A9064E1C721EBC99F","019d65fc-a8a6-750f-bd9b-9b905bda52ed","019d65e4-5dda-7a64-875b-926becb7401d","","null","
                <div class=""stimulus-container"">
                    <img src=""images/causal_sequence/the_performance_causal/the_performance_causal_4.png"" class=""exp-image"">
                    <div class=""question-area""></div> 
                </div>","null","","","","","","","","","","","","",""
"","","","","","html-button-response","129","427106","0.0-129.0","F6586134F687435A9064E1C721EBC99F","019d65fc-a8a6-750f-bd9b-9b905bda52ed","019d65e4-5dda-7a64-875b-926becb7401d","","408","
                <div class=""stimulus-container"">
                    <img src=""images/causal_sequence/the_performance_causal/the_performance_causal_4.png"" class=""exp-image"">
                    <div class=""question-area"">
                        <p style=""font-size: 20px; font-weight: bold; margin: 0;"">Is there a person in this image?</p>
                    </div>
                </div>","0","main_experiment_trial","4","the_performance_causal","causal_sequence","chronological","","","","","","","",""
"","","","","","html-keyboard-response","130","432110","0.0-130.0","F6586134F687435A9064E1C721EBC99F","019d65fc-a8a6-750f-bd9b-9b905bda52ed","019d65e4-5dda-7a64-875b-926becb7401d","","null","
                <div class=""stimulus-container"">
                    <img src=""images/causal_sequence/the_performance_causal/the_performance_causal_5.png"" class=""exp-image"">
                    <div class=""question-area""></div> 
                </div>","null","","","","","","","","","","","","",""
"","","","","","html-button-response","131","432467","0.0-131.0","F6586134F687435A9064E1C721EBC99F","019d65fc-a8a6-750f-bd9b-9b905bda52ed","019d65e4-5dda-7a64-875b-926becb7401d","","355","
                <div class=""stimulus-container"">
                    <img src=""images/causal_sequence/the_performance_causal/the_performance_causal_5.png"" class=""exp-image"">
                    <div class=""question-area"">
                        <p style=""font-size: 20px; font-weight: bold; margin: 0;"">Is there a person in this image?</p>
                    </div>
                </div>","0","main_experiment_trial","5","the_performance_causal","causal_sequence","chronological","","","","","","","",""
"","","","","","html-keyboard-response","132","437481","0.0-132.0","F6586134F687435A9064E1C721EBC99F","019d65fc-a8a6-750f-bd9b-9b905bda52ed","019d65e4-5dda-7a64-875b-926becb7401d","","null","
                <div class=""stimulus-container"">
                    <img src=""images/causal_sequence/the_performance_causal/the_performance_causal_6.png"" class=""exp-image"">
                    <div class=""question-area""></div> 
                </div>","null","","","","","","","","","","","","",""
"","","","","","html-button-response","133","437848","0.0-133.0","F6586134F687435A9064E1C721EBC99F","019d65fc-a8a6-750f-bd9b-9b905bda52ed","019d65e4-5dda-7a64-875b-926becb7401d","","366","
                <div class=""stimulus-container"">
                    <img src=""images/causal_sequence/the_performance_causal/the_performance_causal_6.png"" class=""exp-image"">
                    <div class=""question-area"">
                        <p style=""font-size: 20px; font-weight: bold; margin: 0;"">Is there a person in this image?</p>
                    </div>
                </div>","0","main_experiment_trial","6","the_performance_causal","causal_sequence","chronological","","","","","","","",""
"","","","","","html-keyboard-response","134","442860","0.0-134.0","F6586134F687435A9064E1C721EBC99F","019d65fc-a8a6-750f-bd9b-9b905bda52ed","019d65e4-5dda-7a64-875b-926becb7401d","","null","
                <div class=""stimulus-container"">
                    <img src=""images/causal_sequence/the_performance_causal/the_performance_causal_7.png"" class=""exp-image"">
                    <div class=""question-area""></div> 
                </div>","null","","","","","","","","","","","","",""
"","","","","","html-button-response","135","443001","0.0-135.0","F6586134F687435A9064E1C721EBC99F","019d65fc-a8a6-750f-bd9b-9b905bda52ed","019d65e4-5dda-7a64-875b-926becb7401d","","139","
                <div class=""stimulus-container"">
                    <img src=""images/causal_sequence/the_performance_causal/the_performance_causal_7.png"" class=""exp-image"">
                    <div class=""question-area"">
                        <p style=""font-size: 20px; font-weight: bold; margin: 0;"">Is there a person in this image?</p>
                    </div>
                </div>","0","main_experiment_trial","7","the_performance_causal","causal_sequence","chronological","","","","","","","",""
"","","","","","html-keyboard-response","136","448016","0.0-136.0","F6586134F687435A9064E1C721EBC99F","019d65fc-a8a6-750f-bd9b-9b905bda52ed","019d65e4-5dda-7a64-875b-926becb7401d","","null","
                <div class=""stimulus-container"">
                    <img src=""images/causal_sequence/the_performance_causal/the_performance_causal_8.png"" class=""exp-image"">
                    <div class=""question-area""></div> 
                </div>","null","","","","","","","","","","","","",""
"","","","","","html-button-response","137","448682","0.0-137.0","F6586134F687435A9064E1C721EBC99F","019d65fc-a8a6-750f-bd9b-9b905bda52ed","019d65e4-5dda-7a64-875b-926becb7401d","","665","
                <div class=""stimulus-container"">
                    <img src=""images/causal_sequence/the_performance_causal/the_performance_causal_8.png"" class=""exp-image"">
                    <div class=""question-area"">
                        <p style=""font-size: 20px; font-weight: bold; margin: 0;"">Is there a person in this image?</p>
                    </div>
                </div>","0","main_experiment_trial","8","the_performance_causal","causal_sequence","chronological","","","","","","","",""
"","","","","","html-keyboard-response","138","453695","0.0-138.0","F6586134F687435A9064E1C721EBC99F","019d65fc-a8a6-750f-bd9b-9b905bda52ed","019d65e4-5dda-7a64-875b-926becb7401d","","null","
                <div class=""stimulus-container"">
                    <img src=""images/causal_sequence/the_performance_causal/the_performance_causal_9.png"" class=""exp-image"">
                    <div class=""question-area""></div> 
                </div>","null","","","","","","","","","","","","",""
"","","","","","html-button-response","139","454406","0.0-139.0","F6586134F687435A9064E1C721EBC99F","019d65fc-a8a6-750f-bd9b-9b905bda52ed","019d65e4-5dda-7a64-875b-926becb7401d","","709","
                <div class=""stimulus-container"">
                    <img src=""images/causal_sequence/the_performance_causal/the_performance_causal_9.png"" class=""exp-image"">
                    <div class=""question-area"">
                        <p style=""font-size: 20px; font-weight: bold; margin: 0;"">Is there a person in this image?</p>
                    </div>
                </div>","0","main_experiment_trial","9","the_performance_causal","causal_sequence","chronological","","","","","","","",""
"","","","","","html-keyboard-response","140","459409","0.0-140.0","F6586134F687435A9064E1C721EBC99F","019d65fc-a8a6-750f-bd9b-9b905bda52ed","019d65e4-5dda-7a64-875b-926becb7401d","","null","
                <div class=""stimulus-container"">
                    <img src=""images/causal_sequence/the_performance_causal/the_performance_causal_ten.png"" class=""exp-image"">
                    <div class=""question-area""></div> 
                </div>","null","","","","","","","","","","","","",""
"","","","","","html-button-response","141","459817","0.0-141.0","F6586134F687435A9064E1C721EBC99F","019d65fc-a8a6-750f-bd9b-9b905bda52ed","019d65e4-5dda-7a64-875b-926becb7401d","","406","
                <div class=""stimulus-container"">
                    <img src=""images/causal_sequence/the_performance_causal/the_performance_causal_ten.png"" class=""exp-image"">
                    <div class=""question-area"">
                        <p style=""font-size: 20px; font-weight: bold; margin: 0;"">Is there a person in this image?</p>
                    </div>
                </div>","0","main_experiment_trial","ten","the_performance_causal","causal_sequence","chronological","","","","","","","",""
"","","","","","html-keyboard-response","142","464823","0.0-142.0","F6586134F687435A9064E1C721EBC99F","019d65fc-a8a6-750f-bd9b-9b905bda52ed","019d65e4-5dda-7a64-875b-926becb7401d","","null","<div style=""background-color: white; width: 100vw; height: 100vh;""></div>","null","","","","","","","","","","","","",""
"","","","","","html-keyboard-response","143","469840","0.0-143.0","F6586134F687435A9064E1C721EBC99F","019d65fc-a8a6-750f-bd9b-9b905bda52ed","019d65e4-5dda-7a64-875b-926becb7401d","","null","
                <div class=""stimulus-container"">
                    <img src=""images/semantic_sequence/physical_activity_semantic/physical_activity_semantic_1.png"" class=""exp-image"">
                    <div class=""question-area""></div> 
                </div>","null","","","","","","","","","","","","",""
"","","","","","html-button-response","144","470218","0.0-144.0","F6586134F687435A9064E1C721EBC99F","019d65fc-a8a6-750f-bd9b-9b905bda52ed","019d65e4-5dda-7a64-875b-926becb7401d","","377","
                <div class=""stimulus-container"">
                    <img src=""images/semantic_sequence/physical_activity_semantic/physical_activity_semantic_1.png"" class=""exp-image"">
                    <div class=""question-area"">
                        <p style=""font-size: 20px; font-weight: bold; margin: 0;"">Is there a person in this image?</p>
                    </div>
                </div>","0","main_experiment_trial","1","physical_activity_semantic","semantic_sequence","chronological","","","","","","","",""
"","","","","","html-keyboard-response","145","475230","0.0-145.0","F6586134F687435A9064E1C721EBC99F","019d65fc-a8a6-750f-bd9b-9b905bda52ed","019d65e4-5dda-7a64-875b-926becb7401d","","null","
                <div class=""stimulus-container"">
                    <img src=""images/semantic_sequence/physical_activity_semantic/physical_activity_semantic_2.png"" class=""exp-image"">
                    <div class=""question-area""></div> 
                </div>","null","","","","","","","","","","","","",""
"","","","","","html-button-response","146","475657","0.0-146.0","F6586134F687435A9064E1C721EBC99F","019d65fc-a8a6-750f-bd9b-9b905bda52ed","019d65e4-5dda-7a64-875b-926becb7401d","","425","
                <div class=""stimulus-container"">
                    <img src=""images/semantic_sequence/physical_activity_semantic/physical_activity_semantic_2.png"" class=""exp-image"">
                    <div class=""question-area"">
                        <p style=""font-size: 20px; font-weight: bold; margin: 0;"">Is there a person in this image?</p>
                    </div>
                </div>","0","main_experiment_trial","2","physical_activity_semantic","semantic_sequence","chronological","","","","","","","",""
"","","","","","html-keyboard-response","147","480659","0.0-147.0","F6586134F687435A9064E1C721EBC99F","019d65fc-a8a6-750f-bd9b-9b905bda52ed","019d65e4-5dda-7a64-875b-926becb7401d","","null","
                <div class=""stimulus-container"">
                    <img src=""images/semantic_sequence/physical_activity_semantic/physical_activity_semantic_3.png"" class=""exp-image"">
                    <div class=""question-area""></div> 
                </div>","null","","","","","","","","","","","","",""
"","","","","","html-button-response","148","481054","0.0-148.0","F6586134F687435A9064E1C721EBC99F","019d65fc-a8a6-750f-bd9b-9b905bda52ed","019d65e4-5dda-7a64-875b-926becb7401d","","393","
                <div class=""stimulus-container"">
                    <img src=""images/semantic_sequence/physical_activity_semantic/physical_activity_semantic_3.png"" class=""exp-image"">
                    <div class=""question-area"">
                        <p style=""font-size: 20px; font-weight: bold; margin: 0;"">Is there a person in this image?</p>
                    </div>
                </div>","0","main_experiment_trial","3","physical_activity_semantic","semantic_sequence","chronological","","","","","","","",""
"","","","","","html-keyboard-response","149","486060","0.0-149.0","F6586134F687435A9064E1C721EBC99F","019d65fc-a8a6-750f-bd9b-9b905bda52ed","019d65e4-5dda-7a64-875b-926becb7401d","","null","
                <div class=""stimulus-container"">
                    <img src=""images/semantic_sequence/physical_activity_semantic/physical_activity_semantic_4.png"" class=""exp-image"">
                    <div class=""question-area""></div> 
                </div>","null","","","","","","","","","","","","",""
"","","","","","html-button-response","150","486484","0.0-150.0","F6586134F687435A9064E1C721EBC99F","019d65fc-a8a6-750f-bd9b-9b905bda52ed","019d65e4-5dda-7a64-875b-926becb7401d","","423","
                <div class=""stimulus-container"">
                    <img src=""images/semantic_sequence/physical_activity_semantic/physical_activity_semantic_4.png"" class=""exp-image"">
                    <div class=""question-area"">
                        <p style=""font-size: 20px; font-weight: bold; margin: 0;"">Is there a person in this image?</p>
                    </div>
                </div>","0","main_experiment_trial","4","physical_activity_semantic","semantic_sequence","chronological","","","","","","","",""
"","","","","","html-keyboard-response","151","491496","0.0-151.0","F6586134F687435A9064E1C721EBC99F","019d65fc-a8a6-750f-bd9b-9b905bda52ed","019d65e4-5dda-7a64-875b-926becb7401d","","null","
                <div class=""stimulus-container"">
                    <img src=""images/semantic_sequence/physical_activity_semantic/physical_activity_semantic_5.png"" class=""exp-image"">
                    <div class=""question-area""></div> 
                </div>","null","","","","","","","","","","","","",""
"","","","","","html-button-response","152","491931","0.0-152.0","F6586134F687435A9064E1C721EBC99F","019d65fc-a8a6-750f-bd9b-9b905bda52ed","019d65e4-5dda-7a64-875b-926becb7401d","","433","
                <div class=""stimulus-container"">
                    <img src=""images/semantic_sequence/physical_activity_semantic/physical_activity_semantic_5.png"" class=""exp-image"">
                    <div class=""question-area"">
                        <p style=""font-size: 20px; font-weight: bold; margin: 0;"">Is there a person in this image?</p>
                    </div>
                </div>","0","main_experiment_trial","5","physical_activity_semantic","semantic_sequence","chronological","","","","","","","",""
"","","","","","html-keyboard-response","153","496943","0.0-153.0","F6586134F687435A9064E1C721EBC99F","019d65fc-a8a6-750f-bd9b-9b905bda52ed","019d65e4-5dda-7a64-875b-926becb7401d","","null","
                <div class=""stimulus-container"">
                    <img src=""images/semantic_sequence/physical_activity_semantic/physical_activity_semantic_6.png"" class=""exp-image"">
                    <div class=""question-area""></div> 
                </div>","null","","","","","","","","","","","","",""
"","","","","","html-button-response","154","497305","0.0-154.0","F6586134F687435A9064E1C721EBC99F","019d65fc-a8a6-750f-bd9b-9b905bda52ed","019d65e4-5dda-7a64-875b-926becb7401d","","360","
                <div class=""stimulus-container"">
                    <img src=""images/semantic_sequence/physical_activity_semantic/physical_activity_semantic_6.png"" class=""exp-image"">
                    <div class=""question-area"">
                        <p style=""font-size: 20px; font-weight: bold; margin: 0;"">Is there a person in this image?</p>
                    </div>
                </div>","0","main_experiment_trial","6","physical_activity_semantic","semantic_sequence","chronological","","","","","","","",""
"","","","","","html-keyboard-response","155","502321","0.0-155.0","F6586134F687435A9064E1C721EBC99F","019d65fc-a8a6-750f-bd9b-9b905bda52ed","019d65e4-5dda-7a64-875b-926becb7401d","","null","
                <div class=""stimulus-container"">
                    <img src=""images/semantic_sequence/physical_activity_semantic/physical_activity_semantic_7.png"" class=""exp-image"">
                    <div class=""question-area""></div> 
                </div>","null","","","","","","","","","","","","",""
"","","","","","html-button-response","156","502672","0.0-156.0","F6586134F687435A9064E1C721EBC99F","019d65fc-a8a6-750f-bd9b-9b905bda52ed","019d65e4-5dda-7a64-875b-926becb7401d","","350","
                <div class=""stimulus-container"">
                    <img src=""images/semantic_sequence/physical_activity_semantic/physical_activity_semantic_7.png"" class=""exp-image"">
                    <div class=""question-area"">
                        <p style=""font-size: 20px; font-weight: bold; margin: 0;"">Is there a person in this image?</p>
                    </div>
                </div>","0","main_experiment_trial","7","physical_activity_semantic","semantic_sequence","chronological","","","","","","","",""
"","","","","","html-keyboard-response","157","507674","0.0-157.0","F6586134F687435A9064E1C721EBC99F","019d65fc-a8a6-750f-bd9b-9b905bda52ed","019d65e4-5dda-7a64-875b-926becb7401d","","null","
                <div class=""stimulus-container"">
                    <img src=""images/semantic_sequence/physical_activity_semantic/physical_activity_semantic_8.png"" class=""exp-image"">
                    <div class=""question-area""></div> 
                </div>","null","","","","","","","","","","","","",""
"","","","","","html-button-response","158","508075","0.0-158.0","F6586134F687435A9064E1C721EBC99F","019d65fc-a8a6-750f-bd9b-9b905bda52ed","019d65e4-5dda-7a64-875b-926becb7401d","","400","
                <div class=""stimulus-container"">
                    <img src=""images/semantic_sequence/physical_activity_semantic/physical_activity_semantic_8.png"" class=""exp-image"">
                    <div class=""question-area"">
                        <p style=""font-size: 20px; font-weight: bold; margin: 0;"">Is there a person in this image?</p>
                    </div>
                </div>","0","main_experiment_trial","8","physical_activity_semantic","semantic_sequence","chronological","","","","","","","",""
"","","","","","html-keyboard-response","159","513086","0.0-159.0","F6586134F687435A9064E1C721EBC99F","019d65fc-a8a6-750f-bd9b-9b905bda52ed","019d65e4-5dda-7a64-875b-926becb7401d","","null","
                <div class=""stimulus-container"">
                    <img src=""images/semantic_sequence/physical_activity_semantic/physical_activity_semantic_9.png"" class=""exp-image"">
                    <div class=""question-area""></div> 
                </div>","null","","","","","","","","","","","","",""
"","","","","","html-button-response","160","513471","0.0-160.0","F6586134F687435A9064E1C721EBC99F","019d65fc-a8a6-750f-bd9b-9b905bda52ed","019d65e4-5dda-7a64-875b-926becb7401d","","384","
                <div class=""stimulus-container"">
                    <img src=""images/semantic_sequence/physical_activity_semantic/physical_activity_semantic_9.png"" class=""exp-image"">
                    <div class=""question-area"">
                        <p style=""font-size: 20px; font-weight: bold; margin: 0;"">Is there a person in this image?</p>
                    </div>
                </div>","0","main_experiment_trial","9","physical_activity_semantic","semantic_sequence","chronological","","","","","","","",""
"","","","","","html-keyboard-response","161","518481","0.0-161.0","F6586134F687435A9064E1C721EBC99F","019d65fc-a8a6-750f-bd9b-9b905bda52ed","019d65e4-5dda-7a64-875b-926becb7401d","","null","
                <div class=""stimulus-container"">
                    <img src=""images/semantic_sequence/physical_activity_semantic/physical_activity_semantic_ten.png"" class=""exp-image"">
                    <div class=""question-area""></div> 
                </div>","null","","","","","","","","","","","","",""
"","","","","","html-button-response","162","518862","0.0-162.0","F6586134F687435A9064E1C721EBC99F","019d65fc-a8a6-750f-bd9b-9b905bda52ed","019d65e4-5dda-7a64-875b-926becb7401d","","380","
                <div class=""stimulus-container"">
                    <img src=""images/semantic_sequence/physical_activity_semantic/physical_activity_semantic_ten.png"" class=""exp-image"">
                    <div class=""question-area"">
                        <p style=""font-size: 20px; font-weight: bold; margin: 0;"">Is there a person in this image?</p>
                    </div>
                </div>","0","main_experiment_trial","ten","physical_activity_semantic","semantic_sequence","chronological","","","","","","","",""
"","","","","","html-keyboard-response","163","523870","0.0-163.0","F6586134F687435A9064E1C721EBC99F","019d65fc-a8a6-750f-bd9b-9b905bda52ed","019d65e4-5dda-7a64-875b-926becb7401d","","null","<div style=""background-color: white; width: 100vw; height: 100vh;""></div>","null","","","","","","","","","","","","",""
"","","","","","html-keyboard-response","164","528878","0.0-164.0","F6586134F687435A9064E1C721EBC99F","019d65fc-a8a6-750f-bd9b-9b905bda52ed","019d65e4-5dda-7a64-875b-926becb7401d","","null","
                <div class=""stimulus-container"">
                    <img src=""images/semantic_sequence/housework_semantic/housework_semantic_1.png"" class=""exp-image"">
                    <div class=""question-area""></div> 
                </div>","null","","","","","","","","","","","","",""
"","","","","","html-button-response","165","529311","0.0-165.0","F6586134F687435A9064E1C721EBC99F","019d65fc-a8a6-750f-bd9b-9b905bda52ed","019d65e4-5dda-7a64-875b-926becb7401d","","431","
                <div class=""stimulus-container"">
                    <img src=""images/semantic_sequence/housework_semantic/housework_semantic_1.png"" class=""exp-image"">
                    <div class=""question-area"">
                        <p style=""font-size: 20px; font-weight: bold; margin: 0;"">Is there a person in this image?</p>
                    </div>
                </div>","0","main_experiment_trial","1","housework_semantic","semantic_sequence","chronological","","","","","","","",""
"","","","","","html-keyboard-response","166","534323","0.0-166.0","F6586134F687435A9064E1C721EBC99F","019d65fc-a8a6-750f-bd9b-9b905bda52ed","019d65e4-5dda-7a64-875b-926becb7401d","","null","
                <div class=""stimulus-container"">
                    <img src=""images/semantic_sequence/housework_semantic/housework_semantic_2.png"" class=""exp-image"">
                    <div class=""question-area""></div> 
                </div>","null","","","","","","","","","","","","",""
"","","","","","html-button-response","167","535175","0.0-167.0","F6586134F687435A9064E1C721EBC99F","019d65fc-a8a6-750f-bd9b-9b905bda52ed","019d65e4-5dda-7a64-875b-926becb7401d","","851","
                <div class=""stimulus-container"">
                    <img src=""images/semantic_sequence/housework_semantic/housework_semantic_2.png"" class=""exp-image"">
                    <div class=""question-area"">
                        <p style=""font-size: 20px; font-weight: bold; margin: 0;"">Is there a person in this image?</p>
                    </div>
                </div>","0","main_experiment_trial","2","housework_semantic","semantic_sequence","chronological","","","","","","","",""
"","","","","","html-keyboard-response","168","540181","0.0-168.0","F6586134F687435A9064E1C721EBC99F","019d65fc-a8a6-750f-bd9b-9b905bda52ed","019d65e4-5dda-7a64-875b-926becb7401d","","null","
                <div class=""stimulus-container"">
                    <img src=""images/semantic_sequence/housework_semantic/housework_semantic_3.png"" class=""exp-image"">
                    <div class=""question-area""></div> 
                </div>","null","","","","","","","","","","","","",""
"","","","","","html-button-response","169","541039","0.0-169.0","F6586134F687435A9064E1C721EBC99F","019d65fc-a8a6-750f-bd9b-9b905bda52ed","019d65e4-5dda-7a64-875b-926becb7401d","","856","
                <div class=""stimulus-container"">
                    <img src=""images/semantic_sequence/housework_semantic/housework_semantic_3.png"" class=""exp-image"">
                    <div class=""question-area"">
                        <p style=""font-size: 20px; font-weight: bold; margin: 0;"">Is there a person in this image?</p>
                    </div>
                </div>","0","main_experiment_trial","3","housework_semantic","semantic_sequence","chronological","","","","","","","",""
"","","","","","html-keyboard-response","170","546047","0.0-170.0","F6586134F687435A9064E1C721EBC99F","019d65fc-a8a6-750f-bd9b-9b905bda52ed","019d65e4-5dda-7a64-875b-926becb7401d","","null","
                <div class=""stimulus-container"">
                    <img src=""images/semantic_sequence/housework_semantic/housework_semantic_4.png"" class=""exp-image"">
                    <div class=""question-area""></div> 
                </div>","null","","","","","","","","","","","","",""
"","","","","","html-button-response","171","546442","0.0-171.0","F6586134F687435A9064E1C721EBC99F","019d65fc-a8a6-750f-bd9b-9b905bda52ed","019d65e4-5dda-7a64-875b-926becb7401d","","393","
                <div class=""stimulus-container"">
                    <img src=""images/semantic_sequence/housework_semantic/housework_semantic_4.png"" class=""exp-image"">
                    <div class=""question-area"">
                        <p style=""font-size: 20px; font-weight: bold; margin: 0;"">Is there a person in this image?</p>
                    </div>
                </div>","0","main_experiment_trial","4","housework_semantic","semantic_sequence","chronological","","","","","","","",""
"","","","","","html-keyboard-response","172","551456","0.0-172.0","F6586134F687435A9064E1C721EBC99F","019d65fc-a8a6-750f-bd9b-9b905bda52ed","019d65e4-5dda-7a64-875b-926becb7401d","","null","
                <div class=""stimulus-container"">
                    <img src=""images/semantic_sequence/housework_semantic/housework_semantic_5.png"" class=""exp-image"">
                    <div class=""question-area""></div> 
                </div>","null","","","","","","","","","","","","",""
"","","","","","html-button-response","173","551929","0.0-173.0","F6586134F687435A9064E1C721EBC99F","019d65fc-a8a6-750f-bd9b-9b905bda52ed","019d65e4-5dda-7a64-875b-926becb7401d","","472","
                <div class=""stimulus-container"">
                    <img src=""images/semantic_sequence/housework_semantic/housework_semantic_5.png"" class=""exp-image"">
                    <div class=""question-area"">
                        <p style=""font-size: 20px; font-weight: bold; margin: 0;"">Is there a person in this image?</p>
                    </div>
                </div>","0","main_experiment_trial","5","housework_semantic","semantic_sequence","chronological","","","","","","","",""
"","","","","","html-keyboard-response","174","556944","0.0-174.0","F6586134F687435A9064E1C721EBC99F","019d65fc-a8a6-750f-bd9b-9b905bda52ed","019d65e4-5dda-7a64-875b-926becb7401d","","null","
                <div class=""stimulus-container"">
                    <img src=""images/semantic_sequence/housework_semantic/housework_semantic_6.png"" class=""exp-image"">
                    <div class=""question-area""></div> 
                </div>","null","","","","","","","","","","","","",""
"","","","","","html-button-response","175","557338","0.0-175.0","F6586134F687435A9064E1C721EBC99F","019d65fc-a8a6-750f-bd9b-9b905bda52ed","019d65e4-5dda-7a64-875b-926becb7401d","","394","
                <div class=""stimulus-container"">
                    <img src=""images/semantic_sequence/housework_semantic/housework_semantic_6.png"" class=""exp-image"">
                    <div class=""question-area"">
                        <p style=""font-size: 20px; font-weight: bold; margin: 0;"">Is there a person in this image?</p>
                    </div>
                </div>","0","main_experiment_trial","6","housework_semantic","semantic_sequence","chronological","","","","","","","",""
