"success","timeout","failed_images","failed_audio","failed_video","trial_type","trial_index","time_elapsed","internal_node_id","subject_id","study_id","session_id","view_history","rt","stimulus","response","task","image_index","folder","valuable_image_index","valuable_X","chosen_image_index","distance_from_X"
"false","false","[]","[]","[]","preload","0","7115","0.0-0.0","416EBD8D331F46B39221A4C38A815F35","019ce687-1a6d-77cd-a0bd-522cafea281e","019ce643-47c6-74a0-b3d2-7bf5651ded46","","","","","","","","","","",""
"","","","","","instructions","1","172740","0.0-1.0","416EBD8D331F46B39221A4C38A815F35","019ce687-1a6d-77cd-a0bd-522cafea281e","019ce643-47c6-74a0-b3d2-7bf5651ded46","[{""page_index"":0,""viewing_time"":165623}]","165624","","","","","","","","",""
"","","","","","instructions","2","175794","0.0-2.0","416EBD8D331F46B39221A4C38A815F35","019ce687-1a6d-77cd-a0bd-522cafea281e","019ce643-47c6-74a0-b3d2-7bf5651ded46","[{""page_index"":0,""viewing_time"":3054}]","3054","","","","","","","","",""
"true","","","","","fullscreen","3","587932","0.0-3.0","416EBD8D331F46B39221A4C38A815F35","019ce687-1a6d-77cd-a0bd-522cafea281e","019ce643-47c6-74a0-b3d2-7bf5651ded46","","411106","","","","","","","","",""
"","","","","","instructions","4","595449","0.0-4.0","416EBD8D331F46B39221A4C38A815F35","019ce687-1a6d-77cd-a0bd-522cafea281e","019ce643-47c6-74a0-b3d2-7bf5651ded46","[{""page_index"":0,""viewing_time"":7517}]","7517","","","","","","","","",""
"","","","","","instructions","5","603592","0.0-5.0","416EBD8D331F46B39221A4C38A815F35","019ce687-1a6d-77cd-a0bd-522cafea281e","019ce643-47c6-74a0-b3d2-7bf5651ded46","[{""page_index"":0,""viewing_time"":8142}]","8142","","","","","","","","",""
"","","","","","html-keyboard-response","6","607593","0.0-6.0","416EBD8D331F46B39221A4C38A815F35","019ce687-1a6d-77cd-a0bd-522cafea281e","019ce643-47c6-74a0-b3d2-7bf5651ded46","","null","
                <div class=""stimulus-container"">
                    <img src=""images/instructions/movie_1.png"" class=""exp-image"">
                    <div class=""question-area""></div> 
                </div>","null","","","","","","",""
"","","","","","html-button-response","7","609862","0.0-7.0","416EBD8D331F46B39221A4C38A815F35","019ce687-1a6d-77cd-a0bd-522cafea281e","019ce643-47c6-74a0-b3d2-7bf5651ded46","","2268","
                <div class=""stimulus-container"">
                    <img src=""images/instructions/movie_1.png"" class=""exp-image"">
                    <div class=""question-area"">
                        <p style=""font-size: 20px; font-weight: bold; margin: 0;"">Was there a person in this image?</p>
                    </div>
                </div>","0","example_question","1","","","","",""
"","","","","","html-keyboard-response","8","613876","0.0-8.0","416EBD8D331F46B39221A4C38A815F35","019ce687-1a6d-77cd-a0bd-522cafea281e","019ce643-47c6-74a0-b3d2-7bf5651ded46","","null","
                <div class=""stimulus-container"">
                    <img src=""images/instructions/movie_2.png"" class=""exp-image"">
                    <div class=""question-area""></div> 
                </div>","null","","","","","","",""
"","","","","","html-button-response","9","614544","0.0-9.0","416EBD8D331F46B39221A4C38A815F35","019ce687-1a6d-77cd-a0bd-522cafea281e","019ce643-47c6-74a0-b3d2-7bf5651ded46","","667","
                <div class=""stimulus-container"">
                    <img src=""images/instructions/movie_2.png"" class=""exp-image"">
                    <div class=""question-area"">
                        <p style=""font-size: 20px; font-weight: bold; margin: 0;"">Was there a person in this image?</p>
                    </div>
                </div>","1","example_question","2","","","","",""
"","","","","","html-keyboard-response","10","618546","0.0-10.0","416EBD8D331F46B39221A4C38A815F35","019ce687-1a6d-77cd-a0bd-522cafea281e","019ce643-47c6-74a0-b3d2-7bf5651ded46","","null","
                <div class=""stimulus-container"">
                    <img src=""images/instructions/movie_3.png"" class=""exp-image"">
                    <div class=""question-area""></div> 
                </div>","null","","","","","","",""
"","","","","","html-button-response","11","619506","0.0-11.0","416EBD8D331F46B39221A4C38A815F35","019ce687-1a6d-77cd-a0bd-522cafea281e","019ce643-47c6-74a0-b3d2-7bf5651ded46","","959","
                <div class=""stimulus-container"">
                    <img src=""images/instructions/movie_3.png"" class=""exp-image"">
                    <div class=""question-area"">
                        <p style=""font-size: 20px; font-weight: bold; margin: 0;"">Was there a person in this image?</p>
                    </div>
                </div>","0","example_question","3","","","","",""
"","","","","","html-keyboard-response","12","623521","0.0-12.0","416EBD8D331F46B39221A4C38A815F35","019ce687-1a6d-77cd-a0bd-522cafea281e","019ce643-47c6-74a0-b3d2-7bf5651ded46","","null","
                <div class=""stimulus-container"">
                    <img src=""images/instructions/movie_4.png"" class=""exp-image"">
                    <div class=""question-area""></div> 
                </div>","null","","","","","","",""
"","","","","","html-button-response","13","624459","0.0-13.0","416EBD8D331F46B39221A4C38A815F35","019ce687-1a6d-77cd-a0bd-522cafea281e","019ce643-47c6-74a0-b3d2-7bf5651ded46","","936","
                <div class=""stimulus-container"">
                    <img src=""images/instructions/movie_4.png"" class=""exp-image"">
                    <div class=""question-area"">
                        <p style=""font-size: 20px; font-weight: bold; margin: 0;"">Was there a person in this image?</p>
                    </div>
                </div>","0","example_question","4","","","","",""
"","","","","","instructions","14","626239","0.0-14.0","416EBD8D331F46B39221A4C38A815F35","019ce687-1a6d-77cd-a0bd-522cafea281e","019ce643-47c6-74a0-b3d2-7bf5651ded46","[{""page_index"":0,""viewing_time"":1777}]","1777","","","","","","","","",""
"","","","","","html-keyboard-response","15","627254","0.0-15.0","416EBD8D331F46B39221A4C38A815F35","019ce687-1a6d-77cd-a0bd-522cafea281e","019ce643-47c6-74a0-b3d2-7bf5651ded46","","null","<div style=""background-color: gray; width: 100vw; height: 100vh;""></div>","null","","","","","","",""
"","","","","","html-keyboard-response","16","632261","0.0-16.0","416EBD8D331F46B39221A4C38A815F35","019ce687-1a6d-77cd-a0bd-522cafea281e","019ce643-47c6-74a0-b3d2-7bf5651ded46","","null","
                    <div class=""stimulus-container"">
                        <img src=""images/causal_sequence/coin_causal/coin_causal_1.png"" class=""exp-image"">
                        <div class=""question-area""></div> 
                    </div>","null","","","","","","",""
"","","","","","html-button-response","17","633388","0.0-17.0","416EBD8D331F46B39221A4C38A815F35","019ce687-1a6d-77cd-a0bd-522cafea281e","019ce643-47c6-74a0-b3d2-7bf5651ded46","","1127","
                    <div class=""stimulus-container"">
                        <img src=""images/causal_sequence/coin_causal/coin_causal_1.png"" class=""exp-image"">
                        <div class=""question-area"">
                            <p style=""font-size: 20px; font-weight: bold; margin: 0;"">Is there a person in this image?</p>
                        </div>
                    </div>","0","main_causal_task","1","coin_causal","","","",""
"","","","","","html-keyboard-response","18","638394","0.0-18.0","416EBD8D331F46B39221A4C38A815F35","019ce687-1a6d-77cd-a0bd-522cafea281e","019ce643-47c6-74a0-b3d2-7bf5651ded46","","null","
                    <div class=""stimulus-container"">
                        <img src=""images/causal_sequence/coin_causal/coin_causal_2.png"" class=""exp-image"">
                        <div class=""question-area""></div> 
                    </div>","null","","","","","","",""
"","","","","","html-button-response","19","639309","0.0-19.0","416EBD8D331F46B39221A4C38A815F35","019ce687-1a6d-77cd-a0bd-522cafea281e","019ce643-47c6-74a0-b3d2-7bf5651ded46","","914","
                    <div class=""stimulus-container"">
                        <img src=""images/causal_sequence/coin_causal/coin_causal_2.png"" class=""exp-image"">
                        <div class=""question-area"">
                            <p style=""font-size: 20px; font-weight: bold; margin: 0;"">Is there a person in this image?</p>
                        </div>
                    </div>","0","main_causal_task","2","coin_causal","","","",""
"","","","","","html-keyboard-response","20","644319","0.0-20.0","416EBD8D331F46B39221A4C38A815F35","019ce687-1a6d-77cd-a0bd-522cafea281e","019ce643-47c6-74a0-b3d2-7bf5651ded46","","null","
                    <div class=""stimulus-container"">
                        <img src=""images/causal_sequence/coin_causal/coin_causal_3.png"" class=""exp-image"">
                        <div class=""question-area""></div> 
                    </div>","null","","","","","","",""
"","","","","","html-button-response","21","645576","0.0-21.0","416EBD8D331F46B39221A4C38A815F35","019ce687-1a6d-77cd-a0bd-522cafea281e","019ce643-47c6-74a0-b3d2-7bf5651ded46","","1256","
                    <div class=""stimulus-container"">
                        <img src=""images/causal_sequence/coin_causal/coin_causal_3.png"" class=""exp-image"">
                        <div class=""question-area"">
                            <p style=""font-size: 20px; font-weight: bold; margin: 0;"">Is there a person in this image?</p>
                        </div>
                    </div>","0","main_causal_task","3","coin_causal","","","",""
"","","","","","html-keyboard-response","22","650591","0.0-22.0","416EBD8D331F46B39221A4C38A815F35","019ce687-1a6d-77cd-a0bd-522cafea281e","019ce643-47c6-74a0-b3d2-7bf5651ded46","","null","
                    <div class=""stimulus-container"">
                        <img src=""images/causal_sequence/coin_causal/coin_causal_4.png"" class=""exp-image"">
                        <div class=""question-area""></div> 
                    </div>","null","","","","","","",""
"","","","","","html-button-response","23","651748","0.0-23.0","416EBD8D331F46B39221A4C38A815F35","019ce687-1a6d-77cd-a0bd-522cafea281e","019ce643-47c6-74a0-b3d2-7bf5651ded46","","1156","
                    <div class=""stimulus-container"">
                        <img src=""images/causal_sequence/coin_causal/coin_causal_4.png"" class=""exp-image"">
                        <div class=""question-area"">
                            <p style=""font-size: 20px; font-weight: bold; margin: 0;"">Is there a person in this image?</p>
                        </div>
                    </div>","0","main_causal_task","4","coin_causal","","","",""
"","","","","","html-keyboard-response","24","656752","0.0-24.0","416EBD8D331F46B39221A4C38A815F35","019ce687-1a6d-77cd-a0bd-522cafea281e","019ce643-47c6-74a0-b3d2-7bf5651ded46","","null","
                    <div class=""stimulus-container"">
                        <img src=""images/causal_sequence/coin_causal/coin_causal_5.png"" class=""exp-image"">
                        <div class=""question-area""></div> 
                    </div>","null","","","","","","",""
"","","","","","html-button-response","25","657848","0.0-25.0","416EBD8D331F46B39221A4C38A815F35","019ce687-1a6d-77cd-a0bd-522cafea281e","019ce643-47c6-74a0-b3d2-7bf5651ded46","","1095","
                    <div class=""stimulus-container"">
                        <img src=""images/causal_sequence/coin_causal/coin_causal_5.png"" class=""exp-image"">
                        <div class=""question-area"">
                            <p style=""font-size: 20px; font-weight: bold; margin: 0;"">Is there a person in this image?</p>
                        </div>
                    </div>","0","main_causal_task","5","coin_causal","","","",""
"","","","","","html-keyboard-response","26","662853","0.0-26.0","416EBD8D331F46B39221A4C38A815F35","019ce687-1a6d-77cd-a0bd-522cafea281e","019ce643-47c6-74a0-b3d2-7bf5651ded46","","null","
                    <div class=""stimulus-container"">
                        <img src=""images/causal_sequence/coin_causal/coin_causal_6.png"" class=""exp-image"">
                        <div class=""question-area""></div> 
                    </div>","null","","","","","","",""
"","","","","","html-button-response","27","664182","0.0-27.0","416EBD8D331F46B39221A4C38A815F35","019ce687-1a6d-77cd-a0bd-522cafea281e","019ce643-47c6-74a0-b3d2-7bf5651ded46","","1328","
                    <div class=""stimulus-container"">
                        <img src=""images/causal_sequence/coin_causal/coin_causal_6.png"" class=""exp-image"">
                        <div class=""question-area"">
                            <p style=""font-size: 20px; font-weight: bold; margin: 0;"">Is there a person in this image?</p>
                        </div>
                    </div>","0","main_causal_task","6","coin_causal","","","",""
"","","","","","html-keyboard-response","28","669191","0.0-28.0","416EBD8D331F46B39221A4C38A815F35","019ce687-1a6d-77cd-a0bd-522cafea281e","019ce643-47c6-74a0-b3d2-7bf5651ded46","","null","
                    <div class=""stimulus-container"">
                        <img src=""images/causal_sequence/coin_causal/coin_causal_7.png"" class=""exp-image"">
                        <div class=""question-area""></div> 
                    </div>","null","","","","","","",""
"","","","","","html-button-response","29","669985","0.0-29.0","416EBD8D331F46B39221A4C38A815F35","019ce687-1a6d-77cd-a0bd-522cafea281e","019ce643-47c6-74a0-b3d2-7bf5651ded46","","793","
                    <div class=""stimulus-container"">
                        <img src=""images/causal_sequence/coin_causal/coin_causal_7.png"" class=""exp-image"">
                        <div class=""question-area"">
                            <p style=""font-size: 20px; font-weight: bold; margin: 0;"">Is there a person in this image?</p>
                        </div>
                    </div>","1","main_causal_task","7","coin_causal","","","",""
"","","","","","html-keyboard-response","30","674987","0.0-30.0","416EBD8D331F46B39221A4C38A815F35","019ce687-1a6d-77cd-a0bd-522cafea281e","019ce643-47c6-74a0-b3d2-7bf5651ded46","","null","
                    <div class=""stimulus-container"">
                        <img src=""images/causal_sequence/coin_causal/coin_causal_8.png"" class=""exp-image"">
                        <div class=""question-area""></div> 
                    </div>","null","","","","","","",""
"","","","","","html-button-response","31","676049","0.0-31.0","416EBD8D331F46B39221A4C38A815F35","019ce687-1a6d-77cd-a0bd-522cafea281e","019ce643-47c6-74a0-b3d2-7bf5651ded46","","1061","
                    <div class=""stimulus-container"">
                        <img src=""images/causal_sequence/coin_causal/coin_causal_8.png"" class=""exp-image"">
                        <div class=""question-area"">
                            <p style=""font-size: 20px; font-weight: bold; margin: 0;"">Is there a person in this image?</p>
                        </div>
                    </div>","0","main_causal_task","8","coin_causal","","","",""
"","","","","","html-keyboard-response","32","681052","0.0-32.0","416EBD8D331F46B39221A4C38A815F35","019ce687-1a6d-77cd-a0bd-522cafea281e","019ce643-47c6-74a0-b3d2-7bf5651ded46","","null","
                    <div class=""stimulus-container"">
                        <img src=""images/causal_sequence/coin_causal/coin_causal_9.png"" class=""exp-image"">
                        <div class=""question-area""></div> 
                    </div>","null","","","","","","",""
"","","","","","html-button-response","33","682505","0.0-33.0","416EBD8D331F46B39221A4C38A815F35","019ce687-1a6d-77cd-a0bd-522cafea281e","019ce643-47c6-74a0-b3d2-7bf5651ded46","","1453","
                    <div class=""stimulus-container"">
                        <img src=""images/causal_sequence/coin_causal/coin_causal_9.png"" class=""exp-image"">
                        <div class=""question-area"">
                            <p style=""font-size: 20px; font-weight: bold; margin: 0;"">Is there a person in this image?</p>
                        </div>
                    </div>","0","main_causal_task","9","coin_causal","","","",""
"","","","","","html-keyboard-response","34","683517","0.0-34.0","416EBD8D331F46B39221A4C38A815F35","019ce687-1a6d-77cd-a0bd-522cafea281e","019ce643-47c6-74a0-b3d2-7bf5651ded46","","null","<div style=""background-color: gray; width: 100vw; height: 100vh;""></div>","null","","","","","","",""
"","","","","","html-keyboard-response","35","688528","0.0-35.0","416EBD8D331F46B39221A4C38A815F35","019ce687-1a6d-77cd-a0bd-522cafea281e","019ce643-47c6-74a0-b3d2-7bf5651ded46","","null","
                    <div class=""stimulus-container"">
                        <img src=""images/causal_sequence/museum_causal/museum_causal_1.png"" class=""exp-image"">
                        <div class=""question-area""></div> 
                    </div>","null","","","","","","",""
"","","","","","html-button-response","36","690115","0.0-36.0","416EBD8D331F46B39221A4C38A815F35","019ce687-1a6d-77cd-a0bd-522cafea281e","019ce643-47c6-74a0-b3d2-7bf5651ded46","","1586","
                    <div class=""stimulus-container"">
                        <img src=""images/causal_sequence/museum_causal/museum_causal_1.png"" class=""exp-image"">
                        <div class=""question-area"">
                            <p style=""font-size: 20px; font-weight: bold; margin: 0;"">Is there a person in this image?</p>
                        </div>
                    </div>","0","main_causal_task","1","museum_causal","","","",""
"","","","","","html-keyboard-response","37","695119","0.0-37.0","416EBD8D331F46B39221A4C38A815F35","019ce687-1a6d-77cd-a0bd-522cafea281e","019ce643-47c6-74a0-b3d2-7bf5651ded46","","null","
                    <div class=""stimulus-container"">
                        <img src=""images/causal_sequence/museum_causal/museum_causal_2.png"" class=""exp-image"">
                        <div class=""question-area""></div> 
                    </div>","null","","","","","","",""
"","","","","","html-button-response","38","695848","0.0-38.0","416EBD8D331F46B39221A4C38A815F35","019ce687-1a6d-77cd-a0bd-522cafea281e","019ce643-47c6-74a0-b3d2-7bf5651ded46","","728","
                    <div class=""stimulus-container"">
                        <img src=""images/causal_sequence/museum_causal/museum_causal_2.png"" class=""exp-image"">
                        <div class=""question-area"">
                            <p style=""font-size: 20px; font-weight: bold; margin: 0;"">Is there a person in this image?</p>
                        </div>
                    </div>","0","main_causal_task","2","museum_causal","","","",""
"","","","","","html-keyboard-response","39","700854","0.0-39.0","416EBD8D331F46B39221A4C38A815F35","019ce687-1a6d-77cd-a0bd-522cafea281e","019ce643-47c6-74a0-b3d2-7bf5651ded46","","null","
                    <div class=""stimulus-container"">
                        <img src=""images/causal_sequence/museum_causal/museum_causal_3.png"" class=""exp-image"">
                        <div class=""question-area""></div> 
                    </div>","null","","","","","","",""
"","","","","","html-button-response","40","701447","0.0-40.0","416EBD8D331F46B39221A4C38A815F35","019ce687-1a6d-77cd-a0bd-522cafea281e","019ce643-47c6-74a0-b3d2-7bf5651ded46","","592","
                    <div class=""stimulus-container"">
                        <img src=""images/causal_sequence/museum_causal/museum_causal_3.png"" class=""exp-image"">
                        <div class=""question-area"">
                            <p style=""font-size: 20px; font-weight: bold; margin: 0;"">Is there a person in this image?</p>
                        </div>
                    </div>","0","main_causal_task","3","museum_causal","","","",""
"","","","","","html-keyboard-response","41","706454","0.0-41.0","416EBD8D331F46B39221A4C38A815F35","019ce687-1a6d-77cd-a0bd-522cafea281e","019ce643-47c6-74a0-b3d2-7bf5651ded46","","null","
                    <div class=""stimulus-container"">
                        <img src=""images/causal_sequence/museum_causal/museum_causal_4.png"" class=""exp-image"">
                        <div class=""question-area""></div> 
                    </div>","null","","","","","","",""
"","","","","","html-button-response","42","707423","0.0-42.0","416EBD8D331F46B39221A4C38A815F35","019ce687-1a6d-77cd-a0bd-522cafea281e","019ce643-47c6-74a0-b3d2-7bf5651ded46","","969","
                    <div class=""stimulus-container"">
                        <img src=""images/causal_sequence/museum_causal/museum_causal_4.png"" class=""exp-image"">
                        <div class=""question-area"">
                            <p style=""font-size: 20px; font-weight: bold; margin: 0;"">Is there a person in this image?</p>
                        </div>
                    </div>","1","main_causal_task","4","museum_causal","","","",""
"","","","","","html-keyboard-response","43","712434","0.0-43.0","416EBD8D331F46B39221A4C38A815F35","019ce687-1a6d-77cd-a0bd-522cafea281e","019ce643-47c6-74a0-b3d2-7bf5651ded46","","null","
                    <div class=""stimulus-container"">
                        <img src=""images/causal_sequence/museum_causal/museum_causal_5.png"" class=""exp-image"">
                        <div class=""question-area""></div> 
                    </div>","null","","","","","","",""
"","","","","","html-button-response","44","713474","0.0-44.0","416EBD8D331F46B39221A4C38A815F35","019ce687-1a6d-77cd-a0bd-522cafea281e","019ce643-47c6-74a0-b3d2-7bf5651ded46","","1039","
                    <div class=""stimulus-container"">
                        <img src=""images/causal_sequence/museum_causal/museum_causal_5.png"" class=""exp-image"">
                        <div class=""question-area"">
                            <p style=""font-size: 20px; font-weight: bold; margin: 0;"">Is there a person in this image?</p>
                        </div>
                    </div>","0","main_causal_task","5","museum_causal","","","",""
"","","","","","html-keyboard-response","45","718490","0.0-45.0","416EBD8D331F46B39221A4C38A815F35","019ce687-1a6d-77cd-a0bd-522cafea281e","019ce643-47c6-74a0-b3d2-7bf5651ded46","","null","
                    <div class=""stimulus-container"">
                        <img src=""images/causal_sequence/museum_causal/museum_causal_6.png"" class=""exp-image"">
                        <div class=""question-area""></div> 
                    </div>","null","","","","","","",""
"","","","","","html-button-response","46","719856","0.0-46.0","416EBD8D331F46B39221A4C38A815F35","019ce687-1a6d-77cd-a0bd-522cafea281e","019ce643-47c6-74a0-b3d2-7bf5651ded46","","1366","
                    <div class=""stimulus-container"">
                        <img src=""images/causal_sequence/museum_causal/museum_causal_6.png"" class=""exp-image"">
                        <div class=""question-area"">
                            <p style=""font-size: 20px; font-weight: bold; margin: 0;"">Is there a person in this image?</p>
                        </div>
                    </div>","0","main_causal_task","6","museum_causal","","","",""
"","","","","","html-keyboard-response","47","724859","0.0-47.0","416EBD8D331F46B39221A4C38A815F35","019ce687-1a6d-77cd-a0bd-522cafea281e","019ce643-47c6-74a0-b3d2-7bf5651ded46","","null","
                    <div class=""stimulus-container"">
                        <img src=""images/causal_sequence/museum_causal/museum_causal_7.png"" class=""exp-image"">
                        <div class=""question-area""></div> 
                    </div>","null","","","","","","",""
"","","","","","html-button-response","48","725557","0.0-48.0","416EBD8D331F46B39221A4C38A815F35","019ce687-1a6d-77cd-a0bd-522cafea281e","019ce643-47c6-74a0-b3d2-7bf5651ded46","","697","
                    <div class=""stimulus-container"">
                        <img src=""images/causal_sequence/museum_causal/museum_causal_7.png"" class=""exp-image"">
                        <div class=""question-area"">
                            <p style=""font-size: 20px; font-weight: bold; margin: 0;"">Is there a person in this image?</p>
                        </div>
                    </div>","1","main_causal_task","7","museum_causal","","","",""
"","","","","","html-keyboard-response","49","730569","0.0-49.0","416EBD8D331F46B39221A4C38A815F35","019ce687-1a6d-77cd-a0bd-522cafea281e","019ce643-47c6-74a0-b3d2-7bf5651ded46","","null","
                    <div class=""stimulus-container"">
                        <img src=""images/causal_sequence/museum_causal/museum_causal_8.png"" class=""exp-image"">
                        <div class=""question-area""></div> 
                    </div>","null","","","","","","",""
"","","","","","html-button-response","50","731233","0.0-50.0","416EBD8D331F46B39221A4C38A815F35","019ce687-1a6d-77cd-a0bd-522cafea281e","019ce643-47c6-74a0-b3d2-7bf5651ded46","","663","
                    <div class=""stimulus-container"">
                        <img src=""images/causal_sequence/museum_causal/museum_causal_8.png"" class=""exp-image"">
                        <div class=""question-area"">
                            <p style=""font-size: 20px; font-weight: bold; margin: 0;"">Is there a person in this image?</p>
                        </div>
                    </div>","0","main_causal_task","8","museum_causal","","","",""
"","","","","","html-keyboard-response","51","736246","0.0-51.0","416EBD8D331F46B39221A4C38A815F35","019ce687-1a6d-77cd-a0bd-522cafea281e","019ce643-47c6-74a0-b3d2-7bf5651ded46","","null","
                    <div class=""stimulus-container"">
                        <img src=""images/causal_sequence/museum_causal/museum_causal_9.png"" class=""exp-image"">
                        <div class=""question-area""></div> 
                    </div>","null","","","","","","",""
"","","","","","html-button-response","52","737107","0.0-52.0","416EBD8D331F46B39221A4C38A815F35","019ce687-1a6d-77cd-a0bd-522cafea281e","019ce643-47c6-74a0-b3d2-7bf5651ded46","","860","
                    <div class=""stimulus-container"">
                        <img src=""images/causal_sequence/museum_causal/museum_causal_9.png"" class=""exp-image"">
                        <div class=""question-area"">
                            <p style=""font-size: 20px; font-weight: bold; margin: 0;"">Is there a person in this image?</p>
                        </div>
                    </div>","1","main_causal_task","9","museum_causal","","","",""
"","","","","","html-keyboard-response","53","738113","0.0-53.0","416EBD8D331F46B39221A4C38A815F35","019ce687-1a6d-77cd-a0bd-522cafea281e","019ce643-47c6-74a0-b3d2-7bf5651ded46","","null","<div style=""background-color: gray; width: 100vw; height: 100vh;""></div>","null","","","","","","",""
"","","","","","html-keyboard-response","54","743116","0.0-54.0","416EBD8D331F46B39221A4C38A815F35","019ce687-1a6d-77cd-a0bd-522cafea281e","019ce643-47c6-74a0-b3d2-7bf5651ded46","","null","
                    <div class=""stimulus-container"">
                        <img src=""images/causal_sequence/dog_causal/dog_causal_1.png"" class=""exp-image"">
                        <div class=""question-area""></div> 
                    </div>","null","","","","","","",""
"","","","","","html-button-response","55","744496","0.0-55.0","416EBD8D331F46B39221A4C38A815F35","019ce687-1a6d-77cd-a0bd-522cafea281e","019ce643-47c6-74a0-b3d2-7bf5651ded46","","1379","
                    <div class=""stimulus-container"">
                        <img src=""images/causal_sequence/dog_causal/dog_causal_1.png"" class=""exp-image"">
                        <div class=""question-area"">
                            <p style=""font-size: 20px; font-weight: bold; margin: 0;"">Is there a person in this image?</p>
                        </div>
                    </div>","0","main_causal_task","1","dog_causal","","","",""
"","","","","","html-keyboard-response","56","749505","0.0-56.0","416EBD8D331F46B39221A4C38A815F35","019ce687-1a6d-77cd-a0bd-522cafea281e","019ce643-47c6-74a0-b3d2-7bf5651ded46","","null","
                    <div class=""stimulus-container"">
                        <img src=""images/causal_sequence/dog_causal/dog_causal_2.png"" class=""exp-image"">
                        <div class=""question-area""></div> 
                    </div>","null","","","","","","",""
"","","","","","html-button-response","57","751197","0.0-57.0","416EBD8D331F46B39221A4C38A815F35","019ce687-1a6d-77cd-a0bd-522cafea281e","019ce643-47c6-74a0-b3d2-7bf5651ded46","","1690","
                    <div class=""stimulus-container"">
                        <img src=""images/causal_sequence/dog_causal/dog_causal_2.png"" class=""exp-image"">
                        <div class=""question-area"">
                            <p style=""font-size: 20px; font-weight: bold; margin: 0;"">Is there a person in this image?</p>
                        </div>
                    </div>","0","main_causal_task","2","dog_causal","","","",""
"","","","","","html-keyboard-response","58","756201","0.0-58.0","416EBD8D331F46B39221A4C38A815F35","019ce687-1a6d-77cd-a0bd-522cafea281e","019ce643-47c6-74a0-b3d2-7bf5651ded46","","null","
                    <div class=""stimulus-container"">
                        <img src=""images/causal_sequence/dog_causal/dog_causal_3.png"" class=""exp-image"">
                        <div class=""question-area""></div> 
                    </div>","null","","","","","","",""
"","","","","","html-button-response","59","757559","0.0-59.0","416EBD8D331F46B39221A4C38A815F35","019ce687-1a6d-77cd-a0bd-522cafea281e","019ce643-47c6-74a0-b3d2-7bf5651ded46","","1358","
                    <div class=""stimulus-container"">
                        <img src=""images/causal_sequence/dog_causal/dog_causal_3.png"" class=""exp-image"">
                        <div class=""question-area"">
                            <p style=""font-size: 20px; font-weight: bold; margin: 0;"">Is there a person in this image?</p>
                        </div>
                    </div>","0","main_causal_task","3","dog_causal","","","",""
"","","","","","html-keyboard-response","60","762566","0.0-60.0","416EBD8D331F46B39221A4C38A815F35","019ce687-1a6d-77cd-a0bd-522cafea281e","019ce643-47c6-74a0-b3d2-7bf5651ded46","","null","
                    <div class=""stimulus-container"">
                        <img src=""images/causal_sequence/dog_causal/dog_causal_4.png"" class=""exp-image"">
                        <div class=""question-area""></div> 
                    </div>","null","","","","","","",""
"","","","","","html-button-response","61","763538","0.0-61.0","416EBD8D331F46B39221A4C38A815F35","019ce687-1a6d-77cd-a0bd-522cafea281e","019ce643-47c6-74a0-b3d2-7bf5651ded46","","971","
                    <div class=""stimulus-container"">
                        <img src=""images/causal_sequence/dog_causal/dog_causal_4.png"" class=""exp-image"">
                        <div class=""question-area"">
                            <p style=""font-size: 20px; font-weight: bold; margin: 0;"">Is there a person in this image?</p>
                        </div>
                    </div>","0","main_causal_task","4","dog_causal","","","",""
"","","","","","html-keyboard-response","62","768545","0.0-62.0","416EBD8D331F46B39221A4C38A815F35","019ce687-1a6d-77cd-a0bd-522cafea281e","019ce643-47c6-74a0-b3d2-7bf5651ded46","","null","
                    <div class=""stimulus-container"">
                        <img src=""images/causal_sequence/dog_causal/dog_causal_5.png"" class=""exp-image"">
                        <div class=""question-area""></div> 
                    </div>","null","","","","","","",""
"","","","","","html-button-response","63","769159","0.0-63.0","416EBD8D331F46B39221A4C38A815F35","019ce687-1a6d-77cd-a0bd-522cafea281e","019ce643-47c6-74a0-b3d2-7bf5651ded46","","613","
                    <div class=""stimulus-container"">
                        <img src=""images/causal_sequence/dog_causal/dog_causal_5.png"" class=""exp-image"">
                        <div class=""question-area"">
                            <p style=""font-size: 20px; font-weight: bold; margin: 0;"">Is there a person in this image?</p>
                        </div>
                    </div>","0","main_causal_task","5","dog_causal","","","",""
"","","","","","html-keyboard-response","64","774170","0.0-64.0","416EBD8D331F46B39221A4C38A815F35","019ce687-1a6d-77cd-a0bd-522cafea281e","019ce643-47c6-74a0-b3d2-7bf5651ded46","","null","
                    <div class=""stimulus-container"">
                        <img src=""images/causal_sequence/dog_causal/dog_causal_6.png"" class=""exp-image"">
                        <div class=""question-area""></div> 
                    </div>","null","","","","","","",""
"","","","","","html-button-response","65","774764","0.0-65.0","416EBD8D331F46B39221A4C38A815F35","019ce687-1a6d-77cd-a0bd-522cafea281e","019ce643-47c6-74a0-b3d2-7bf5651ded46","","592","
                    <div class=""stimulus-container"">
                        <img src=""images/causal_sequence/dog_causal/dog_causal_6.png"" class=""exp-image"">
                        <div class=""question-area"">
                            <p style=""font-size: 20px; font-weight: bold; margin: 0;"">Is there a person in this image?</p>
                        </div>
                    </div>","0","main_causal_task","6","dog_causal","","","",""
"","","","","","html-keyboard-response","66","779774","0.0-66.0","416EBD8D331F46B39221A4C38A815F35","019ce687-1a6d-77cd-a0bd-522cafea281e","019ce643-47c6-74a0-b3d2-7bf5651ded46","","null","
                    <div class=""stimulus-container"">
                        <img src=""images/causal_sequence/dog_causal/dog_causal_7.png"" class=""exp-image"">
                        <div class=""question-area""></div> 
                    </div>","null","","","","","","",""
"","","","","","html-button-response","67","780825","0.0-67.0","416EBD8D331F46B39221A4C38A815F35","019ce687-1a6d-77cd-a0bd-522cafea281e","019ce643-47c6-74a0-b3d2-7bf5651ded46","","1050","
                    <div class=""stimulus-container"">
                        <img src=""images/causal_sequence/dog_causal/dog_causal_7.png"" class=""exp-image"">
                        <div class=""question-area"">
                            <p style=""font-size: 20px; font-weight: bold; margin: 0;"">Is there a person in this image?</p>
                        </div>
                    </div>","0","main_causal_task","7","dog_causal","","","",""
"","","","","","html-keyboard-response","68","785833","0.0-68.0","416EBD8D331F46B39221A4C38A815F35","019ce687-1a6d-77cd-a0bd-522cafea281e","019ce643-47c6-74a0-b3d2-7bf5651ded46","","null","
                    <div class=""stimulus-container"">
                        <img src=""images/causal_sequence/dog_causal/dog_causal_8.png"" class=""exp-image"">
                        <div class=""question-area""></div> 
                    </div>","null","","","","","","",""
"","","","","","html-button-response","69","786440","0.0-69.0","416EBD8D331F46B39221A4C38A815F35","019ce687-1a6d-77cd-a0bd-522cafea281e","019ce643-47c6-74a0-b3d2-7bf5651ded46","","606","
                    <div class=""stimulus-container"">
                        <img src=""images/causal_sequence/dog_causal/dog_causal_8.png"" class=""exp-image"">
                        <div class=""question-area"">
                            <p style=""font-size: 20px; font-weight: bold; margin: 0;"">Is there a person in this image?</p>
                        </div>
                    </div>","0","main_causal_task","8","dog_causal","","","",""
"","","","","","html-keyboard-response","70","791442","0.0-70.0","416EBD8D331F46B39221A4C38A815F35","019ce687-1a6d-77cd-a0bd-522cafea281e","019ce643-47c6-74a0-b3d2-7bf5651ded46","","null","
                    <div class=""stimulus-container"">
                        <img src=""images/causal_sequence/dog_causal/dog_causal_9.png"" class=""exp-image"">
                        <div class=""question-area""></div> 
                    </div>","null","","","","","","",""
"","","","","","html-button-response","71","792225","0.0-71.0","416EBD8D331F46B39221A4C38A815F35","019ce687-1a6d-77cd-a0bd-522cafea281e","019ce643-47c6-74a0-b3d2-7bf5651ded46","","782","
                    <div class=""stimulus-container"">
                        <img src=""images/causal_sequence/dog_causal/dog_causal_9.png"" class=""exp-image"">
                        <div class=""question-area"">
                            <p style=""font-size: 20px; font-weight: bold; margin: 0;"">Is there a person in this image?</p>
                        </div>
                    </div>","0","main_causal_task","9","dog_causal","","","",""
"","","","","","html-keyboard-response","72","793230","0.0-72.0","416EBD8D331F46B39221A4C38A815F35","019ce687-1a6d-77cd-a0bd-522cafea281e","019ce643-47c6-74a0-b3d2-7bf5651ded46","","null","<div style=""background-color: gray; width: 100vw; height: 100vh;""></div>","null","","","","","","",""
"","","","","","html-keyboard-response","73","798241","0.0-73.0","416EBD8D331F46B39221A4C38A815F35","019ce687-1a6d-77cd-a0bd-522cafea281e","019ce643-47c6-74a0-b3d2-7bf5651ded46","","null","
                    <div class=""stimulus-container"">
                        <img src=""images/causal_sequence/saving_a_cat_causal/saving_a_cat_causal_1.png"" class=""exp-image"">
                        <div class=""question-area""></div> 
                    </div>","null","","","","","","",""
"","","","","","html-button-response","74","798865","0.0-74.0","416EBD8D331F46B39221A4C38A815F35","019ce687-1a6d-77cd-a0bd-522cafea281e","019ce643-47c6-74a0-b3d2-7bf5651ded46","","623","
                    <div class=""stimulus-container"">
                        <img src=""images/causal_sequence/saving_a_cat_causal/saving_a_cat_causal_1.png"" class=""exp-image"">
                        <div class=""question-area"">
                            <p style=""font-size: 20px; font-weight: bold; margin: 0;"">Is there a person in this image?</p>
                        </div>
                    </div>","0","main_causal_task","1","saving_a_cat_causal","","","",""
"","","","","","html-keyboard-response","75","803871","0.0-75.0","416EBD8D331F46B39221A4C38A815F35","019ce687-1a6d-77cd-a0bd-522cafea281e","019ce643-47c6-74a0-b3d2-7bf5651ded46","","null","
                    <div class=""stimulus-container"">
                        <img src=""images/causal_sequence/saving_a_cat_causal/saving_a_cat_causal_2.png"" class=""exp-image"">
                        <div class=""question-area""></div> 
                    </div>","null","","","","","","",""
"","","","","","html-button-response","76","805082","0.0-76.0","416EBD8D331F46B39221A4C38A815F35","019ce687-1a6d-77cd-a0bd-522cafea281e","019ce643-47c6-74a0-b3d2-7bf5651ded46","","1211","
                    <div class=""stimulus-container"">
                        <img src=""images/causal_sequence/saving_a_cat_causal/saving_a_cat_causal_2.png"" class=""exp-image"">
                        <div class=""question-area"">
                            <p style=""font-size: 20px; font-weight: bold; margin: 0;"">Is there a person in this image?</p>
                        </div>
                    </div>","1","main_causal_task","2","saving_a_cat_causal","","","",""
"","","","","","html-keyboard-response","77","810084","0.0-77.0","416EBD8D331F46B39221A4C38A815F35","019ce687-1a6d-77cd-a0bd-522cafea281e","019ce643-47c6-74a0-b3d2-7bf5651ded46","","null","
                    <div class=""stimulus-container"">
                        <img src=""images/causal_sequence/saving_a_cat_causal/saving_a_cat_causal_3.png"" class=""exp-image"">
                        <div class=""question-area""></div> 
                    </div>","null","","","","","","",""
"","","","","","html-button-response","78","811096","0.0-78.0","416EBD8D331F46B39221A4C38A815F35","019ce687-1a6d-77cd-a0bd-522cafea281e","019ce643-47c6-74a0-b3d2-7bf5651ded46","","1011","
                    <div class=""stimulus-container"">
                        <img src=""images/causal_sequence/saving_a_cat_causal/saving_a_cat_causal_3.png"" class=""exp-image"">
                        <div class=""question-area"">
                            <p style=""font-size: 20px; font-weight: bold; margin: 0;"">Is there a person in this image?</p>
                        </div>
                    </div>","1","main_causal_task","3","saving_a_cat_causal","","","",""
"","","","","","html-keyboard-response","79","816098","0.0-79.0","416EBD8D331F46B39221A4C38A815F35","019ce687-1a6d-77cd-a0bd-522cafea281e","019ce643-47c6-74a0-b3d2-7bf5651ded46","","null","
                    <div class=""stimulus-container"">
                        <img src=""images/causal_sequence/saving_a_cat_causal/saving_a_cat_causal_4.png"" class=""exp-image"">
                        <div class=""question-area""></div> 
                    </div>","null","","","","","","",""
"","","","","","html-button-response","80","817489","0.0-80.0","416EBD8D331F46B39221A4C38A815F35","019ce687-1a6d-77cd-a0bd-522cafea281e","019ce643-47c6-74a0-b3d2-7bf5651ded46","","1390","
                    <div class=""stimulus-container"">
                        <img src=""images/causal_sequence/saving_a_cat_causal/saving_a_cat_causal_4.png"" class=""exp-image"">
                        <div class=""question-area"">
                            <p style=""font-size: 20px; font-weight: bold; margin: 0;"">Is there a person in this image?</p>
                        </div>
                    </div>","0","main_causal_task","4","saving_a_cat_causal","","","",""
"","","","","","html-keyboard-response","81","822499","0.0-81.0","416EBD8D331F46B39221A4C38A815F35","019ce687-1a6d-77cd-a0bd-522cafea281e","019ce643-47c6-74a0-b3d2-7bf5651ded46","","null","
                    <div class=""stimulus-container"">
                        <img src=""images/causal_sequence/saving_a_cat_causal/saving_a_cat_causal_5.png"" class=""exp-image"">
                        <div class=""question-area""></div> 
                    </div>","null","","","","","","",""
"","","","","","html-button-response","82","823423","0.0-82.0","416EBD8D331F46B39221A4C38A815F35","019ce687-1a6d-77cd-a0bd-522cafea281e","019ce643-47c6-74a0-b3d2-7bf5651ded46","","924","
                    <div class=""stimulus-container"">
                        <img src=""images/causal_sequence/saving_a_cat_causal/saving_a_cat_causal_5.png"" class=""exp-image"">
                        <div class=""question-area"">
                            <p style=""font-size: 20px; font-weight: bold; margin: 0;"">Is there a person in this image?</p>
                        </div>
                    </div>","0","main_causal_task","5","saving_a_cat_causal","","","",""
"","","","","","html-keyboard-response","83","828424","0.0-83.0","416EBD8D331F46B39221A4C38A815F35","019ce687-1a6d-77cd-a0bd-522cafea281e","019ce643-47c6-74a0-b3d2-7bf5651ded46","","null","
                    <div class=""stimulus-container"">
                        <img src=""images/causal_sequence/saving_a_cat_causal/saving_a_cat_causal_6.png"" class=""exp-image"">
                        <div class=""question-area""></div> 
                    </div>","null","","","","","","",""
"","","","","","html-button-response","84","829173","0.0-84.0","416EBD8D331F46B39221A4C38A815F35","019ce687-1a6d-77cd-a0bd-522cafea281e","019ce643-47c6-74a0-b3d2-7bf5651ded46","","748","
                    <div class=""stimulus-container"">
                        <img src=""images/causal_sequence/saving_a_cat_causal/saving_a_cat_causal_6.png"" class=""exp-image"">
                        <div class=""question-area"">
                            <p style=""font-size: 20px; font-weight: bold; margin: 0;"">Is there a person in this image?</p>
                        </div>
                    </div>","0","main_causal_task","6","saving_a_cat_causal","","","",""
"","","","","","html-keyboard-response","85","834180","0.0-85.0","416EBD8D331F46B39221A4C38A815F35","019ce687-1a6d-77cd-a0bd-522cafea281e","019ce643-47c6-74a0-b3d2-7bf5651ded46","","null","
                    <div class=""stimulus-container"">
                        <img src=""images/causal_sequence/saving_a_cat_causal/saving_a_cat_causal_7.png"" class=""exp-image"">
                        <div class=""question-area""></div> 
                    </div>","null","","","","","","",""
"","","","","","html-button-response","86","835254","0.0-86.0","416EBD8D331F46B39221A4C38A815F35","019ce687-1a6d-77cd-a0bd-522cafea281e","019ce643-47c6-74a0-b3d2-7bf5651ded46","","1073","
                    <div class=""stimulus-container"">
                        <img src=""images/causal_sequence/saving_a_cat_causal/saving_a_cat_causal_7.png"" class=""exp-image"">
                        <div class=""question-area"">
                            <p style=""font-size: 20px; font-weight: bold; margin: 0;"">Is there a person in this image?</p>
                        </div>
                    </div>","0","main_causal_task","7","saving_a_cat_causal","","","",""
"","","","","","html-keyboard-response","87","840264","0.0-87.0","416EBD8D331F46B39221A4C38A815F35","019ce687-1a6d-77cd-a0bd-522cafea281e","019ce643-47c6-74a0-b3d2-7bf5651ded46","","null","
                    <div class=""stimulus-container"">
                        <img src=""images/causal_sequence/saving_a_cat_causal/saving_a_cat_causal_8.png"" class=""exp-image"">
                        <div class=""question-area""></div> 
                    </div>","null","","","","","","",""
"","","","","","html-button-response","88","841740","0.0-88.0","416EBD8D331F46B39221A4C38A815F35","019ce687-1a6d-77cd-a0bd-522cafea281e","019ce643-47c6-74a0-b3d2-7bf5651ded46","","1475","
                    <div class=""stimulus-container"">
                        <img src=""images/causal_sequence/saving_a_cat_causal/saving_a_cat_causal_8.png"" class=""exp-image"">
                        <div class=""question-area"">
                            <p style=""font-size: 20px; font-weight: bold; margin: 0;"">Is there a person in this image?</p>
                        </div>
                    </div>","0","main_causal_task","8","saving_a_cat_causal","","","",""
"","","","","","html-keyboard-response","89","846747","0.0-89.0","416EBD8D331F46B39221A4C38A815F35","019ce687-1a6d-77cd-a0bd-522cafea281e","019ce643-47c6-74a0-b3d2-7bf5651ded46","","null","
                    <div class=""stimulus-container"">
                        <img src=""images/causal_sequence/saving_a_cat_causal/saving_a_cat_causal_9.png"" class=""exp-image"">
                        <div class=""question-area""></div> 
                    </div>","null","","","","","","",""
"","","","","","html-button-response","90","847363","0.0-90.0","416EBD8D331F46B39221A4C38A815F35","019ce687-1a6d-77cd-a0bd-522cafea281e","019ce643-47c6-74a0-b3d2-7bf5651ded46","","614","
                    <div class=""stimulus-container"">
                        <img src=""images/causal_sequence/saving_a_cat_causal/saving_a_cat_causal_9.png"" class=""exp-image"">
                        <div class=""question-area"">
                            <p style=""font-size: 20px; font-weight: bold; margin: 0;"">Is there a person in this image?</p>
                        </div>
                    </div>","0","main_causal_task","9","saving_a_cat_causal","","","",""
"","","","","","html-keyboard-response","91","848367","0.0-91.0","416EBD8D331F46B39221A4C38A815F35","019ce687-1a6d-77cd-a0bd-522cafea281e","019ce643-47c6-74a0-b3d2-7bf5651ded46","","null","<div style=""background-color: gray; width: 100vw; height: 100vh;""></div>","null","","","","","","",""
"","","","","","html-keyboard-response","92","853371","0.0-92.0","416EBD8D331F46B39221A4C38A815F35","019ce687-1a6d-77cd-a0bd-522cafea281e","019ce643-47c6-74a0-b3d2-7bf5651ded46","","null","
                    <div class=""stimulus-container"">
                        <img src=""images/causal_sequence/the_performance_causal/the_performance_causal_1.png"" class=""exp-image"">
                        <div class=""question-area""></div> 
                    </div>","null","","","","","","",""
"","","","","","html-button-response","93","854191","0.0-93.0","416EBD8D331F46B39221A4C38A815F35","019ce687-1a6d-77cd-a0bd-522cafea281e","019ce643-47c6-74a0-b3d2-7bf5651ded46","","819","
                    <div class=""stimulus-container"">
                        <img src=""images/causal_sequence/the_performance_causal/the_performance_causal_1.png"" class=""exp-image"">
                        <div class=""question-area"">
                            <p style=""font-size: 20px; font-weight: bold; margin: 0;"">Is there a person in this image?</p>
                        </div>
                    </div>","0","main_causal_task","1","the_performance_causal","","","",""
"","","","","","html-keyboard-response","94","859195","0.0-94.0","416EBD8D331F46B39221A4C38A815F35","019ce687-1a6d-77cd-a0bd-522cafea281e","019ce643-47c6-74a0-b3d2-7bf5651ded46","","null","
                    <div class=""stimulus-container"">
                        <img src=""images/causal_sequence/the_performance_causal/the_performance_causal_2.png"" class=""exp-image"">
                        <div class=""question-area""></div> 
                    </div>","null","","","","","","",""
"","","","","","html-button-response","95","860684","0.0-95.0","416EBD8D331F46B39221A4C38A815F35","019ce687-1a6d-77cd-a0bd-522cafea281e","019ce643-47c6-74a0-b3d2-7bf5651ded46","","1488","
                    <div class=""stimulus-container"">
                        <img src=""images/causal_sequence/the_performance_causal/the_performance_causal_2.png"" class=""exp-image"">
                        <div class=""question-area"">
                            <p style=""font-size: 20px; font-weight: bold; margin: 0;"">Is there a person in this image?</p>
                        </div>
                    </div>","0","main_causal_task","2","the_performance_causal","","","",""
"","","","","","html-keyboard-response","96","865685","0.0-96.0","416EBD8D331F46B39221A4C38A815F35","019ce687-1a6d-77cd-a0bd-522cafea281e","019ce643-47c6-74a0-b3d2-7bf5651ded46","","null","
                    <div class=""stimulus-container"">
                        <img src=""images/causal_sequence/the_performance_causal/the_performance_causal_3.png"" class=""exp-image"">
                        <div class=""question-area""></div> 
                    </div>","null","","","","","","",""
"","","","","","html-button-response","97","866726","0.0-97.0","416EBD8D331F46B39221A4C38A815F35","019ce687-1a6d-77cd-a0bd-522cafea281e","019ce643-47c6-74a0-b3d2-7bf5651ded46","","1040","
                    <div class=""stimulus-container"">
                        <img src=""images/causal_sequence/the_performance_causal/the_performance_causal_3.png"" class=""exp-image"">
                        <div class=""question-area"">
                            <p style=""font-size: 20px; font-weight: bold; margin: 0;"">Is there a person in this image?</p>
                        </div>
                    </div>","0","main_causal_task","3","the_performance_causal","","","",""
"","","","","","html-keyboard-response","98","871735","0.0-98.0","416EBD8D331F46B39221A4C38A815F35","019ce687-1a6d-77cd-a0bd-522cafea281e","019ce643-47c6-74a0-b3d2-7bf5651ded46","","null","
                    <div class=""stimulus-container"">
                        <img src=""images/causal_sequence/the_performance_causal/the_performance_causal_4.png"" class=""exp-image"">
                        <div class=""question-area""></div> 
                    </div>","null","","","","","","",""
"","","","","","html-button-response","99","873116","0.0-99.0","416EBD8D331F46B39221A4C38A815F35","019ce687-1a6d-77cd-a0bd-522cafea281e","019ce643-47c6-74a0-b3d2-7bf5651ded46","","1379","
                    <div class=""stimulus-container"">
                        <img src=""images/causal_sequence/the_performance_causal/the_performance_causal_4.png"" class=""exp-image"">
                        <div class=""question-area"">
                            <p style=""font-size: 20px; font-weight: bold; margin: 0;"">Is there a person in this image?</p>
                        </div>
                    </div>","0","main_causal_task","4","the_performance_causal","","","",""
"","","","","","html-keyboard-response","100","878122","0.0-100.0","416EBD8D331F46B39221A4C38A815F35","019ce687-1a6d-77cd-a0bd-522cafea281e","019ce643-47c6-74a0-b3d2-7bf5651ded46","","null","
                    <div class=""stimulus-container"">
                        <img src=""images/causal_sequence/the_performance_causal/the_performance_causal_5.png"" class=""exp-image"">
                        <div class=""question-area""></div> 
                    </div>","null","","","","","","",""
"","","","","","html-button-response","101","879374","0.0-101.0","416EBD8D331F46B39221A4C38A815F35","019ce687-1a6d-77cd-a0bd-522cafea281e","019ce643-47c6-74a0-b3d2-7bf5651ded46","","1252","
                    <div class=""stimulus-container"">
                        <img src=""images/causal_sequence/the_performance_causal/the_performance_causal_5.png"" class=""exp-image"">
                        <div class=""question-area"">
                            <p style=""font-size: 20px; font-weight: bold; margin: 0;"">Is there a person in this image?</p>
                        </div>
                    </div>","0","main_causal_task","5","the_performance_causal","","","",""
"","","","","","html-keyboard-response","102","884387","0.0-102.0","416EBD8D331F46B39221A4C38A815F35","019ce687-1a6d-77cd-a0bd-522cafea281e","019ce643-47c6-74a0-b3d2-7bf5651ded46","","null","
                    <div class=""stimulus-container"">
                        <img src=""images/causal_sequence/the_performance_causal/the_performance_causal_6.png"" class=""exp-image"">
                        <div class=""question-area""></div> 
                    </div>","null","","","","","","",""
"","","","","","html-button-response","103","885406","0.0-103.0","416EBD8D331F46B39221A4C38A815F35","019ce687-1a6d-77cd-a0bd-522cafea281e","019ce643-47c6-74a0-b3d2-7bf5651ded46","","1018","
                    <div class=""stimulus-container"">
                        <img src=""images/causal_sequence/the_performance_causal/the_performance_causal_6.png"" class=""exp-image"">
                        <div class=""question-area"">
                            <p style=""font-size: 20px; font-weight: bold; margin: 0;"">Is there a person in this image?</p>
                        </div>
                    </div>","0","main_causal_task","6","the_performance_causal","","","",""
"","","","","","html-keyboard-response","104","890408","0.0-104.0","416EBD8D331F46B39221A4C38A815F35","019ce687-1a6d-77cd-a0bd-522cafea281e","019ce643-47c6-74a0-b3d2-7bf5651ded46","","null","
                    <div class=""stimulus-container"">
                        <img src=""images/causal_sequence/the_performance_causal/the_performance_causal_7.png"" class=""exp-image"">
                        <div class=""question-area""></div> 
                    </div>","null","","","","","","",""
"","","","","","html-button-response","105","891395","0.0-105.0","416EBD8D331F46B39221A4C38A815F35","019ce687-1a6d-77cd-a0bd-522cafea281e","019ce643-47c6-74a0-b3d2-7bf5651ded46","","986","
                    <div class=""stimulus-container"">
                        <img src=""images/causal_sequence/the_performance_causal/the_performance_causal_7.png"" class=""exp-image"">
                        <div class=""question-area"">
                            <p style=""font-size: 20px; font-weight: bold; margin: 0;"">Is there a person in this image?</p>
                        </div>
                    </div>","0","main_causal_task","7","the_performance_causal","","","",""
"","","","","","html-keyboard-response","106","896402","0.0-106.0","416EBD8D331F46B39221A4C38A815F35","019ce687-1a6d-77cd-a0bd-522cafea281e","019ce643-47c6-74a0-b3d2-7bf5651ded46","","null","
                    <div class=""stimulus-container"">
                        <img src=""images/causal_sequence/the_performance_causal/the_performance_causal_8.png"" class=""exp-image"">
                        <div class=""question-area""></div> 
                    </div>","null","","","","","","",""
"","","","","","html-button-response","107","898183","0.0-107.0","416EBD8D331F46B39221A4C38A815F35","019ce687-1a6d-77cd-a0bd-522cafea281e","019ce643-47c6-74a0-b3d2-7bf5651ded46","","1781","
                    <div class=""stimulus-container"">
                        <img src=""images/causal_sequence/the_performance_causal/the_performance_causal_8.png"" class=""exp-image"">
                        <div class=""question-area"">
                            <p style=""font-size: 20px; font-weight: bold; margin: 0;"">Is there a person in this image?</p>
                        </div>
                    </div>","0","main_causal_task","8","the_performance_causal","","","",""
"","","","","","html-keyboard-response","108","903190","0.0-108.0","416EBD8D331F46B39221A4C38A815F35","019ce687-1a6d-77cd-a0bd-522cafea281e","019ce643-47c6-74a0-b3d2-7bf5651ded46","","null","
                    <div class=""stimulus-container"">
                        <img src=""images/causal_sequence/the_performance_causal/the_performance_causal_9.png"" class=""exp-image"">
                        <div class=""question-area""></div> 
                    </div>","null","","","","","","",""
"","","","","","html-button-response","109","903707","0.0-109.0","416EBD8D331F46B39221A4C38A815F35","019ce687-1a6d-77cd-a0bd-522cafea281e","019ce643-47c6-74a0-b3d2-7bf5651ded46","","516","
                    <div class=""stimulus-container"">
                        <img src=""images/causal_sequence/the_performance_causal/the_performance_causal_9.png"" class=""exp-image"">
                        <div class=""question-area"">
                            <p style=""font-size: 20px; font-weight: bold; margin: 0;"">Is there a person in this image?</p>
                        </div>
                    </div>","0","main_causal_task","9","the_performance_causal","","","",""
"","","","","","html-keyboard-response","110","904708","0.0-110.0","416EBD8D331F46B39221A4C38A815F35","019ce687-1a6d-77cd-a0bd-522cafea281e","019ce643-47c6-74a0-b3d2-7bf5651ded46","","null","<div style=""background-color: gray; width: 100vw; height: 100vh;""></div>","null","","","","","","",""
"","","","","","html-keyboard-response","111","909712","0.0-111.0","416EBD8D331F46B39221A4C38A815F35","019ce687-1a6d-77cd-a0bd-522cafea281e","019ce643-47c6-74a0-b3d2-7bf5651ded46","","null","
                    <div class=""stimulus-container"">
                        <img src=""images/causal_sequence/package_causal/package_causal_1.png"" class=""exp-image"">
                        <div class=""question-area""></div> 
                    </div>","null","","","","","","",""
"","","","","","html-button-response","112","910677","0.0-112.0","416EBD8D331F46B39221A4C38A815F35","019ce687-1a6d-77cd-a0bd-522cafea281e","019ce643-47c6-74a0-b3d2-7bf5651ded46","","965","
                    <div class=""stimulus-container"">
                        <img src=""images/causal_sequence/package_causal/package_causal_1.png"" class=""exp-image"">
                        <div class=""question-area"">
                            <p style=""font-size: 20px; font-weight: bold; margin: 0;"">Is there a person in this image?</p>
                        </div>
                    </div>","0","main_causal_task","1","package_causal","","","",""
"","","","","","html-keyboard-response","113","915679","0.0-113.0","416EBD8D331F46B39221A4C38A815F35","019ce687-1a6d-77cd-a0bd-522cafea281e","019ce643-47c6-74a0-b3d2-7bf5651ded46","","null","
                    <div class=""stimulus-container"">
                        <img src=""images/causal_sequence/package_causal/package_causal_2.png"" class=""exp-image"">
                        <div class=""question-area""></div> 
                    </div>","null","","","","","","",""
"","","","","","html-button-response","114","917386","0.0-114.0","416EBD8D331F46B39221A4C38A815F35","019ce687-1a6d-77cd-a0bd-522cafea281e","019ce643-47c6-74a0-b3d2-7bf5651ded46","","1705","
                    <div class=""stimulus-container"">
                        <img src=""images/causal_sequence/package_causal/package_causal_2.png"" class=""exp-image"">
                        <div class=""question-area"">
                            <p style=""font-size: 20px; font-weight: bold; margin: 0;"">Is there a person in this image?</p>
                        </div>
                    </div>","0","main_causal_task","2","package_causal","","","",""
"","","","","","html-keyboard-response","115","922400","0.0-115.0","416EBD8D331F46B39221A4C38A815F35","019ce687-1a6d-77cd-a0bd-522cafea281e","019ce643-47c6-74a0-b3d2-7bf5651ded46","","null","
                    <div class=""stimulus-container"">
                        <img src=""images/causal_sequence/package_causal/package_causal_3.png"" class=""exp-image"">
                        <div class=""question-area""></div> 
                    </div>","null","","","","","","",""
"","","","","","html-button-response","116","924022","0.0-116.0","416EBD8D331F46B39221A4C38A815F35","019ce687-1a6d-77cd-a0bd-522cafea281e","019ce643-47c6-74a0-b3d2-7bf5651ded46","","1622","
                    <div class=""stimulus-container"">
                        <img src=""images/causal_sequence/package_causal/package_causal_3.png"" class=""exp-image"">
                        <div class=""question-area"">
                            <p style=""font-size: 20px; font-weight: bold; margin: 0;"">Is there a person in this image?</p>
                        </div>
                    </div>","0","main_causal_task","3","package_causal","","","",""
"","","","","","html-keyboard-response","117","929024","0.0-117.0","416EBD8D331F46B39221A4C38A815F35","019ce687-1a6d-77cd-a0bd-522cafea281e","019ce643-47c6-74a0-b3d2-7bf5651ded46","","null","
                    <div class=""stimulus-container"">
                        <img src=""images/causal_sequence/package_causal/package_causal_4.png"" class=""exp-image"">
                        <div class=""question-area""></div> 
                    </div>","null","","","","","","",""
"","","","","","html-button-response","118","929682","0.0-118.0","416EBD8D331F46B39221A4C38A815F35","019ce687-1a6d-77cd-a0bd-522cafea281e","019ce643-47c6-74a0-b3d2-7bf5651ded46","","657","
                    <div class=""stimulus-container"">
                        <img src=""images/causal_sequence/package_causal/package_causal_4.png"" class=""exp-image"">
                        <div class=""question-area"">
                            <p style=""font-size: 20px; font-weight: bold; margin: 0;"">Is there a person in this image?</p>
                        </div>
                    </div>","1","main_causal_task","4","package_causal","","","",""
"","","","","","html-keyboard-response","119","934698","0.0-119.0","416EBD8D331F46B39221A4C38A815F35","019ce687-1a6d-77cd-a0bd-522cafea281e","019ce643-47c6-74a0-b3d2-7bf5651ded46","","null","
                    <div class=""stimulus-container"">
                        <img src=""images/causal_sequence/package_causal/package_causal_5.png"" class=""exp-image"">
                        <div class=""question-area""></div> 
                    </div>","null","","","","","","",""
"","","","","","html-button-response","120","935461","0.0-120.0","416EBD8D331F46B39221A4C38A815F35","019ce687-1a6d-77cd-a0bd-522cafea281e","019ce643-47c6-74a0-b3d2-7bf5651ded46","","762","
                    <div class=""stimulus-container"">
                        <img src=""images/causal_sequence/package_causal/package_causal_5.png"" class=""exp-image"">
                        <div class=""question-area"">
                            <p style=""font-size: 20px; font-weight: bold; margin: 0;"">Is there a person in this image?</p>
                        </div>
                    </div>","0","main_causal_task","5","package_causal","","","",""
"","","","","","html-keyboard-response","121","940462","0.0-121.0","416EBD8D331F46B39221A4C38A815F35","019ce687-1a6d-77cd-a0bd-522cafea281e","019ce643-47c6-74a0-b3d2-7bf5651ded46","","null","
                    <div class=""stimulus-container"">
                        <img src=""images/causal_sequence/package_causal/package_causal_6.png"" class=""exp-image"">
                        <div class=""question-area""></div> 
                    </div>","null","","","","","","",""
"","","","","","html-button-response","122","941071","0.0-122.0","416EBD8D331F46B39221A4C38A815F35","019ce687-1a6d-77cd-a0bd-522cafea281e","019ce643-47c6-74a0-b3d2-7bf5651ded46","","608","
                    <div class=""stimulus-container"">
                        <img src=""images/causal_sequence/package_causal/package_causal_6.png"" class=""exp-image"">
                        <div class=""question-area"">
                            <p style=""font-size: 20px; font-weight: bold; margin: 0;"">Is there a person in this image?</p>
                        </div>
                    </div>","0","main_causal_task","6","package_causal","","","",""
"","","","","","html-keyboard-response","123","946079","0.0-123.0","416EBD8D331F46B39221A4C38A815F35","019ce687-1a6d-77cd-a0bd-522cafea281e","019ce643-47c6-74a0-b3d2-7bf5651ded46","","null","
                    <div class=""stimulus-container"">
                        <img src=""images/causal_sequence/package_causal/package_causal_7.png"" class=""exp-image"">
                        <div class=""question-area""></div> 
                    </div>","null","","","","","","",""
"","","","","","html-button-response","124","946680","0.0-124.0","416EBD8D331F46B39221A4C38A815F35","019ce687-1a6d-77cd-a0bd-522cafea281e","019ce643-47c6-74a0-b3d2-7bf5651ded46","","600","
                    <div class=""stimulus-container"">
                        <img src=""images/causal_sequence/package_causal/package_causal_7.png"" class=""exp-image"">
                        <div class=""question-area"">
                            <p style=""font-size: 20px; font-weight: bold; margin: 0;"">Is there a person in this image?</p>
                        </div>
                    </div>","0","main_causal_task","7","package_causal","","","",""
"","","","","","html-keyboard-response","125","951684","0.0-125.0","416EBD8D331F46B39221A4C38A815F35","019ce687-1a6d-77cd-a0bd-522cafea281e","019ce643-47c6-74a0-b3d2-7bf5651ded46","","null","
                    <div class=""stimulus-container"">
                        <img src=""images/causal_sequence/package_causal/package_causal_8.png"" class=""exp-image"">
                        <div class=""question-area""></div> 
                    </div>","null","","","","","","",""
"","","","","","html-button-response","126","952271","0.0-126.0","416EBD8D331F46B39221A4C38A815F35","019ce687-1a6d-77cd-a0bd-522cafea281e","019ce643-47c6-74a0-b3d2-7bf5651ded46","","586","
                    <div class=""stimulus-container"">
                        <img src=""images/causal_sequence/package_causal/package_causal_8.png"" class=""exp-image"">
                        <div class=""question-area"">
                            <p style=""font-size: 20px; font-weight: bold; margin: 0;"">Is there a person in this image?</p>
                        </div>
                    </div>","0","main_causal_task","8","package_causal","","","",""
"","","","","","html-keyboard-response","127","957275","0.0-127.0","416EBD8D331F46B39221A4C38A815F35","019ce687-1a6d-77cd-a0bd-522cafea281e","019ce643-47c6-74a0-b3d2-7bf5651ded46","","null","
                    <div class=""stimulus-container"">
                        <img src=""images/causal_sequence/package_causal/package_causal_9.png"" class=""exp-image"">
                        <div class=""question-area""></div> 
                    </div>","null","","","","","","",""
"","","","","","html-button-response","128","957904","0.0-128.0","416EBD8D331F46B39221A4C38A815F35","019ce687-1a6d-77cd-a0bd-522cafea281e","019ce643-47c6-74a0-b3d2-7bf5651ded46","","628","
                    <div class=""stimulus-container"">
                        <img src=""images/causal_sequence/package_causal/package_causal_9.png"" class=""exp-image"">
                        <div class=""question-area"">
                            <p style=""font-size: 20px; font-weight: bold; margin: 0;"">Is there a person in this image?</p>
                        </div>
                    </div>","0","main_causal_task","9","package_causal","","","",""
"","","","","","instructions","129","960437","0.0-129.0","416EBD8D331F46B39221A4C38A815F35","019ce687-1a6d-77cd-a0bd-522cafea281e","019ce643-47c6-74a0-b3d2-7bf5651ded46","[{""page_index"":0,""viewing_time"":2531}]","2532","","","","","","","","",""
"","","","","","instructions","130","1179256","0.0-130.0","416EBD8D331F46B39221A4C38A815F35","019ce687-1a6d-77cd-a0bd-522cafea281e","019ce643-47c6-74a0-b3d2-7bf5651ded46","[{""page_index"":0,""viewing_time"":218819}]","218819","","","","","","","","",""
"","","","","","html-keyboard-response","131","1180265","0.0-131.0","416EBD8D331F46B39221A4C38A815F35","019ce687-1a6d-77cd-a0bd-522cafea281e","019ce643-47c6-74a0-b3d2-7bf5651ded46","","null","
        <div class=""stimulus-container"" style=""display: flex; align-items: center; justify-content: center; gap: 30px;"">
            <img src=""images/instructions/movie_1.png"" class=""exp-image"">
            <div style=""font-size: 40px; font-weight: bold; color: green; border: 5px solid green; padding: 25px; border-radius: 15px; background-color: #f0fff0;"">
                WORTH<br>$1
            </div>
        </div>
        <div class=""question-area""></div>","null","","","","","","",""
"","","","","","html-button-response","132","1182411","0.0-132.0","416EBD8D331F46B39221A4C38A815F35","019ce687-1a6d-77cd-a0bd-522cafea281e","019ce643-47c6-74a0-b3d2-7bf5651ded46","","2145","
        <div class=""stimulus-container"" style=""display: flex; align-items: center; justify-content: center; gap: 30px;"">
            <img src=""images/instructions/movie_1.png"" class=""exp-image"">
            <div style=""font-size: 40px; font-weight: bold; color: green; border: 5px solid green; padding: 25px; border-radius: 15px; background-color: #f0fff0;"">
                WORTH<br>$1
            </div>
        </div>
        <div class=""question-area"">
            <p style=""font-size: 20px; font-weight: bold; margin: 0;"">Was there a person in this image?</p>
        </div>","0","","","","","","",""
"","","","","","instructions","133","1186175","0.0-133.0","416EBD8D331F46B39221A4C38A815F35","019ce687-1a6d-77cd-a0bd-522cafea281e","019ce643-47c6-74a0-b3d2-7bf5651ded46","[{""page_index"":0,""viewing_time"":3763}]","3763","","","","","","","","",""
"","","","","","html-keyboard-response","134","1196177","0.0-134.0","416EBD8D331F46B39221A4C38A815F35","019ce687-1a6d-77cd-a0bd-522cafea281e","019ce643-47c6-74a0-b3d2-7bf5651ded46","","null","
            <div class=""stimulus-container"" style=""display: flex; align-items: center; justify-content: center; gap: 30px;"">
                <img src=""images/causal_sequence/the_performance_causal/the_performance_causal_7.png"" class=""exp-image"">
                <div style=""font-size: 40px; font-weight: bold; color: green; border: 5px solid green; padding: 25px; border-radius: 15px; background-color: #f0fff0;"">
                    WORTH<br>$1
                </div>
            </div>
            <div class=""question-area""></div>","null","","","","","","",""
"","","","","","html-button-response","135","1197729","0.0-135.0","416EBD8D331F46B39221A4C38A815F35","019ce687-1a6d-77cd-a0bd-522cafea281e","019ce643-47c6-74a0-b3d2-7bf5651ded46","","1551","
            <div class=""stimulus-container"" style=""display: flex; align-items: center; justify-content: center; gap: 30px;"">
                <img src=""images/causal_sequence/the_performance_causal/the_performance_causal_7.png"" class=""exp-image"">
                <div style=""font-size: 40px; font-weight: bold; color: green; border: 5px solid green; padding: 25px; border-radius: 15px; background-color: #f0fff0;"">
                    WORTH<br>$1
                </div>
            </div>
            <div class=""question-area"">
                <p style=""font-size: 20px; font-weight: bold; margin: 0;"">Was there a person in this image?</p>
            </div>","0","part2_value_learning","","the_performance_causal","7","","",""
"","","","","","html-keyboard-response","136","1207744","0.0-136.0","416EBD8D331F46B39221A4C38A815F35","019ce687-1a6d-77cd-a0bd-522cafea281e","019ce643-47c6-74a0-b3d2-7bf5651ded46","","null","
            <div class=""stimulus-container"" style=""display: flex; align-items: center; justify-content: center; gap: 30px;"">
                <img src=""images/causal_sequence/package_causal/package_causal_6.png"" class=""exp-image"">
                <div style=""font-size: 40px; font-weight: bold; color: green; border: 5px solid green; padding: 25px; border-radius: 15px; background-color: #f0fff0;"">
                    WORTH<br>$1
                </div>
            </div>
            <div class=""question-area""></div>","null","","","","","","",""
"","","","","","html-button-response","137","1208742","0.0-137.0","416EBD8D331F46B39221A4C38A815F35","019ce687-1a6d-77cd-a0bd-522cafea281e","019ce643-47c6-74a0-b3d2-7bf5651ded46","","997","
            <div class=""stimulus-container"" style=""display: flex; align-items: center; justify-content: center; gap: 30px;"">
                <img src=""images/causal_sequence/package_causal/package_causal_6.png"" class=""exp-image"">
                <div style=""font-size: 40px; font-weight: bold; color: green; border: 5px solid green; padding: 25px; border-radius: 15px; background-color: #f0fff0;"">
                    WORTH<br>$1
                </div>
            </div>
            <div class=""question-area"">
                <p style=""font-size: 20px; font-weight: bold; margin: 0;"">Was there a person in this image?</p>
            </div>","0","part2_value_learning","","package_causal","6","","",""
"","","","","","html-keyboard-response","138","1218748","0.0-138.0","416EBD8D331F46B39221A4C38A815F35","019ce687-1a6d-77cd-a0bd-522cafea281e","019ce643-47c6-74a0-b3d2-7bf5651ded46","","null","
            <div class=""stimulus-container"" style=""display: flex; align-items: center; justify-content: center; gap: 30px;"">
                <img src=""images/causal_sequence/saving_a_cat_causal/saving_a_cat_causal_5.png"" class=""exp-image"">
                <div style=""font-size: 40px; font-weight: bold; color: green; border: 5px solid green; padding: 25px; border-radius: 15px; background-color: #f0fff0;"">
                    WORTH<br>$1
                </div>
            </div>
            <div class=""question-area""></div>","null","","","","","","",""
"","","","","","html-button-response","139","1219607","0.0-139.0","416EBD8D331F46B39221A4C38A815F35","019ce687-1a6d-77cd-a0bd-522cafea281e","019ce643-47c6-74a0-b3d2-7bf5651ded46","","859","
            <div class=""stimulus-container"" style=""display: flex; align-items: center; justify-content: center; gap: 30px;"">
                <img src=""images/causal_sequence/saving_a_cat_causal/saving_a_cat_causal_5.png"" class=""exp-image"">
                <div style=""font-size: 40px; font-weight: bold; color: green; border: 5px solid green; padding: 25px; border-radius: 15px; background-color: #f0fff0;"">
                    WORTH<br>$1
                </div>
            </div>
            <div class=""question-area"">
                <p style=""font-size: 20px; font-weight: bold; margin: 0;"">Was there a person in this image?</p>
            </div>","0","part2_value_learning","","saving_a_cat_causal","5","","",""
"","","","","","html-keyboard-response","140","1229611","0.0-140.0","416EBD8D331F46B39221A4C38A815F35","019ce687-1a6d-77cd-a0bd-522cafea281e","019ce643-47c6-74a0-b3d2-7bf5651ded46","","null","
            <div class=""stimulus-container"" style=""display: flex; align-items: center; justify-content: center; gap: 30px;"">
                <img src=""images/causal_sequence/dog_causal/dog_causal_4.png"" class=""exp-image"">
                <div style=""font-size: 40px; font-weight: bold; color: green; border: 5px solid green; padding: 25px; border-radius: 15px; background-color: #f0fff0;"">
                    WORTH<br>$1
                </div>
            </div>
            <div class=""question-area""></div>","null","","","","","","",""
"","","","","","html-button-response","141","1230677","0.0-141.0","416EBD8D331F46B39221A4C38A815F35","019ce687-1a6d-77cd-a0bd-522cafea281e","019ce643-47c6-74a0-b3d2-7bf5651ded46","","1065","
            <div class=""stimulus-container"" style=""display: flex; align-items: center; justify-content: center; gap: 30px;"">
                <img src=""images/causal_sequence/dog_causal/dog_causal_4.png"" class=""exp-image"">
                <div style=""font-size: 40px; font-weight: bold; color: green; border: 5px solid green; padding: 25px; border-radius: 15px; background-color: #f0fff0;"">
                    WORTH<br>$1
                </div>
            </div>
            <div class=""question-area"">
                <p style=""font-size: 20px; font-weight: bold; margin: 0;"">Was there a person in this image?</p>
            </div>","0","part2_value_learning","","dog_causal","4","","",""
"","","","","","html-keyboard-response","142","1240682","0.0-142.0","416EBD8D331F46B39221A4C38A815F35","019ce687-1a6d-77cd-a0bd-522cafea281e","019ce643-47c6-74a0-b3d2-7bf5651ded46","","null","
            <div class=""stimulus-container"" style=""display: flex; align-items: center; justify-content: center; gap: 30px;"">
                <img src=""images/causal_sequence/coin_causal/coin_causal_7.png"" class=""exp-image"">
                <div style=""font-size: 40px; font-weight: bold; color: green; border: 5px solid green; padding: 25px; border-radius: 15px; background-color: #f0fff0;"">
                    WORTH<br>$1
                </div>
            </div>
            <div class=""question-area""></div>","null","","","","","","",""
"","","","","","html-button-response","143","1241900","0.0-143.0","416EBD8D331F46B39221A4C38A815F35","019ce687-1a6d-77cd-a0bd-522cafea281e","019ce643-47c6-74a0-b3d2-7bf5651ded46","","1217","
            <div class=""stimulus-container"" style=""display: flex; align-items: center; justify-content: center; gap: 30px;"">
                <img src=""images/causal_sequence/coin_causal/coin_causal_7.png"" class=""exp-image"">
                <div style=""font-size: 40px; font-weight: bold; color: green; border: 5px solid green; padding: 25px; border-radius: 15px; background-color: #f0fff0;"">
                    WORTH<br>$1
                </div>
            </div>
            <div class=""question-area"">
                <p style=""font-size: 20px; font-weight: bold; margin: 0;"">Was there a person in this image?</p>
            </div>","1","part2_value_learning","","coin_causal","7","","",""
"","","","","","html-keyboard-response","144","1251909","0.0-144.0","416EBD8D331F46B39221A4C38A815F35","019ce687-1a6d-77cd-a0bd-522cafea281e","019ce643-47c6-74a0-b3d2-7bf5651ded46","","null","
            <div class=""stimulus-container"" style=""display: flex; align-items: center; justify-content: center; gap: 30px;"">
                <img src=""images/causal_sequence/museum_causal/museum_causal_4.png"" class=""exp-image"">
                <div style=""font-size: 40px; font-weight: bold; color: green; border: 5px solid green; padding: 25px; border-radius: 15px; background-color: #f0fff0;"">
                    WORTH<br>$1
                </div>
            </div>
            <div class=""question-area""></div>","null","","","","","","",""
"","","","","","html-button-response","145","1252914","0.0-145.0","416EBD8D331F46B39221A4C38A815F35","019ce687-1a6d-77cd-a0bd-522cafea281e","019ce643-47c6-74a0-b3d2-7bf5651ded46","","1004","
            <div class=""stimulus-container"" style=""display: flex; align-items: center; justify-content: center; gap: 30px;"">
                <img src=""images/causal_sequence/museum_causal/museum_causal_4.png"" class=""exp-image"">
                <div style=""font-size: 40px; font-weight: bold; color: green; border: 5px solid green; padding: 25px; border-radius: 15px; background-color: #f0fff0;"">
                    WORTH<br>$1
                </div>
            </div>
            <div class=""question-area"">
                <p style=""font-size: 20px; font-weight: bold; margin: 0;"">Was there a person in this image?</p>
            </div>","1","part2_value_learning","","museum_causal","4","","",""
"","","","","","instructions","146","1254432","0.0-146.0","416EBD8D331F46B39221A4C38A815F35","019ce687-1a6d-77cd-a0bd-522cafea281e","019ce643-47c6-74a0-b3d2-7bf5651ded46","[{""page_index"":0,""viewing_time"":1518}]","1518","","","","","","","","",""
"","","","","","instructions","147","1255849","0.0-147.0","416EBD8D331F46B39221A4C38A815F35","019ce687-1a6d-77cd-a0bd-522cafea281e","019ce643-47c6-74a0-b3d2-7bf5651ded46","[{""page_index"":0,""viewing_time"":1416}]","1417","","","","","","","","",""
"","","","","","html-keyboard-response","148","1265918","0.0-148.0-0.0","416EBD8D331F46B39221A4C38A815F35","019ce687-1a6d-77cd-a0bd-522cafea281e","019ce643-47c6-74a0-b3d2-7bf5651ded46","","null","
                        <div style=""font-family: Arial; margin-bottom: 20px;""><h3>Which image is more valuable?</h3></div>
                        <div class=""stimulus-container"" style=""display: flex; width: 1100px; justify-content: center; gap: 50px;"">
                            <img src=""images/causal_sequence/coin_causal/coin_causal_8.png"" class=""exp-image"">
                            <img src=""images/causal_sequence/coin_causal/coin_causal_6.png"" class=""exp-image"">
                        </div>","null","","","","","","",""
"","","","","","html-button-response","149","1267362","0.0-148.0-1.0","416EBD8D331F46B39221A4C38A815F35","019ce687-1a6d-77cd-a0bd-522cafea281e","019ce643-47c6-74a0-b3d2-7bf5651ded46","","1443","
                        <div style=""font-family: Arial; margin-bottom: 20px;""><h3>Which image is more valuable?</h3></div>
                        <div class=""stimulus-container"" style=""display: flex; width: 1100px; justify-content: center; gap: 50px;"">
                            <img src=""images/causal_sequence/coin_causal/coin_causal_8.png"" class=""exp-image"">
                            <img src=""images/causal_sequence/coin_causal/coin_causal_6.png"" class=""exp-image"">
                        </div>","1","part3_final_choice","","coin_causal","","7","6","-1"
"","","","","","html-keyboard-response","150","1277378","0.0-149.0-0.0","416EBD8D331F46B39221A4C38A815F35","019ce687-1a6d-77cd-a0bd-522cafea281e","019ce643-47c6-74a0-b3d2-7bf5651ded46","","null","
                        <div style=""font-family: Arial; margin-bottom: 20px;""><h3>Which image is more valuable?</h3></div>
                        <div class=""stimulus-container"" style=""display: flex; width: 1100px; justify-content: center; gap: 50px;"">
                            <img src=""images/causal_sequence/package_causal/package_causal_5.png"" class=""exp-image"">
                            <img src=""images/causal_sequence/package_causal/package_causal_7.png"" class=""exp-image"">
                        </div>","null","","","","","","",""
"","","","","","html-button-response","151","1278243","0.0-149.0-1.0","416EBD8D331F46B39221A4C38A815F35","019ce687-1a6d-77cd-a0bd-522cafea281e","019ce643-47c6-74a0-b3d2-7bf5651ded46","","864","
                        <div style=""font-family: Arial; margin-bottom: 20px;""><h3>Which image is more valuable?</h3></div>
                        <div class=""stimulus-container"" style=""display: flex; width: 1100px; justify-content: center; gap: 50px;"">
                            <img src=""images/causal_sequence/package_causal/package_causal_5.png"" class=""exp-image"">
                            <img src=""images/causal_sequence/package_causal/package_causal_7.png"" class=""exp-image"">
                        </div>","1","part3_final_choice","","package_causal","","6","7","1"
"","","","","","html-keyboard-response","152","1288246","0.0-150.0-0.0","416EBD8D331F46B39221A4C38A815F35","019ce687-1a6d-77cd-a0bd-522cafea281e","019ce643-47c6-74a0-b3d2-7bf5651ded46","","null","
                        <div style=""font-family: Arial; margin-bottom: 20px;""><h3>Which image is more valuable?</h3></div>
                        <div class=""stimulus-container"" style=""display: flex; width: 1100px; justify-content: center; gap: 50px;"">
                            <img src=""images/causal_sequence/dog_causal/dog_causal_3.png"" class=""exp-image"">
                            <img src=""images/causal_sequence/dog_causal/dog_causal_5.png"" class=""exp-image"">
                        </div>","null","","","","","","",""
"","","","","","html-button-response","153","1289093","0.0-150.0-1.0","416EBD8D331F46B39221A4C38A815F35","019ce687-1a6d-77cd-a0bd-522cafea281e","019ce643-47c6-74a0-b3d2-7bf5651ded46","","846","
                        <div style=""font-family: Arial; margin-bottom: 20px;""><h3>Which image is more valuable?</h3></div>
                        <div class=""stimulus-container"" style=""display: flex; width: 1100px; justify-content: center; gap: 50px;"">
                            <img src=""images/causal_sequence/dog_causal/dog_causal_3.png"" class=""exp-image"">
                            <img src=""images/causal_sequence/dog_causal/dog_causal_5.png"" class=""exp-image"">
                        </div>","0","part3_final_choice","","dog_causal","","4","3","-1"
"","","","","","html-keyboard-response","154","1299098","0.0-151.0-0.0","416EBD8D331F46B39221A4C38A815F35","019ce687-1a6d-77cd-a0bd-522cafea281e","019ce643-47c6-74a0-b3d2-7bf5651ded46","","null","
                        <div style=""font-family: Arial; margin-bottom: 20px;""><h3>Which image is more valuable?</h3></div>
                        <div class=""stimulus-container"" style=""display: flex; width: 1100px; justify-content: center; gap: 50px;"">
                            <img src=""images/causal_sequence/saving_a_cat_causal/saving_a_cat_causal_6.png"" class=""exp-image"">
                            <img src=""images/causal_sequence/saving_a_cat_causal/saving_a_cat_causal_4.png"" class=""exp-image"">
                        </div>","null","","","","","","",""
"","","","","","html-button-response","155","1300024","0.0-151.0-1.0","416EBD8D331F46B39221A4C38A815F35","019ce687-1a6d-77cd-a0bd-522cafea281e","019ce643-47c6-74a0-b3d2-7bf5651ded46","","925","
                        <div style=""font-family: Arial; margin-bottom: 20px;""><h3>Which image is more valuable?</h3></div>
                        <div class=""stimulus-container"" style=""display: flex; width: 1100px; justify-content: center; gap: 50px;"">
                            <img src=""images/causal_sequence/saving_a_cat_causal/saving_a_cat_causal_6.png"" class=""exp-image"">
                            <img src=""images/causal_sequence/saving_a_cat_causal/saving_a_cat_causal_4.png"" class=""exp-image"">
                        </div>","1","part3_final_choice","","saving_a_cat_causal","","5","4","-1"
"","","","","","html-keyboard-response","156","1310027","0.0-152.0-0.0","416EBD8D331F46B39221A4C38A815F35","019ce687-1a6d-77cd-a0bd-522cafea281e","019ce643-47c6-74a0-b3d2-7bf5651ded46","","null","
                        <div style=""font-family: Arial; margin-bottom: 20px;""><h3>Which image is more valuable?</h3></div>
                        <div class=""stimulus-container"" style=""display: flex; width: 1100px; justify-content: center; gap: 50px;"">
                            <img src=""images/causal_sequence/museum_causal/museum_causal_5.png"" class=""exp-image"">
                            <img src=""images/causal_sequence/museum_causal/museum_causal_3.png"" class=""exp-image"">
                        </div>","null","","","","","","",""
"","","","","","html-button-response","157","1310946","0.0-152.0-1.0","416EBD8D331F46B39221A4C38A815F35","019ce687-1a6d-77cd-a0bd-522cafea281e","019ce643-47c6-74a0-b3d2-7bf5651ded46","","917","
                        <div style=""font-family: Arial; margin-bottom: 20px;""><h3>Which image is more valuable?</h3></div>
                        <div class=""stimulus-container"" style=""display: flex; width: 1100px; justify-content: center; gap: 50px;"">
                            <img src=""images/causal_sequence/museum_causal/museum_causal_5.png"" class=""exp-image"">
                            <img src=""images/causal_sequence/museum_causal/museum_causal_3.png"" class=""exp-image"">
                        </div>","0","part3_final_choice","","museum_causal","","4","5","1"
"","","","","","html-keyboard-response","158","1320951","0.0-153.0-0.0","416EBD8D331F46B39221A4C38A815F35","019ce687-1a6d-77cd-a0bd-522cafea281e","019ce643-47c6-74a0-b3d2-7bf5651ded46","","null","
                        <div style=""font-family: Arial; margin-bottom: 20px;""><h3>Which image is more valuable?</h3></div>
                        <div class=""stimulus-container"" style=""display: flex; width: 1100px; justify-content: center; gap: 50px;"">
                            <img src=""images/causal_sequence/the_performance_causal/the_performance_causal_6.png"" class=""exp-image"">
                            <img src=""images/causal_sequence/the_performance_causal/the_performance_causal_8.png"" class=""exp-image"">
                        </div>","null","","","","","","",""
"","","","","","html-button-response","159","1321778","0.0-153.0-1.0","416EBD8D331F46B39221A4C38A815F35","019ce687-1a6d-77cd-a0bd-522cafea281e","019ce643-47c6-74a0-b3d2-7bf5651ded46","","826","
                        <div style=""font-family: Arial; margin-bottom: 20px;""><h3>Which image is more valuable?</h3></div>
                        <div class=""stimulus-container"" style=""display: flex; width: 1100px; justify-content: center; gap: 50px;"">
                            <img src=""images/causal_sequence/the_performance_causal/the_performance_causal_6.png"" class=""exp-image"">
                            <img src=""images/causal_sequence/the_performance_causal/the_performance_causal_8.png"" class=""exp-image"">
                        </div>","0","part3_final_choice","","the_performance_causal","","7","6","-1"
"","","","","","survey-text","160","1341924","0.0-154.0","416EBD8D331F46B39221A4C38A815F35","019ce687-1a6d-77cd-a0bd-522cafea281e","019ce643-47c6-74a0-b3d2-7bf5651ded46","","20137","","{""gender"":""male"",""age"":""34"",""decision_strategy"":""which one makes me feel better"",""consistency_check"":""used same logic""}","demographics_and_strategy","","","","","",""
"","","","","","instructions","161","1349129","0.0-155.0","416EBD8D331F46B39221A4C38A815F35","019ce687-1a6d-77cd-a0bd-522cafea281e","019ce643-47c6-74a0-b3d2-7bf5651ded46","[{""page_index"":0,""viewing_time"":7204}]","7205","","","","","","","","",""
