"success","timeout","failed_images","failed_audio","failed_video","trial_type","trial_index","time_elapsed","internal_node_id","subject_id","study_id","session_id","view_history","rt","stimulus","response","task","image_index","folder","sequence_type","presentation_order","valuable_image_index","reward_type","correct_choice","distance_from_x","target_X","chosen_image_index","is_x_plus_dist"
"true","false","[]","[]","[]","preload","0","7354","0.0-0.0","E0D18BBBCD6B4625A1281C4347DED50B","019dac5c-0ae1-7095-918f-44a93d5abca7","019dac5b-243f-7307-af64-a10f53f1ef70","","","","","","","","","","","","","","","",""
"","","","","","instructions","1","12216","0.0-1.0","E0D18BBBCD6B4625A1281C4347DED50B","019dac5c-0ae1-7095-918f-44a93d5abca7","019dac5b-243f-7307-af64-a10f53f1ef70","[{""page_index"":0,""viewing_time"":4861}]","4861","","","","","","","","","","","","","",""
"","","","","","instructions","2","29603","0.0-2.0","E0D18BBBCD6B4625A1281C4347DED50B","019dac5c-0ae1-7095-918f-44a93d5abca7","019dac5b-243f-7307-af64-a10f53f1ef70","[{""page_index"":0,""viewing_time"":17387}]","17387","","","","","","","","","","","","","",""
"true","","","","","fullscreen","3","33557","0.0-3.0","E0D18BBBCD6B4625A1281C4347DED50B","019dac5c-0ae1-7095-918f-44a93d5abca7","019dac5b-243f-7307-af64-a10f53f1ef70","","2943","","","","","","","","","","","","","",""
"","","","","","instructions","4","35188","0.0-4.0","E0D18BBBCD6B4625A1281C4347DED50B","019dac5c-0ae1-7095-918f-44a93d5abca7","019dac5b-243f-7307-af64-a10f53f1ef70","[{""page_index"":0,""viewing_time"":1631}]","1631","","","","","","","","","","","","","",""
"","","","","","instructions","5","39596","0.0-5.0","E0D18BBBCD6B4625A1281C4347DED50B","019dac5c-0ae1-7095-918f-44a93d5abca7","019dac5b-243f-7307-af64-a10f53f1ef70","[{""page_index"":0,""viewing_time"":4406}]","4407","","","","","","","","","","","","","",""
"","","","","","html-keyboard-response","6","43598","0.0-6.0","E0D18BBBCD6B4625A1281C4347DED50B","019dac5c-0ae1-7095-918f-44a93d5abca7","019dac5b-243f-7307-af64-a10f53f1ef70","","null","
                <div class=""stimulus-container"">
                    <img src=""images/instructions/movie_1.png"" class=""exp-image"">
                    <div class=""question-area""></div> 
                </div>","null","","","","","","","","","","","",""
"","","","","","html-button-response","7","46604","0.0-7.0","E0D18BBBCD6B4625A1281C4347DED50B","019dac5c-0ae1-7095-918f-44a93d5abca7","019dac5b-243f-7307-af64-a10f53f1ef70","","null","
                <div class=""stimulus-container"">
                    <img src=""images/instructions/movie_1.png"" class=""exp-image"">
                    <div class=""question-area"">
                        <p style=""font-size: 20px; font-weight: bold; margin: 0;"">Was there a person in this image?</p>
                    </div>
                </div>","null","example_question","1","","","","","","","","","",""
"","","","","","html-keyboard-response","8","50606","0.0-8.0","E0D18BBBCD6B4625A1281C4347DED50B","019dac5c-0ae1-7095-918f-44a93d5abca7","019dac5b-243f-7307-af64-a10f53f1ef70","","null","
                <div class=""stimulus-container"">
                    <img src=""images/instructions/movie_2.png"" class=""exp-image"">
                    <div class=""question-area""></div> 
                </div>","null","","","","","","","","","","","",""
"","","","","","html-button-response","9","52620","0.0-9.0","E0D18BBBCD6B4625A1281C4347DED50B","019dac5c-0ae1-7095-918f-44a93d5abca7","019dac5b-243f-7307-af64-a10f53f1ef70","","2012","
                <div class=""stimulus-container"">
                    <img src=""images/instructions/movie_2.png"" class=""exp-image"">
                    <div class=""question-area"">
                        <p style=""font-size: 20px; font-weight: bold; margin: 0;"">Was there a person in this image?</p>
                    </div>
                </div>","1","example_question","2","","","","","","","","","",""
"","","","","","html-keyboard-response","10","56629","0.0-10.0","E0D18BBBCD6B4625A1281C4347DED50B","019dac5c-0ae1-7095-918f-44a93d5abca7","019dac5b-243f-7307-af64-a10f53f1ef70","","null","
                <div class=""stimulus-container"">
                    <img src=""images/instructions/movie_3.png"" class=""exp-image"">
                    <div class=""question-area""></div> 
                </div>","null","","","","","","","","","","","",""
"","","","","","html-button-response","11","58668","0.0-11.0","E0D18BBBCD6B4625A1281C4347DED50B","019dac5c-0ae1-7095-918f-44a93d5abca7","019dac5b-243f-7307-af64-a10f53f1ef70","","2038","
                <div class=""stimulus-container"">
                    <img src=""images/instructions/movie_3.png"" class=""exp-image"">
                    <div class=""question-area"">
                        <p style=""font-size: 20px; font-weight: bold; margin: 0;"">Was there a person in this image?</p>
                    </div>
                </div>","0","example_question","3","","","","","","","","","",""
"","","","","","html-keyboard-response","12","62684","0.0-12.0","E0D18BBBCD6B4625A1281C4347DED50B","019dac5c-0ae1-7095-918f-44a93d5abca7","019dac5b-243f-7307-af64-a10f53f1ef70","","null","
                <div class=""stimulus-container"">
                    <img src=""images/instructions/movie_4.png"" class=""exp-image"">
                    <div class=""question-area""></div> 
                </div>","null","","","","","","","","","","","",""
"","","","","","html-button-response","13","64717","0.0-13.0","E0D18BBBCD6B4625A1281C4347DED50B","019dac5c-0ae1-7095-918f-44a93d5abca7","019dac5b-243f-7307-af64-a10f53f1ef70","","2031","
                <div class=""stimulus-container"">
                    <img src=""images/instructions/movie_4.png"" class=""exp-image"">
                    <div class=""question-area"">
                        <p style=""font-size: 20px; font-weight: bold; margin: 0;"">Was there a person in this image?</p>
                    </div>
                </div>","0","example_question","4","","","","","","","","","",""
"","","","","","instructions","14","67810","0.0-14.0","E0D18BBBCD6B4625A1281C4347DED50B","019dac5c-0ae1-7095-918f-44a93d5abca7","019dac5b-243f-7307-af64-a10f53f1ef70","[{""page_index"":0,""viewing_time"":3093}]","3093","","","","","","","","","","","","","",""
"","","","","","instructions","15","68756","0.0-15.0","E0D18BBBCD6B4625A1281C4347DED50B","019dac5c-0ae1-7095-918f-44a93d5abca7","019dac5b-243f-7307-af64-a10f53f1ef70","[{""page_index"":0,""viewing_time"":945}]","946","","","","","","","","","","","","","",""
"","","","","","html-keyboard-response","16","73771","0.0-16.0","E0D18BBBCD6B4625A1281C4347DED50B","019dac5c-0ae1-7095-918f-44a93d5abca7","019dac5b-243f-7307-af64-a10f53f1ef70","","null","<div style=""background-color: white; width: 100vw; height: 100vh;""></div>","null","","","","","","","","","","","",""
"","","","","","html-keyboard-response","17","78773","0.0-17.0","E0D18BBBCD6B4625A1281C4347DED50B","019dac5c-0ae1-7095-918f-44a93d5abca7","019dac5b-243f-7307-af64-a10f53f1ef70","","null","
                <div class=""stimulus-container"">
                    <img src=""images/causal_sequence/dog_causal/dog_causal_1.png"" class=""exp-image"">
                    <div class=""question-area""></div> 
                </div>","null","","","","","","","","","","","",""
"","","","","","html-button-response","18","80093","0.0-18.0","E0D18BBBCD6B4625A1281C4347DED50B","019dac5c-0ae1-7095-918f-44a93d5abca7","019dac5b-243f-7307-af64-a10f53f1ef70","","1319","
                <div class=""stimulus-container"">
                    <img src=""images/causal_sequence/dog_causal/dog_causal_1.png"" class=""exp-image"">
                    <div class=""question-area"">
                        <p style=""font-size: 20px; font-weight: bold; margin: 0;"">Is there a person in this image?</p>
                    </div>
                </div>","0","main_experiment_trial","1","dog_causal","causal_sequence","chronological","","","","","","",""
"","","","","","html-keyboard-response","19","85096","0.0-19.0","E0D18BBBCD6B4625A1281C4347DED50B","019dac5c-0ae1-7095-918f-44a93d5abca7","019dac5b-243f-7307-af64-a10f53f1ef70","","null","
                <div class=""stimulus-container"">
                    <img src=""images/causal_sequence/dog_causal/dog_causal_2.png"" class=""exp-image"">
                    <div class=""question-area""></div> 
                </div>","null","","","","","","","","","","","",""
"","","","","","html-button-response","20","85956","0.0-20.0","E0D18BBBCD6B4625A1281C4347DED50B","019dac5c-0ae1-7095-918f-44a93d5abca7","019dac5b-243f-7307-af64-a10f53f1ef70","","859","
                <div class=""stimulus-container"">
                    <img src=""images/causal_sequence/dog_causal/dog_causal_2.png"" class=""exp-image"">
                    <div class=""question-area"">
                        <p style=""font-size: 20px; font-weight: bold; margin: 0;"">Is there a person in this image?</p>
                    </div>
                </div>","0","main_experiment_trial","2","dog_causal","causal_sequence","chronological","","","","","","",""
"","","","","","html-keyboard-response","21","90966","0.0-21.0","E0D18BBBCD6B4625A1281C4347DED50B","019dac5c-0ae1-7095-918f-44a93d5abca7","019dac5b-243f-7307-af64-a10f53f1ef70","","null","
                <div class=""stimulus-container"">
                    <img src=""images/causal_sequence/dog_causal/dog_causal_3.png"" class=""exp-image"">
                    <div class=""question-area""></div> 
                </div>","null","","","","","","","","","","","",""
"","","","","","html-button-response","22","91437","0.0-22.0","E0D18BBBCD6B4625A1281C4347DED50B","019dac5c-0ae1-7095-918f-44a93d5abca7","019dac5b-243f-7307-af64-a10f53f1ef70","","470","
                <div class=""stimulus-container"">
                    <img src=""images/causal_sequence/dog_causal/dog_causal_3.png"" class=""exp-image"">
                    <div class=""question-area"">
                        <p style=""font-size: 20px; font-weight: bold; margin: 0;"">Is there a person in this image?</p>
                    </div>
                </div>","0","main_experiment_trial","3","dog_causal","causal_sequence","chronological","","","","","","",""
"","","","","","html-keyboard-response","23","96454","0.0-23.0","E0D18BBBCD6B4625A1281C4347DED50B","019dac5c-0ae1-7095-918f-44a93d5abca7","019dac5b-243f-7307-af64-a10f53f1ef70","","null","
                <div class=""stimulus-container"">
                    <img src=""images/causal_sequence/dog_causal/dog_causal_4.png"" class=""exp-image"">
                    <div class=""question-area""></div> 
                </div>","null","","","","","","","","","","","",""
"","","","","","html-button-response","24","96957","0.0-24.0","E0D18BBBCD6B4625A1281C4347DED50B","019dac5c-0ae1-7095-918f-44a93d5abca7","019dac5b-243f-7307-af64-a10f53f1ef70","","502","
                <div class=""stimulus-container"">
                    <img src=""images/causal_sequence/dog_causal/dog_causal_4.png"" class=""exp-image"">
                    <div class=""question-area"">
                        <p style=""font-size: 20px; font-weight: bold; margin: 0;"">Is there a person in this image?</p>
                    </div>
                </div>","0","main_experiment_trial","4","dog_causal","causal_sequence","chronological","","","","","","",""
"","","","","","html-keyboard-response","25","101961","0.0-25.0","E0D18BBBCD6B4625A1281C4347DED50B","019dac5c-0ae1-7095-918f-44a93d5abca7","019dac5b-243f-7307-af64-a10f53f1ef70","","null","
                <div class=""stimulus-container"">
                    <img src=""images/causal_sequence/dog_causal/dog_causal_5.png"" class=""exp-image"">
                    <div class=""question-area""></div> 
                </div>","null","","","","","","","","","","","",""
"","","","","","html-button-response","26","102484","0.0-26.0","E0D18BBBCD6B4625A1281C4347DED50B","019dac5c-0ae1-7095-918f-44a93d5abca7","019dac5b-243f-7307-af64-a10f53f1ef70","","523","
                <div class=""stimulus-container"">
                    <img src=""images/causal_sequence/dog_causal/dog_causal_5.png"" class=""exp-image"">
                    <div class=""question-area"">
                        <p style=""font-size: 20px; font-weight: bold; margin: 0;"">Is there a person in this image?</p>
                    </div>
                </div>","0","main_experiment_trial","5","dog_causal","causal_sequence","chronological","","","","","","",""
"","","","","","html-keyboard-response","27","107503","0.0-27.0","E0D18BBBCD6B4625A1281C4347DED50B","019dac5c-0ae1-7095-918f-44a93d5abca7","019dac5b-243f-7307-af64-a10f53f1ef70","","null","
                <div class=""stimulus-container"">
                    <img src=""images/causal_sequence/dog_causal/dog_causal_6.png"" class=""exp-image"">
                    <div class=""question-area""></div> 
                </div>","null","","","","","","","","","","","",""
"","","","","","html-button-response","28","109292","0.0-28.0","E0D18BBBCD6B4625A1281C4347DED50B","019dac5c-0ae1-7095-918f-44a93d5abca7","019dac5b-243f-7307-af64-a10f53f1ef70","","1788","
                <div class=""stimulus-container"">
                    <img src=""images/causal_sequence/dog_causal/dog_causal_6.png"" class=""exp-image"">
                    <div class=""question-area"">
                        <p style=""font-size: 20px; font-weight: bold; margin: 0;"">Is there a person in this image?</p>
                    </div>
                </div>","0","main_experiment_trial","6","dog_causal","causal_sequence","chronological","","","","","","",""
"","","","","","html-keyboard-response","29","114301","0.0-29.0","E0D18BBBCD6B4625A1281C4347DED50B","019dac5c-0ae1-7095-918f-44a93d5abca7","019dac5b-243f-7307-af64-a10f53f1ef70","","null","
                <div class=""stimulus-container"">
                    <img src=""images/causal_sequence/dog_causal/dog_causal_7.png"" class=""exp-image"">
                    <div class=""question-area""></div> 
                </div>","null","","","","","","","","","","","",""
"","","","","","html-button-response","30","116788","0.0-30.0","E0D18BBBCD6B4625A1281C4347DED50B","019dac5c-0ae1-7095-918f-44a93d5abca7","019dac5b-243f-7307-af64-a10f53f1ef70","","2485","
                <div class=""stimulus-container"">
                    <img src=""images/causal_sequence/dog_causal/dog_causal_7.png"" class=""exp-image"">
                    <div class=""question-area"">
                        <p style=""font-size: 20px; font-weight: bold; margin: 0;"">Is there a person in this image?</p>
                    </div>
                </div>","0","main_experiment_trial","7","dog_causal","causal_sequence","chronological","","","","","","",""
"","","","","","html-keyboard-response","31","121804","0.0-31.0","E0D18BBBCD6B4625A1281C4347DED50B","019dac5c-0ae1-7095-918f-44a93d5abca7","019dac5b-243f-7307-af64-a10f53f1ef70","","null","
                <div class=""stimulus-container"">
                    <img src=""images/causal_sequence/dog_causal/dog_causal_8.png"" class=""exp-image"">
                    <div class=""question-area""></div> 
                </div>","null","","","","","","","","","","","",""
"","","","","","html-button-response","32","122348","0.0-32.0","E0D18BBBCD6B4625A1281C4347DED50B","019dac5c-0ae1-7095-918f-44a93d5abca7","019dac5b-243f-7307-af64-a10f53f1ef70","","544","
                <div class=""stimulus-container"">
                    <img src=""images/causal_sequence/dog_causal/dog_causal_8.png"" class=""exp-image"">
                    <div class=""question-area"">
                        <p style=""font-size: 20px; font-weight: bold; margin: 0;"">Is there a person in this image?</p>
                    </div>
                </div>","0","main_experiment_trial","8","dog_causal","causal_sequence","chronological","","","","","","",""
"","","","","","html-keyboard-response","33","127358","0.0-33.0","E0D18BBBCD6B4625A1281C4347DED50B","019dac5c-0ae1-7095-918f-44a93d5abca7","019dac5b-243f-7307-af64-a10f53f1ef70","","null","
                <div class=""stimulus-container"">
                    <img src=""images/causal_sequence/dog_causal/dog_causal_9.png"" class=""exp-image"">
                    <div class=""question-area""></div> 
                </div>","null","","","","","","","","","","","",""
"","","","","","html-button-response","34","127823","0.0-34.0","E0D18BBBCD6B4625A1281C4347DED50B","019dac5c-0ae1-7095-918f-44a93d5abca7","019dac5b-243f-7307-af64-a10f53f1ef70","","464","
                <div class=""stimulus-container"">
                    <img src=""images/causal_sequence/dog_causal/dog_causal_9.png"" class=""exp-image"">
                    <div class=""question-area"">
                        <p style=""font-size: 20px; font-weight: bold; margin: 0;"">Is there a person in this image?</p>
                    </div>
                </div>","0","main_experiment_trial","9","dog_causal","causal_sequence","chronological","","","","","","",""
"","","","","","html-keyboard-response","35","132837","0.0-35.0","E0D18BBBCD6B4625A1281C4347DED50B","019dac5c-0ae1-7095-918f-44a93d5abca7","019dac5b-243f-7307-af64-a10f53f1ef70","","null","
                <div class=""stimulus-container"">
                    <img src=""images/causal_sequence/dog_causal/dog_causal_ten.png"" class=""exp-image"">
                    <div class=""question-area""></div> 
                </div>","null","","","","","","","","","","","",""
"","","","","","html-button-response","36","134269","0.0-36.0","E0D18BBBCD6B4625A1281C4347DED50B","019dac5c-0ae1-7095-918f-44a93d5abca7","019dac5b-243f-7307-af64-a10f53f1ef70","","1430","
                <div class=""stimulus-container"">
                    <img src=""images/causal_sequence/dog_causal/dog_causal_ten.png"" class=""exp-image"">
                    <div class=""question-area"">
                        <p style=""font-size: 20px; font-weight: bold; margin: 0;"">Is there a person in this image?</p>
                    </div>
                </div>","1","main_experiment_trial","ten","dog_causal","causal_sequence","chronological","","","","","","",""
"","","","","","html-keyboard-response","37","139281","0.0-37.0","E0D18BBBCD6B4625A1281C4347DED50B","019dac5c-0ae1-7095-918f-44a93d5abca7","019dac5b-243f-7307-af64-a10f53f1ef70","","null","<div style=""background-color: white; width: 100vw; height: 100vh;""></div>","null","","","","","","","","","","","",""
"","","","","","html-keyboard-response","38","144288","0.0-38.0","E0D18BBBCD6B4625A1281C4347DED50B","019dac5c-0ae1-7095-918f-44a93d5abca7","019dac5b-243f-7307-af64-a10f53f1ef70","","null","
                <div class=""stimulus-container"">
                    <img src=""images/causal_sequence/saving_a_cat_causal/saving_a_cat_causal_1.png"" class=""exp-image"">
                    <div class=""question-area""></div> 
                </div>","null","","","","","","","","","","","",""
"","","","","","html-button-response","39","144773","0.0-39.0","E0D18BBBCD6B4625A1281C4347DED50B","019dac5c-0ae1-7095-918f-44a93d5abca7","019dac5b-243f-7307-af64-a10f53f1ef70","","484","
                <div class=""stimulus-container"">
                    <img src=""images/causal_sequence/saving_a_cat_causal/saving_a_cat_causal_1.png"" class=""exp-image"">
                    <div class=""question-area"">
                        <p style=""font-size: 20px; font-weight: bold; margin: 0;"">Is there a person in this image?</p>
                    </div>
                </div>","0","main_experiment_trial","1","saving_a_cat_causal","causal_sequence","chronological","","","","","","",""
"","","","","","html-keyboard-response","40","149787","0.0-40.0","E0D18BBBCD6B4625A1281C4347DED50B","019dac5c-0ae1-7095-918f-44a93d5abca7","019dac5b-243f-7307-af64-a10f53f1ef70","","null","
                <div class=""stimulus-container"">
                    <img src=""images/causal_sequence/saving_a_cat_causal/saving_a_cat_causal_2.png"" class=""exp-image"">
                    <div class=""question-area""></div> 
                </div>","null","","","","","","","","","","","",""
"","","","","","html-button-response","41","150869","0.0-41.0","E0D18BBBCD6B4625A1281C4347DED50B","019dac5c-0ae1-7095-918f-44a93d5abca7","019dac5b-243f-7307-af64-a10f53f1ef70","","1081","
                <div class=""stimulus-container"">
                    <img src=""images/causal_sequence/saving_a_cat_causal/saving_a_cat_causal_2.png"" class=""exp-image"">
                    <div class=""question-area"">
                        <p style=""font-size: 20px; font-weight: bold; margin: 0;"">Is there a person in this image?</p>
                    </div>
                </div>","1","main_experiment_trial","2","saving_a_cat_causal","causal_sequence","chronological","","","","","","",""
"","","","","","html-keyboard-response","42","155872","0.0-42.0","E0D18BBBCD6B4625A1281C4347DED50B","019dac5c-0ae1-7095-918f-44a93d5abca7","019dac5b-243f-7307-af64-a10f53f1ef70","","null","
                <div class=""stimulus-container"">
                    <img src=""images/causal_sequence/saving_a_cat_causal/saving_a_cat_causal_3.png"" class=""exp-image"">
                    <div class=""question-area""></div> 
                </div>","null","","","","","","","","","","","",""
"","","","","","html-button-response","43","157119","0.0-43.0","E0D18BBBCD6B4625A1281C4347DED50B","019dac5c-0ae1-7095-918f-44a93d5abca7","019dac5b-243f-7307-af64-a10f53f1ef70","","1246","
                <div class=""stimulus-container"">
                    <img src=""images/causal_sequence/saving_a_cat_causal/saving_a_cat_causal_3.png"" class=""exp-image"">
                    <div class=""question-area"">
                        <p style=""font-size: 20px; font-weight: bold; margin: 0;"">Is there a person in this image?</p>
                    </div>
                </div>","1","main_experiment_trial","3","saving_a_cat_causal","causal_sequence","chronological","","","","","","",""
"","","","","","html-keyboard-response","44","162129","0.0-44.0","E0D18BBBCD6B4625A1281C4347DED50B","019dac5c-0ae1-7095-918f-44a93d5abca7","019dac5b-243f-7307-af64-a10f53f1ef70","","null","
                <div class=""stimulus-container"">
                    <img src=""images/causal_sequence/saving_a_cat_causal/saving_a_cat_causal_4.png"" class=""exp-image"">
                    <div class=""question-area""></div> 
                </div>","null","","","","","","","","","","","",""
"","","","","","html-button-response","45","165133","0.0-45.0","E0D18BBBCD6B4625A1281C4347DED50B","019dac5c-0ae1-7095-918f-44a93d5abca7","019dac5b-243f-7307-af64-a10f53f1ef70","","null","
                <div class=""stimulus-container"">
                    <img src=""images/causal_sequence/saving_a_cat_causal/saving_a_cat_causal_4.png"" class=""exp-image"">
                    <div class=""question-area"">
                        <p style=""font-size: 20px; font-weight: bold; margin: 0;"">Is there a person in this image?</p>
                    </div>
                </div>","null","main_experiment_trial","4","saving_a_cat_causal","causal_sequence","chronological","","","","","","",""
"","","","","","html-keyboard-response","46","170138","0.0-46.0","E0D18BBBCD6B4625A1281C4347DED50B","019dac5c-0ae1-7095-918f-44a93d5abca7","019dac5b-243f-7307-af64-a10f53f1ef70","","null","
                <div class=""stimulus-container"">
                    <img src=""images/causal_sequence/saving_a_cat_causal/saving_a_cat_causal_5.png"" class=""exp-image"">
                    <div class=""question-area""></div> 
                </div>","null","","","","","","","","","","","",""
"","","","","","html-button-response","47","171175","0.0-47.0","E0D18BBBCD6B4625A1281C4347DED50B","019dac5c-0ae1-7095-918f-44a93d5abca7","019dac5b-243f-7307-af64-a10f53f1ef70","","1036","
                <div class=""stimulus-container"">
                    <img src=""images/causal_sequence/saving_a_cat_causal/saving_a_cat_causal_5.png"" class=""exp-image"">
                    <div class=""question-area"">
                        <p style=""font-size: 20px; font-weight: bold; margin: 0;"">Is there a person in this image?</p>
                    </div>
                </div>","0","main_experiment_trial","5","saving_a_cat_causal","causal_sequence","chronological","","","","","","",""
"","","","","","html-keyboard-response","48","176188","0.0-48.0","E0D18BBBCD6B4625A1281C4347DED50B","019dac5c-0ae1-7095-918f-44a93d5abca7","019dac5b-243f-7307-af64-a10f53f1ef70","","null","
                <div class=""stimulus-container"">
                    <img src=""images/causal_sequence/saving_a_cat_causal/saving_a_cat_causal_6.png"" class=""exp-image"">
                    <div class=""question-area""></div> 
                </div>","null","","","","","","","","","","","",""
"","","","","","html-button-response","49","177253","0.0-49.0","E0D18BBBCD6B4625A1281C4347DED50B","019dac5c-0ae1-7095-918f-44a93d5abca7","019dac5b-243f-7307-af64-a10f53f1ef70","","1064","
                <div class=""stimulus-container"">
                    <img src=""images/causal_sequence/saving_a_cat_causal/saving_a_cat_causal_6.png"" class=""exp-image"">
                    <div class=""question-area"">
                        <p style=""font-size: 20px; font-weight: bold; margin: 0;"">Is there a person in this image?</p>
                    </div>
                </div>","0","main_experiment_trial","6","saving_a_cat_causal","causal_sequence","chronological","","","","","","",""
"","","","","","html-keyboard-response","50","182266","0.0-50.0","E0D18BBBCD6B4625A1281C4347DED50B","019dac5c-0ae1-7095-918f-44a93d5abca7","019dac5b-243f-7307-af64-a10f53f1ef70","","null","
                <div class=""stimulus-container"">
                    <img src=""images/causal_sequence/saving_a_cat_causal/saving_a_cat_causal_7.png"" class=""exp-image"">
                    <div class=""question-area""></div> 
                </div>","null","","","","","","","","","","","",""
"","","","","","html-button-response","51","182869","0.0-51.0","E0D18BBBCD6B4625A1281C4347DED50B","019dac5c-0ae1-7095-918f-44a93d5abca7","019dac5b-243f-7307-af64-a10f53f1ef70","","602","
                <div class=""stimulus-container"">
                    <img src=""images/causal_sequence/saving_a_cat_causal/saving_a_cat_causal_7.png"" class=""exp-image"">
                    <div class=""question-area"">
                        <p style=""font-size: 20px; font-weight: bold; margin: 0;"">Is there a person in this image?</p>
                    </div>
                </div>","0","main_experiment_trial","7","saving_a_cat_causal","causal_sequence","chronological","","","","","","",""
"","","","","","html-keyboard-response","52","187879","0.0-52.0","E0D18BBBCD6B4625A1281C4347DED50B","019dac5c-0ae1-7095-918f-44a93d5abca7","019dac5b-243f-7307-af64-a10f53f1ef70","","null","
                <div class=""stimulus-container"">
                    <img src=""images/causal_sequence/saving_a_cat_causal/saving_a_cat_causal_8.png"" class=""exp-image"">
                    <div class=""question-area""></div> 
                </div>","null","","","","","","","","","","","",""
"","","","","","html-button-response","53","190102","0.0-53.0","E0D18BBBCD6B4625A1281C4347DED50B","019dac5c-0ae1-7095-918f-44a93d5abca7","019dac5b-243f-7307-af64-a10f53f1ef70","","2222","
                <div class=""stimulus-container"">
                    <img src=""images/causal_sequence/saving_a_cat_causal/saving_a_cat_causal_8.png"" class=""exp-image"">
                    <div class=""question-area"">
                        <p style=""font-size: 20px; font-weight: bold; margin: 0;"">Is there a person in this image?</p>
                    </div>
                </div>","0","main_experiment_trial","8","saving_a_cat_causal","causal_sequence","chronological","","","","","","",""
"","","","","","html-keyboard-response","54","195103","0.0-54.0","E0D18BBBCD6B4625A1281C4347DED50B","019dac5c-0ae1-7095-918f-44a93d5abca7","019dac5b-243f-7307-af64-a10f53f1ef70","","null","
                <div class=""stimulus-container"">
                    <img src=""images/causal_sequence/saving_a_cat_causal/saving_a_cat_causal_9.png"" class=""exp-image"">
                    <div class=""question-area""></div> 
                </div>","null","","","","","","","","","","","",""
"","","","","","html-button-response","55","196277","0.0-55.0","E0D18BBBCD6B4625A1281C4347DED50B","019dac5c-0ae1-7095-918f-44a93d5abca7","019dac5b-243f-7307-af64-a10f53f1ef70","","1173","
                <div class=""stimulus-container"">
                    <img src=""images/causal_sequence/saving_a_cat_causal/saving_a_cat_causal_9.png"" class=""exp-image"">
                    <div class=""question-area"">
                        <p style=""font-size: 20px; font-weight: bold; margin: 0;"">Is there a person in this image?</p>
                    </div>
                </div>","0","main_experiment_trial","9","saving_a_cat_causal","causal_sequence","chronological","","","","","","",""
"","","","","","html-keyboard-response","56","201277","0.0-56.0","E0D18BBBCD6B4625A1281C4347DED50B","019dac5c-0ae1-7095-918f-44a93d5abca7","019dac5b-243f-7307-af64-a10f53f1ef70","","null","
                <div class=""stimulus-container"">
                    <img src=""images/causal_sequence/saving_a_cat_causal/saving_a_cat_causal_ten.png"" class=""exp-image"">
                    <div class=""question-area""></div> 
                </div>","null","","","","","","","","","","","",""
"","","","","","html-button-response","57","201478","0.0-57.0","E0D18BBBCD6B4625A1281C4347DED50B","019dac5c-0ae1-7095-918f-44a93d5abca7","019dac5b-243f-7307-af64-a10f53f1ef70","","200","
                <div class=""stimulus-container"">
                    <img src=""images/causal_sequence/saving_a_cat_causal/saving_a_cat_causal_ten.png"" class=""exp-image"">
                    <div class=""question-area"">
                        <p style=""font-size: 20px; font-weight: bold; margin: 0;"">Is there a person in this image?</p>
                    </div>
                </div>","0","main_experiment_trial","ten","saving_a_cat_causal","causal_sequence","chronological","","","","","","",""
"","","","","","html-keyboard-response","58","206483","0.0-58.0","E0D18BBBCD6B4625A1281C4347DED50B","019dac5c-0ae1-7095-918f-44a93d5abca7","019dac5b-243f-7307-af64-a10f53f1ef70","","null","<div style=""background-color: white; width: 100vw; height: 100vh;""></div>","null","","","","","","","","","","","",""
"","","","","","html-keyboard-response","59","211492","0.0-59.0","E0D18BBBCD6B4625A1281C4347DED50B","019dac5c-0ae1-7095-918f-44a93d5abca7","019dac5b-243f-7307-af64-a10f53f1ef70","","null","
                <div class=""stimulus-container"">
                    <img src=""images/semantic_sequence/self_care_activities_semantic/self_care_activities_semantic_1.png"" class=""exp-image"">
                    <div class=""question-area""></div> 
                </div>","null","","","","","","","","","","","",""
"","","","","","html-button-response","60","212327","0.0-60.0","E0D18BBBCD6B4625A1281C4347DED50B","019dac5c-0ae1-7095-918f-44a93d5abca7","019dac5b-243f-7307-af64-a10f53f1ef70","","834","
                <div class=""stimulus-container"">
                    <img src=""images/semantic_sequence/self_care_activities_semantic/self_care_activities_semantic_1.png"" class=""exp-image"">
                    <div class=""question-area"">
                        <p style=""font-size: 20px; font-weight: bold; margin: 0;"">Is there a person in this image?</p>
                    </div>
                </div>","0","main_experiment_trial","1","self_care_activities_semantic","semantic_sequence","chronological","","","","","","",""
"","","","","","html-keyboard-response","61","217348","0.0-61.0","E0D18BBBCD6B4625A1281C4347DED50B","019dac5c-0ae1-7095-918f-44a93d5abca7","019dac5b-243f-7307-af64-a10f53f1ef70","","null","
                <div class=""stimulus-container"">
                    <img src=""images/semantic_sequence/self_care_activities_semantic/self_care_activities_semantic_2.png"" class=""exp-image"">
                    <div class=""question-area""></div> 
                </div>","null","","","","","","","","","","","",""
"","","","","","html-button-response","62","218261","0.0-62.0","E0D18BBBCD6B4625A1281C4347DED50B","019dac5c-0ae1-7095-918f-44a93d5abca7","019dac5b-243f-7307-af64-a10f53f1ef70","","913","
                <div class=""stimulus-container"">
                    <img src=""images/semantic_sequence/self_care_activities_semantic/self_care_activities_semantic_2.png"" class=""exp-image"">
                    <div class=""question-area"">
                        <p style=""font-size: 20px; font-weight: bold; margin: 0;"">Is there a person in this image?</p>
                    </div>
                </div>","0","main_experiment_trial","2","self_care_activities_semantic","semantic_sequence","chronological","","","","","","",""
"","","","","","html-keyboard-response","63","223268","0.0-63.0","E0D18BBBCD6B4625A1281C4347DED50B","019dac5c-0ae1-7095-918f-44a93d5abca7","019dac5b-243f-7307-af64-a10f53f1ef70","","null","
                <div class=""stimulus-container"">
                    <img src=""images/semantic_sequence/self_care_activities_semantic/self_care_activities_semantic_3.png"" class=""exp-image"">
                    <div class=""question-area""></div> 
                </div>","null","","","","","","","","","","","",""
"","","","","","html-button-response","64","224290","0.0-64.0","E0D18BBBCD6B4625A1281C4347DED50B","019dac5c-0ae1-7095-918f-44a93d5abca7","019dac5b-243f-7307-af64-a10f53f1ef70","","1021","
                <div class=""stimulus-container"">
                    <img src=""images/semantic_sequence/self_care_activities_semantic/self_care_activities_semantic_3.png"" class=""exp-image"">
                    <div class=""question-area"">
                        <p style=""font-size: 20px; font-weight: bold; margin: 0;"">Is there a person in this image?</p>
                    </div>
                </div>","0","main_experiment_trial","3","self_care_activities_semantic","semantic_sequence","chronological","","","","","","",""
"","","","","","html-keyboard-response","65","229306","0.0-65.0","E0D18BBBCD6B4625A1281C4347DED50B","019dac5c-0ae1-7095-918f-44a93d5abca7","019dac5b-243f-7307-af64-a10f53f1ef70","","null","
                <div class=""stimulus-container"">
                    <img src=""images/semantic_sequence/self_care_activities_semantic/self_care_activities_semantic_4.png"" class=""exp-image"">
                    <div class=""question-area""></div> 
                </div>","null","","","","","","","","","","","",""
"","","","","","html-button-response","66","230118","0.0-66.0","E0D18BBBCD6B4625A1281C4347DED50B","019dac5c-0ae1-7095-918f-44a93d5abca7","019dac5b-243f-7307-af64-a10f53f1ef70","","811","
                <div class=""stimulus-container"">
                    <img src=""images/semantic_sequence/self_care_activities_semantic/self_care_activities_semantic_4.png"" class=""exp-image"">
                    <div class=""question-area"">
                        <p style=""font-size: 20px; font-weight: bold; margin: 0;"">Is there a person in this image?</p>
                    </div>
                </div>","0","main_experiment_trial","4","self_care_activities_semantic","semantic_sequence","chronological","","","","","","",""
"","","","","","html-keyboard-response","67","235120","0.0-67.0","E0D18BBBCD6B4625A1281C4347DED50B","019dac5c-0ae1-7095-918f-44a93d5abca7","019dac5b-243f-7307-af64-a10f53f1ef70","","null","
                <div class=""stimulus-container"">
                    <img src=""images/semantic_sequence/self_care_activities_semantic/self_care_activities_semantic_5.png"" class=""exp-image"">
                    <div class=""question-area""></div> 
                </div>","null","","","","","","","","","","","",""
"","","","","","html-button-response","68","236910","0.0-68.0","E0D18BBBCD6B4625A1281C4347DED50B","019dac5c-0ae1-7095-918f-44a93d5abca7","019dac5b-243f-7307-af64-a10f53f1ef70","","1789","
                <div class=""stimulus-container"">
                    <img src=""images/semantic_sequence/self_care_activities_semantic/self_care_activities_semantic_5.png"" class=""exp-image"">
                    <div class=""question-area"">
                        <p style=""font-size: 20px; font-weight: bold; margin: 0;"">Is there a person in this image?</p>
                    </div>
                </div>","0","main_experiment_trial","5","self_care_activities_semantic","semantic_sequence","chronological","","","","","","",""
"","","","","","html-keyboard-response","69","241919","0.0-69.0","E0D18BBBCD6B4625A1281C4347DED50B","019dac5c-0ae1-7095-918f-44a93d5abca7","019dac5b-243f-7307-af64-a10f53f1ef70","","null","
                <div class=""stimulus-container"">
                    <img src=""images/semantic_sequence/self_care_activities_semantic/self_care_activities_semantic_6.png"" class=""exp-image"">
                    <div class=""question-area""></div> 
                </div>","null","","","","","","","","","","","",""
"","","","","","html-button-response","70","243989","0.0-70.0","E0D18BBBCD6B4625A1281C4347DED50B","019dac5c-0ae1-7095-918f-44a93d5abca7","019dac5b-243f-7307-af64-a10f53f1ef70","","2070","
                <div class=""stimulus-container"">
                    <img src=""images/semantic_sequence/self_care_activities_semantic/self_care_activities_semantic_6.png"" class=""exp-image"">
                    <div class=""question-area"">
                        <p style=""font-size: 20px; font-weight: bold; margin: 0;"">Is there a person in this image?</p>
                    </div>
                </div>","1","main_experiment_trial","6","self_care_activities_semantic","semantic_sequence","chronological","","","","","","",""
"","","","","","html-keyboard-response","71","249004","0.0-71.0","E0D18BBBCD6B4625A1281C4347DED50B","019dac5c-0ae1-7095-918f-44a93d5abca7","019dac5b-243f-7307-af64-a10f53f1ef70","","null","
                <div class=""stimulus-container"">
                    <img src=""images/semantic_sequence/self_care_activities_semantic/self_care_activities_semantic_7.png"" class=""exp-image"">
                    <div class=""question-area""></div> 
                </div>","null","","","","","","","","","","","",""
"","","","","","html-button-response","72","249629","0.0-72.0","E0D18BBBCD6B4625A1281C4347DED50B","019dac5c-0ae1-7095-918f-44a93d5abca7","019dac5b-243f-7307-af64-a10f53f1ef70","","624","
                <div class=""stimulus-container"">
                    <img src=""images/semantic_sequence/self_care_activities_semantic/self_care_activities_semantic_7.png"" class=""exp-image"">
                    <div class=""question-area"">
                        <p style=""font-size: 20px; font-weight: bold; margin: 0;"">Is there a person in this image?</p>
                    </div>
                </div>","0","main_experiment_trial","7","self_care_activities_semantic","semantic_sequence","chronological","","","","","","",""
"","","","","","html-keyboard-response","73","254643","0.0-73.0","E0D18BBBCD6B4625A1281C4347DED50B","019dac5c-0ae1-7095-918f-44a93d5abca7","019dac5b-243f-7307-af64-a10f53f1ef70","","null","
                <div class=""stimulus-container"">
                    <img src=""images/semantic_sequence/self_care_activities_semantic/self_care_activities_semantic_8.png"" class=""exp-image"">
                    <div class=""question-area""></div> 
                </div>","null","","","","","","","","","","","",""
"","","","","","html-button-response","74","255430","0.0-74.0","E0D18BBBCD6B4625A1281C4347DED50B","019dac5c-0ae1-7095-918f-44a93d5abca7","019dac5b-243f-7307-af64-a10f53f1ef70","","786","
                <div class=""stimulus-container"">
                    <img src=""images/semantic_sequence/self_care_activities_semantic/self_care_activities_semantic_8.png"" class=""exp-image"">
                    <div class=""question-area"">
                        <p style=""font-size: 20px; font-weight: bold; margin: 0;"">Is there a person in this image?</p>
                    </div>
                </div>","0","main_experiment_trial","8","self_care_activities_semantic","semantic_sequence","chronological","","","","","","",""
"","","","","","html-keyboard-response","75","260431","0.0-75.0","E0D18BBBCD6B4625A1281C4347DED50B","019dac5c-0ae1-7095-918f-44a93d5abca7","019dac5b-243f-7307-af64-a10f53f1ef70","","null","
                <div class=""stimulus-container"">
                    <img src=""images/semantic_sequence/self_care_activities_semantic/self_care_activities_semantic_9.png"" class=""exp-image"">
                    <div class=""question-area""></div> 
                </div>","null","","","","","","","","","","","",""
"","","","","","html-button-response","76","262214","0.0-76.0","E0D18BBBCD6B4625A1281C4347DED50B","019dac5c-0ae1-7095-918f-44a93d5abca7","019dac5b-243f-7307-af64-a10f53f1ef70","","1781","
                <div class=""stimulus-container"">
                    <img src=""images/semantic_sequence/self_care_activities_semantic/self_care_activities_semantic_9.png"" class=""exp-image"">
                    <div class=""question-area"">
                        <p style=""font-size: 20px; font-weight: bold; margin: 0;"">Is there a person in this image?</p>
                    </div>
                </div>","0","main_experiment_trial","9","self_care_activities_semantic","semantic_sequence","chronological","","","","","","",""
"","","","","","html-keyboard-response","77","267220","0.0-77.0","E0D18BBBCD6B4625A1281C4347DED50B","019dac5c-0ae1-7095-918f-44a93d5abca7","019dac5b-243f-7307-af64-a10f53f1ef70","","null","
                <div class=""stimulus-container"">
                    <img src=""images/semantic_sequence/self_care_activities_semantic/self_care_activities_semantic_ten.png"" class=""exp-image"">
                    <div class=""question-area""></div> 
                </div>","null","","","","","","","","","","","",""
"","","","","","html-button-response","78","269709","0.0-78.0","E0D18BBBCD6B4625A1281C4347DED50B","019dac5c-0ae1-7095-918f-44a93d5abca7","019dac5b-243f-7307-af64-a10f53f1ef70","","2488","
                <div class=""stimulus-container"">
                    <img src=""images/semantic_sequence/self_care_activities_semantic/self_care_activities_semantic_ten.png"" class=""exp-image"">
                    <div class=""question-area"">
                        <p style=""font-size: 20px; font-weight: bold; margin: 0;"">Is there a person in this image?</p>
                    </div>
                </div>","0","main_experiment_trial","ten","self_care_activities_semantic","semantic_sequence","chronological","","","","","","",""
"","","","","","html-keyboard-response","79","274714","0.0-79.0","E0D18BBBCD6B4625A1281C4347DED50B","019dac5c-0ae1-7095-918f-44a93d5abca7","019dac5b-243f-7307-af64-a10f53f1ef70","","null","<div style=""background-color: white; width: 100vw; height: 100vh;""></div>","null","","","","","","","","","","","",""
"","","","","","html-keyboard-response","80","279724","0.0-80.0","E0D18BBBCD6B4625A1281C4347DED50B","019dac5c-0ae1-7095-918f-44a93d5abca7","019dac5b-243f-7307-af64-a10f53f1ef70","","null","
                <div class=""stimulus-container"">
                    <img src=""images/causal_sequence/the_performance_causal/the_performance_causal_1.png"" class=""exp-image"">
                    <div class=""question-area""></div> 
                </div>","null","","","","","","","","","","","",""
"","","","","","html-button-response","81","280725","0.0-81.0","E0D18BBBCD6B4625A1281C4347DED50B","019dac5c-0ae1-7095-918f-44a93d5abca7","019dac5b-243f-7307-af64-a10f53f1ef70","","1001","
                <div class=""stimulus-container"">
                    <img src=""images/causal_sequence/the_performance_causal/the_performance_causal_1.png"" class=""exp-image"">
                    <div class=""question-area"">
                        <p style=""font-size: 20px; font-weight: bold; margin: 0;"">Is there a person in this image?</p>
                    </div>
                </div>","0","main_experiment_trial","1","the_performance_causal","causal_sequence","chronological","","","","","","",""
"","","","","","html-keyboard-response","82","285735","0.0-82.0","E0D18BBBCD6B4625A1281C4347DED50B","019dac5c-0ae1-7095-918f-44a93d5abca7","019dac5b-243f-7307-af64-a10f53f1ef70","","null","
                <div class=""stimulus-container"">
                    <img src=""images/causal_sequence/the_performance_causal/the_performance_causal_2.png"" class=""exp-image"">
                    <div class=""question-area""></div> 
                </div>","null","","","","","","","","","","","",""
"","","","","","html-button-response","83","288744","0.0-83.0","E0D18BBBCD6B4625A1281C4347DED50B","019dac5c-0ae1-7095-918f-44a93d5abca7","019dac5b-243f-7307-af64-a10f53f1ef70","","null","
                <div class=""stimulus-container"">
                    <img src=""images/causal_sequence/the_performance_causal/the_performance_causal_2.png"" class=""exp-image"">
                    <div class=""question-area"">
                        <p style=""font-size: 20px; font-weight: bold; margin: 0;"">Is there a person in this image?</p>
                    </div>
                </div>","null","main_experiment_trial","2","the_performance_causal","causal_sequence","chronological","","","","","","",""
"","","","","","html-keyboard-response","84","293751","0.0-84.0","E0D18BBBCD6B4625A1281C4347DED50B","019dac5c-0ae1-7095-918f-44a93d5abca7","019dac5b-243f-7307-af64-a10f53f1ef70","","null","
                <div class=""stimulus-container"">
                    <img src=""images/causal_sequence/the_performance_causal/the_performance_causal_3.png"" class=""exp-image"">
                    <div class=""question-area""></div> 
                </div>","null","","","","","","","","","","","",""
"","","","","","html-button-response","85","294383","0.0-85.0","E0D18BBBCD6B4625A1281C4347DED50B","019dac5c-0ae1-7095-918f-44a93d5abca7","019dac5b-243f-7307-af64-a10f53f1ef70","","632","
                <div class=""stimulus-container"">
                    <img src=""images/causal_sequence/the_performance_causal/the_performance_causal_3.png"" class=""exp-image"">
                    <div class=""question-area"">
                        <p style=""font-size: 20px; font-weight: bold; margin: 0;"">Is there a person in this image?</p>
                    </div>
                </div>","0","main_experiment_trial","3","the_performance_causal","causal_sequence","chronological","","","","","","",""
"","","","","","html-keyboard-response","86","299399","0.0-86.0","E0D18BBBCD6B4625A1281C4347DED50B","019dac5c-0ae1-7095-918f-44a93d5abca7","019dac5b-243f-7307-af64-a10f53f1ef70","","null","
                <div class=""stimulus-container"">
                    <img src=""images/causal_sequence/the_performance_causal/the_performance_causal_4.png"" class=""exp-image"">
                    <div class=""question-area""></div> 
                </div>","null","","","","","","","","","","","",""
"","","","","","html-button-response","87","301423","0.0-87.0","E0D18BBBCD6B4625A1281C4347DED50B","019dac5c-0ae1-7095-918f-44a93d5abca7","019dac5b-243f-7307-af64-a10f53f1ef70","","2023","
                <div class=""stimulus-container"">
                    <img src=""images/causal_sequence/the_performance_causal/the_performance_causal_4.png"" class=""exp-image"">
                    <div class=""question-area"">
                        <p style=""font-size: 20px; font-weight: bold; margin: 0;"">Is there a person in this image?</p>
                    </div>
                </div>","0","main_experiment_trial","4","the_performance_causal","causal_sequence","chronological","","","","","","",""
"","","","","","html-keyboard-response","88","306437","0.0-88.0","E0D18BBBCD6B4625A1281C4347DED50B","019dac5c-0ae1-7095-918f-44a93d5abca7","019dac5b-243f-7307-af64-a10f53f1ef70","","null","
                <div class=""stimulus-container"">
                    <img src=""images/causal_sequence/the_performance_causal/the_performance_causal_5.png"" class=""exp-image"">
                    <div class=""question-area""></div> 
                </div>","null","","","","","","","","","","","",""
"","","","","","html-button-response","89","307725","0.0-89.0","E0D18BBBCD6B4625A1281C4347DED50B","019dac5c-0ae1-7095-918f-44a93d5abca7","019dac5b-243f-7307-af64-a10f53f1ef70","","1287","
                <div class=""stimulus-container"">
                    <img src=""images/causal_sequence/the_performance_causal/the_performance_causal_5.png"" class=""exp-image"">
                    <div class=""question-area"">
                        <p style=""font-size: 20px; font-weight: bold; margin: 0;"">Is there a person in this image?</p>
                    </div>
                </div>","0","main_experiment_trial","5","the_performance_causal","causal_sequence","chronological","","","","","","",""
"","","","","","html-keyboard-response","90","312727","0.0-90.0","E0D18BBBCD6B4625A1281C4347DED50B","019dac5c-0ae1-7095-918f-44a93d5abca7","019dac5b-243f-7307-af64-a10f53f1ef70","","null","
                <div class=""stimulus-container"">
                    <img src=""images/causal_sequence/the_performance_causal/the_performance_causal_6.png"" class=""exp-image"">
                    <div class=""question-area""></div> 
                </div>","null","","","","","","","","","","","",""
"","","","","","html-button-response","91","313926","0.0-91.0","E0D18BBBCD6B4625A1281C4347DED50B","019dac5c-0ae1-7095-918f-44a93d5abca7","019dac5b-243f-7307-af64-a10f53f1ef70","","1199","
                <div class=""stimulus-container"">
                    <img src=""images/causal_sequence/the_performance_causal/the_performance_causal_6.png"" class=""exp-image"">
                    <div class=""question-area"">
                        <p style=""font-size: 20px; font-weight: bold; margin: 0;"">Is there a person in this image?</p>
                    </div>
                </div>","0","main_experiment_trial","6","the_performance_causal","causal_sequence","chronological","","","","","","",""
"","","","","","html-keyboard-response","92","318930","0.0-92.0","E0D18BBBCD6B4625A1281C4347DED50B","019dac5c-0ae1-7095-918f-44a93d5abca7","019dac5b-243f-7307-af64-a10f53f1ef70","","null","
                <div class=""stimulus-container"">
                    <img src=""images/causal_sequence/the_performance_causal/the_performance_causal_7.png"" class=""exp-image"">
                    <div class=""question-area""></div> 
                </div>","null","","","","","","","","","","","",""
"","","","","","html-button-response","93","320270","0.0-93.0","E0D18BBBCD6B4625A1281C4347DED50B","019dac5c-0ae1-7095-918f-44a93d5abca7","019dac5b-243f-7307-af64-a10f53f1ef70","","1339","
                <div class=""stimulus-container"">
                    <img src=""images/causal_sequence/the_performance_causal/the_performance_causal_7.png"" class=""exp-image"">
                    <div class=""question-area"">
                        <p style=""font-size: 20px; font-weight: bold; margin: 0;"">Is there a person in this image?</p>
                    </div>
                </div>","0","main_experiment_trial","7","the_performance_causal","causal_sequence","chronological","","","","","","",""
"","","","","","html-keyboard-response","94","325271","0.0-94.0","E0D18BBBCD6B4625A1281C4347DED50B","019dac5c-0ae1-7095-918f-44a93d5abca7","019dac5b-243f-7307-af64-a10f53f1ef70","","null","
                <div class=""stimulus-container"">
                    <img src=""images/causal_sequence/the_performance_causal/the_performance_causal_8.png"" class=""exp-image"">
                    <div class=""question-area""></div> 
                </div>","null","","","","","","","","","","","",""
"","","","","","html-button-response","95","326990","0.0-95.0","E0D18BBBCD6B4625A1281C4347DED50B","019dac5c-0ae1-7095-918f-44a93d5abca7","019dac5b-243f-7307-af64-a10f53f1ef70","","1717","
                <div class=""stimulus-container"">
                    <img src=""images/causal_sequence/the_performance_causal/the_performance_causal_8.png"" class=""exp-image"">
                    <div class=""question-area"">
                        <p style=""font-size: 20px; font-weight: bold; margin: 0;"">Is there a person in this image?</p>
                    </div>
                </div>","0","main_experiment_trial","8","the_performance_causal","causal_sequence","chronological","","","","","","",""
"","","","","","html-keyboard-response","96","331996","0.0-96.0","E0D18BBBCD6B4625A1281C4347DED50B","019dac5c-0ae1-7095-918f-44a93d5abca7","019dac5b-243f-7307-af64-a10f53f1ef70","","null","
                <div class=""stimulus-container"">
                    <img src=""images/causal_sequence/the_performance_causal/the_performance_causal_9.png"" class=""exp-image"">
                    <div class=""question-area""></div> 
                </div>","null","","","","","","","","","","","",""
"","","","","","html-button-response","97","332663","0.0-97.0","E0D18BBBCD6B4625A1281C4347DED50B","019dac5c-0ae1-7095-918f-44a93d5abca7","019dac5b-243f-7307-af64-a10f53f1ef70","","666","
                <div class=""stimulus-container"">
                    <img src=""images/causal_sequence/the_performance_causal/the_performance_causal_9.png"" class=""exp-image"">
                    <div class=""question-area"">
                        <p style=""font-size: 20px; font-weight: bold; margin: 0;"">Is there a person in this image?</p>
                    </div>
                </div>","0","main_experiment_trial","9","the_performance_causal","causal_sequence","chronological","","","","","","",""
"","","","","","html-keyboard-response","98","337672","0.0-98.0","E0D18BBBCD6B4625A1281C4347DED50B","019dac5c-0ae1-7095-918f-44a93d5abca7","019dac5b-243f-7307-af64-a10f53f1ef70","","null","
                <div class=""stimulus-container"">
                    <img src=""images/causal_sequence/the_performance_causal/the_performance_causal_ten.png"" class=""exp-image"">
                    <div class=""question-area""></div> 
                </div>","null","","","","","","","","","","","",""
"","","","","","html-button-response","99","338678","0.0-99.0","E0D18BBBCD6B4625A1281C4347DED50B","019dac5c-0ae1-7095-918f-44a93d5abca7","019dac5b-243f-7307-af64-a10f53f1ef70","","1005","
                <div class=""stimulus-container"">
                    <img src=""images/causal_sequence/the_performance_causal/the_performance_causal_ten.png"" class=""exp-image"">
                    <div class=""question-area"">
                        <p style=""font-size: 20px; font-weight: bold; margin: 0;"">Is there a person in this image?</p>
                    </div>
                </div>","0","main_experiment_trial","ten","the_performance_causal","causal_sequence","chronological","","","","","","",""
"","","","","","html-keyboard-response","100","343690","0.0-100.0","E0D18BBBCD6B4625A1281C4347DED50B","019dac5c-0ae1-7095-918f-44a93d5abca7","019dac5b-243f-7307-af64-a10f53f1ef70","","null","<div style=""background-color: white; width: 100vw; height: 100vh;""></div>","null","","","","","","","","","","","",""
"","","","","","html-keyboard-response","101","348700","0.0-101.0","E0D18BBBCD6B4625A1281C4347DED50B","019dac5c-0ae1-7095-918f-44a93d5abca7","019dac5b-243f-7307-af64-a10f53f1ef70","","null","
                <div class=""stimulus-container"">
                    <img src=""images/semantic_sequence/maintaining_a_car_semantic/maintaining_a_car_semantic_1.png"" class=""exp-image"">
                    <div class=""question-area""></div> 
                </div>","null","","","","","","","","","","","",""
"","","","","","html-button-response","102","351078","0.0-102.0","E0D18BBBCD6B4625A1281C4347DED50B","019dac5c-0ae1-7095-918f-44a93d5abca7","019dac5b-243f-7307-af64-a10f53f1ef70","","2377","
                <div class=""stimulus-container"">
                    <img src=""images/semantic_sequence/maintaining_a_car_semantic/maintaining_a_car_semantic_1.png"" class=""exp-image"">
                    <div class=""question-area"">
                        <p style=""font-size: 20px; font-weight: bold; margin: 0;"">Is there a person in this image?</p>
                    </div>
                </div>","0","main_experiment_trial","1","maintaining_a_car_semantic","semantic_sequence","chronological","","","","","","",""
"","","","","","html-keyboard-response","103","356081","0.0-103.0","E0D18BBBCD6B4625A1281C4347DED50B","019dac5c-0ae1-7095-918f-44a93d5abca7","019dac5b-243f-7307-af64-a10f53f1ef70","","null","
                <div class=""stimulus-container"">
                    <img src=""images/semantic_sequence/maintaining_a_car_semantic/maintaining_a_car_semantic_2.png"" class=""exp-image"">
                    <div class=""question-area""></div> 
                </div>","null","","","","","","","","","","","",""
"","","","","","html-button-response","104","356800","0.0-104.0","E0D18BBBCD6B4625A1281C4347DED50B","019dac5c-0ae1-7095-918f-44a93d5abca7","019dac5b-243f-7307-af64-a10f53f1ef70","","718","
                <div class=""stimulus-container"">
                    <img src=""images/semantic_sequence/maintaining_a_car_semantic/maintaining_a_car_semantic_2.png"" class=""exp-image"">
                    <div class=""question-area"">
                        <p style=""font-size: 20px; font-weight: bold; margin: 0;"">Is there a person in this image?</p>
                    </div>
                </div>","0","main_experiment_trial","2","maintaining_a_car_semantic","semantic_sequence","chronological","","","","","","",""
"","","","","","html-keyboard-response","105","361817","0.0-105.0","E0D18BBBCD6B4625A1281C4347DED50B","019dac5c-0ae1-7095-918f-44a93d5abca7","019dac5b-243f-7307-af64-a10f53f1ef70","","null","
                <div class=""stimulus-container"">
                    <img src=""images/semantic_sequence/maintaining_a_car_semantic/maintaining_a_car_semantic_3.png"" class=""exp-image"">
                    <div class=""question-area""></div> 
                </div>","null","","","","","","","","","","","",""
"","","","","","html-button-response","106","362350","0.0-106.0","E0D18BBBCD6B4625A1281C4347DED50B","019dac5c-0ae1-7095-918f-44a93d5abca7","019dac5b-243f-7307-af64-a10f53f1ef70","","532","
                <div class=""stimulus-container"">
                    <img src=""images/semantic_sequence/maintaining_a_car_semantic/maintaining_a_car_semantic_3.png"" class=""exp-image"">
                    <div class=""question-area"">
                        <p style=""font-size: 20px; font-weight: bold; margin: 0;"">Is there a person in this image?</p>
                    </div>
                </div>","0","main_experiment_trial","3","maintaining_a_car_semantic","semantic_sequence","chronological","","","","","","",""
"","","","","","html-keyboard-response","107","367367","0.0-107.0","E0D18BBBCD6B4625A1281C4347DED50B","019dac5c-0ae1-7095-918f-44a93d5abca7","019dac5b-243f-7307-af64-a10f53f1ef70","","null","
                <div class=""stimulus-container"">
                    <img src=""images/semantic_sequence/maintaining_a_car_semantic/maintaining_a_car_semantic_4.png"" class=""exp-image"">
                    <div class=""question-area""></div> 
                </div>","null","","","","","","","","","","","",""
"","","","","","html-button-response","108","367903","0.0-108.0","E0D18BBBCD6B4625A1281C4347DED50B","019dac5c-0ae1-7095-918f-44a93d5abca7","019dac5b-243f-7307-af64-a10f53f1ef70","","535","
                <div class=""stimulus-container"">
                    <img src=""images/semantic_sequence/maintaining_a_car_semantic/maintaining_a_car_semantic_4.png"" class=""exp-image"">
                    <div class=""question-area"">
                        <p style=""font-size: 20px; font-weight: bold; margin: 0;"">Is there a person in this image?</p>
                    </div>
                </div>","0","main_experiment_trial","4","maintaining_a_car_semantic","semantic_sequence","chronological","","","","","","",""
"","","","","","html-keyboard-response","109","372904","0.0-109.0","E0D18BBBCD6B4625A1281C4347DED50B","019dac5c-0ae1-7095-918f-44a93d5abca7","019dac5b-243f-7307-af64-a10f53f1ef70","","null","
                <div class=""stimulus-container"">
                    <img src=""images/semantic_sequence/maintaining_a_car_semantic/maintaining_a_car_semantic_5.png"" class=""exp-image"">
                    <div class=""question-area""></div> 
                </div>","null","","","","","","","","","","","",""
"","","","","","html-button-response","110","375919","0.0-110.0","E0D18BBBCD6B4625A1281C4347DED50B","019dac5c-0ae1-7095-918f-44a93d5abca7","019dac5b-243f-7307-af64-a10f53f1ef70","","null","
                <div class=""stimulus-container"">
                    <img src=""images/semantic_sequence/maintaining_a_car_semantic/maintaining_a_car_semantic_5.png"" class=""exp-image"">
                    <div class=""question-area"">
                        <p style=""font-size: 20px; font-weight: bold; margin: 0;"">Is there a person in this image?</p>
                    </div>
                </div>","null","main_experiment_trial","5","maintaining_a_car_semantic","semantic_sequence","chronological","","","","","","",""
"","","","","","html-keyboard-response","111","380925","0.0-111.0","E0D18BBBCD6B4625A1281C4347DED50B","019dac5c-0ae1-7095-918f-44a93d5abca7","019dac5b-243f-7307-af64-a10f53f1ef70","","null","
                <div class=""stimulus-container"">
                    <img src=""images/semantic_sequence/maintaining_a_car_semantic/maintaining_a_car_semantic_6.png"" class=""exp-image"">
                    <div class=""question-area""></div> 
                </div>","null","","","","","","","","","","","",""
"","","","","","html-button-response","112","381486","0.0-112.0","E0D18BBBCD6B4625A1281C4347DED50B","019dac5c-0ae1-7095-918f-44a93d5abca7","019dac5b-243f-7307-af64-a10f53f1ef70","","560","
                <div class=""stimulus-container"">
                    <img src=""images/semantic_sequence/maintaining_a_car_semantic/maintaining_a_car_semantic_6.png"" class=""exp-image"">
                    <div class=""question-area"">
                        <p style=""font-size: 20px; font-weight: bold; margin: 0;"">Is there a person in this image?</p>
                    </div>
                </div>","0","main_experiment_trial","6","maintaining_a_car_semantic","semantic_sequence","chronological","","","","","","",""
"","","","","","html-keyboard-response","113","386501","0.0-113.0","E0D18BBBCD6B4625A1281C4347DED50B","019dac5c-0ae1-7095-918f-44a93d5abca7","019dac5b-243f-7307-af64-a10f53f1ef70","","null","
                <div class=""stimulus-container"">
                    <img src=""images/semantic_sequence/maintaining_a_car_semantic/maintaining_a_car_semantic_7.png"" class=""exp-image"">
                    <div class=""question-area""></div> 
                </div>","null","","","","","","","","","","","",""
"","","","","","html-button-response","114","387383","0.0-114.0","E0D18BBBCD6B4625A1281C4347DED50B","019dac5c-0ae1-7095-918f-44a93d5abca7","019dac5b-243f-7307-af64-a10f53f1ef70","","881","
                <div class=""stimulus-container"">
                    <img src=""images/semantic_sequence/maintaining_a_car_semantic/maintaining_a_car_semantic_7.png"" class=""exp-image"">
                    <div class=""question-area"">
                        <p style=""font-size: 20px; font-weight: bold; margin: 0;"">Is there a person in this image?</p>
                    </div>
                </div>","0","main_experiment_trial","7","maintaining_a_car_semantic","semantic_sequence","chronological","","","","","","",""
"","","","","","html-keyboard-response","115","392390","0.0-115.0","E0D18BBBCD6B4625A1281C4347DED50B","019dac5c-0ae1-7095-918f-44a93d5abca7","019dac5b-243f-7307-af64-a10f53f1ef70","","null","
                <div class=""stimulus-container"">
                    <img src=""images/semantic_sequence/maintaining_a_car_semantic/maintaining_a_car_semantic_8.png"" class=""exp-image"">
                    <div class=""question-area""></div> 
                </div>","null","","","","","","","","","","","",""
"","","","","","html-button-response","116","393239","0.0-116.0","E0D18BBBCD6B4625A1281C4347DED50B","019dac5c-0ae1-7095-918f-44a93d5abca7","019dac5b-243f-7307-af64-a10f53f1ef70","","848","
                <div class=""stimulus-container"">
                    <img src=""images/semantic_sequence/maintaining_a_car_semantic/maintaining_a_car_semantic_8.png"" class=""exp-image"">
                    <div class=""question-area"">
                        <p style=""font-size: 20px; font-weight: bold; margin: 0;"">Is there a person in this image?</p>
                    </div>
                </div>","0","main_experiment_trial","8","maintaining_a_car_semantic","semantic_sequence","chronological","","","","","","",""
"","","","","","html-keyboard-response","117","398245","0.0-117.0","E0D18BBBCD6B4625A1281C4347DED50B","019dac5c-0ae1-7095-918f-44a93d5abca7","019dac5b-243f-7307-af64-a10f53f1ef70","","null","
                <div class=""stimulus-container"">
                    <img src=""images/semantic_sequence/maintaining_a_car_semantic/maintaining_a_car_semantic_9.png"" class=""exp-image"">
                    <div class=""question-area""></div> 
                </div>","null","","","","","","","","","","","",""
"","","","","","html-button-response","118","398734","0.0-118.0","E0D18BBBCD6B4625A1281C4347DED50B","019dac5c-0ae1-7095-918f-44a93d5abca7","019dac5b-243f-7307-af64-a10f53f1ef70","","489","
                <div class=""stimulus-container"">
                    <img src=""images/semantic_sequence/maintaining_a_car_semantic/maintaining_a_car_semantic_9.png"" class=""exp-image"">
                    <div class=""question-area"">
                        <p style=""font-size: 20px; font-weight: bold; margin: 0;"">Is there a person in this image?</p>
                    </div>
                </div>","0","main_experiment_trial","9","maintaining_a_car_semantic","semantic_sequence","chronological","","","","","","",""
"","","","","","html-keyboard-response","119","403738","0.0-119.0","E0D18BBBCD6B4625A1281C4347DED50B","019dac5c-0ae1-7095-918f-44a93d5abca7","019dac5b-243f-7307-af64-a10f53f1ef70","","null","
                <div class=""stimulus-container"">
                    <img src=""images/semantic_sequence/maintaining_a_car_semantic/maintaining_a_car_semantic_ten.png"" class=""exp-image"">
                    <div class=""question-area""></div> 
                </div>","null","","","","","","","","","","","",""
"","","","","","html-button-response","120","406718","0.0-120.0","E0D18BBBCD6B4625A1281C4347DED50B","019dac5c-0ae1-7095-918f-44a93d5abca7","019dac5b-243f-7307-af64-a10f53f1ef70","","2979","
                <div class=""stimulus-container"">
                    <img src=""images/semantic_sequence/maintaining_a_car_semantic/maintaining_a_car_semantic_ten.png"" class=""exp-image"">
                    <div class=""question-area"">
                        <p style=""font-size: 20px; font-weight: bold; margin: 0;"">Is there a person in this image?</p>
                    </div>
                </div>","0","main_experiment_trial","ten","maintaining_a_car_semantic","semantic_sequence","chronological","","","","","","",""
"","","","","","html-keyboard-response","121","411730","0.0-121.0","E0D18BBBCD6B4625A1281C4347DED50B","019dac5c-0ae1-7095-918f-44a93d5abca7","019dac5b-243f-7307-af64-a10f53f1ef70","","null","<div style=""background-color: white; width: 100vw; height: 100vh;""></div>","null","","","","","","","","","","","",""
"","","","","","html-keyboard-response","122","416746","0.0-122.0","E0D18BBBCD6B4625A1281C4347DED50B","019dac5c-0ae1-7095-918f-44a93d5abca7","019dac5b-243f-7307-af64-a10f53f1ef70","","null","
                <div class=""stimulus-container"">
                    <img src=""images/semantic_sequence/visiting_cities_semantic/visiting_cities_semantic_1.png"" class=""exp-image"">
                    <div class=""question-area""></div> 
                </div>","null","","","","","","","","","","","",""
"","","","","","html-button-response","123","417815","0.0-123.0","E0D18BBBCD6B4625A1281C4347DED50B","019dac5c-0ae1-7095-918f-44a93d5abca7","019dac5b-243f-7307-af64-a10f53f1ef70","","1067","
                <div class=""stimulus-container"">
                    <img src=""images/semantic_sequence/visiting_cities_semantic/visiting_cities_semantic_1.png"" class=""exp-image"">
                    <div class=""question-area"">
                        <p style=""font-size: 20px; font-weight: bold; margin: 0;"">Is there a person in this image?</p>
                    </div>
                </div>","1","main_experiment_trial","1","visiting_cities_semantic","semantic_sequence","chronological","","","","","","",""
"","","","","","html-keyboard-response","124","422817","0.0-124.0","E0D18BBBCD6B4625A1281C4347DED50B","019dac5c-0ae1-7095-918f-44a93d5abca7","019dac5b-243f-7307-af64-a10f53f1ef70","","null","
                <div class=""stimulus-container"">
                    <img src=""images/semantic_sequence/visiting_cities_semantic/visiting_cities_semantic_2.png"" class=""exp-image"">
                    <div class=""question-area""></div> 
                </div>","null","","","","","","","","","","","",""
"","","","","","html-button-response","125","423496","0.0-125.0","E0D18BBBCD6B4625A1281C4347DED50B","019dac5c-0ae1-7095-918f-44a93d5abca7","019dac5b-243f-7307-af64-a10f53f1ef70","","677","
                <div class=""stimulus-container"">
                    <img src=""images/semantic_sequence/visiting_cities_semantic/visiting_cities_semantic_2.png"" class=""exp-image"">
                    <div class=""question-area"">
                        <p style=""font-size: 20px; font-weight: bold; margin: 0;"">Is there a person in this image?</p>
                    </div>
                </div>","1","main_experiment_trial","2","visiting_cities_semantic","semantic_sequence","chronological","","","","","","",""
"","","","","","html-keyboard-response","126","428512","0.0-126.0","E0D18BBBCD6B4625A1281C4347DED50B","019dac5c-0ae1-7095-918f-44a93d5abca7","019dac5b-243f-7307-af64-a10f53f1ef70","","null","
                <div class=""stimulus-container"">
                    <img src=""images/semantic_sequence/visiting_cities_semantic/visiting_cities_semantic_3.png"" class=""exp-image"">
                    <div class=""question-area""></div> 
                </div>","null","","","","","","","","","","","",""
"","","","","","html-button-response","127","429032","0.0-127.0","E0D18BBBCD6B4625A1281C4347DED50B","019dac5c-0ae1-7095-918f-44a93d5abca7","019dac5b-243f-7307-af64-a10f53f1ef70","","519","
                <div class=""stimulus-container"">
                    <img src=""images/semantic_sequence/visiting_cities_semantic/visiting_cities_semantic_3.png"" class=""exp-image"">
                    <div class=""question-area"">
                        <p style=""font-size: 20px; font-weight: bold; margin: 0;"">Is there a person in this image?</p>
                    </div>
                </div>","1","main_experiment_trial","3","visiting_cities_semantic","semantic_sequence","chronological","","","","","","",""
"","","","","","html-keyboard-response","128","434045","0.0-128.0","E0D18BBBCD6B4625A1281C4347DED50B","019dac5c-0ae1-7095-918f-44a93d5abca7","019dac5b-243f-7307-af64-a10f53f1ef70","","null","
                <div class=""stimulus-container"">
                    <img src=""images/semantic_sequence/visiting_cities_semantic/visiting_cities_semantic_4.png"" class=""exp-image"">
                    <div class=""question-area""></div> 
                </div>","null","","","","","","","","","","","",""
"","","","","","html-button-response","129","434886","0.0-129.0","E0D18BBBCD6B4625A1281C4347DED50B","019dac5c-0ae1-7095-918f-44a93d5abca7","019dac5b-243f-7307-af64-a10f53f1ef70","","841","
                <div class=""stimulus-container"">
                    <img src=""images/semantic_sequence/visiting_cities_semantic/visiting_cities_semantic_4.png"" class=""exp-image"">
                    <div class=""question-area"">
                        <p style=""font-size: 20px; font-weight: bold; margin: 0;"">Is there a person in this image?</p>
                    </div>
                </div>","1","main_experiment_trial","4","visiting_cities_semantic","semantic_sequence","chronological","","","","","","",""
"","","","","","html-keyboard-response","130","439894","0.0-130.0","E0D18BBBCD6B4625A1281C4347DED50B","019dac5c-0ae1-7095-918f-44a93d5abca7","019dac5b-243f-7307-af64-a10f53f1ef70","","null","
                <div class=""stimulus-container"">
                    <img src=""images/semantic_sequence/visiting_cities_semantic/visiting_cities_semantic_5.png"" class=""exp-image"">
                    <div class=""question-area""></div> 
                </div>","null","","","","","","","","","","","",""
"","","","","","html-button-response","131","440742","0.0-131.0","E0D18BBBCD6B4625A1281C4347DED50B","019dac5c-0ae1-7095-918f-44a93d5abca7","019dac5b-243f-7307-af64-a10f53f1ef70","","847","
                <div class=""stimulus-container"">
                    <img src=""images/semantic_sequence/visiting_cities_semantic/visiting_cities_semantic_5.png"" class=""exp-image"">
                    <div class=""question-area"">
                        <p style=""font-size: 20px; font-weight: bold; margin: 0;"">Is there a person in this image?</p>
                    </div>
                </div>","1","main_experiment_trial","5","visiting_cities_semantic","semantic_sequence","chronological","","","","","","",""
"","","","","","html-keyboard-response","132","445753","0.0-132.0","E0D18BBBCD6B4625A1281C4347DED50B","019dac5c-0ae1-7095-918f-44a93d5abca7","019dac5b-243f-7307-af64-a10f53f1ef70","","null","
                <div class=""stimulus-container"">
                    <img src=""images/semantic_sequence/visiting_cities_semantic/visiting_cities_semantic_6.png"" class=""exp-image"">
                    <div class=""question-area""></div> 
                </div>","null","","","","","","","","","","","",""
"","","","","","html-button-response","133","446462","0.0-133.0","E0D18BBBCD6B4625A1281C4347DED50B","019dac5c-0ae1-7095-918f-44a93d5abca7","019dac5b-243f-7307-af64-a10f53f1ef70","","709","
                <div class=""stimulus-container"">
                    <img src=""images/semantic_sequence/visiting_cities_semantic/visiting_cities_semantic_6.png"" class=""exp-image"">
                    <div class=""question-area"">
                        <p style=""font-size: 20px; font-weight: bold; margin: 0;"">Is there a person in this image?</p>
                    </div>
                </div>","1","main_experiment_trial","6","visiting_cities_semantic","semantic_sequence","chronological","","","","","","",""
"","","","","","html-keyboard-response","134","451464","0.0-134.0","E0D18BBBCD6B4625A1281C4347DED50B","019dac5c-0ae1-7095-918f-44a93d5abca7","019dac5b-243f-7307-af64-a10f53f1ef70","","null","
                <div class=""stimulus-container"">
                    <img src=""images/semantic_sequence/visiting_cities_semantic/visiting_cities_semantic_7.png"" class=""exp-image"">
                    <div class=""question-area""></div> 
                </div>","null","","","","","","","","","","","",""
"","","","","","html-button-response","135","452359","0.0-135.0","E0D18BBBCD6B4625A1281C4347DED50B","019dac5c-0ae1-7095-918f-44a93d5abca7","019dac5b-243f-7307-af64-a10f53f1ef70","","894","
                <div class=""stimulus-container"">
                    <img src=""images/semantic_sequence/visiting_cities_semantic/visiting_cities_semantic_7.png"" class=""exp-image"">
                    <div class=""question-area"">
                        <p style=""font-size: 20px; font-weight: bold; margin: 0;"">Is there a person in this image?</p>
                    </div>
                </div>","0","main_experiment_trial","7","visiting_cities_semantic","semantic_sequence","chronological","","","","","","",""
"","","","","","html-keyboard-response","136","457362","0.0-136.0","E0D18BBBCD6B4625A1281C4347DED50B","019dac5c-0ae1-7095-918f-44a93d5abca7","019dac5b-243f-7307-af64-a10f53f1ef70","","null","
                <div class=""stimulus-container"">
                    <img src=""images/semantic_sequence/visiting_cities_semantic/visiting_cities_semantic_8.png"" class=""exp-image"">
                    <div class=""question-area""></div> 
                </div>","null","","","","","","","","","","","",""
"","","","","","html-button-response","137","458598","0.0-137.0","E0D18BBBCD6B4625A1281C4347DED50B","019dac5c-0ae1-7095-918f-44a93d5abca7","019dac5b-243f-7307-af64-a10f53f1ef70","","1235","
                <div class=""stimulus-container"">
                    <img src=""images/semantic_sequence/visiting_cities_semantic/visiting_cities_semantic_8.png"" class=""exp-image"">
                    <div class=""question-area"">
                        <p style=""font-size: 20px; font-weight: bold; margin: 0;"">Is there a person in this image?</p>
                    </div>
                </div>","1","main_experiment_trial","8","visiting_cities_semantic","semantic_sequence","chronological","","","","","","",""
"","","","","","html-keyboard-response","138","463609","0.0-138.0","E0D18BBBCD6B4625A1281C4347DED50B","019dac5c-0ae1-7095-918f-44a93d5abca7","019dac5b-243f-7307-af64-a10f53f1ef70","","null","
                <div class=""stimulus-container"">
                    <img src=""images/semantic_sequence/visiting_cities_semantic/visiting_cities_semantic_9.png"" class=""exp-image"">
                    <div class=""question-area""></div> 
                </div>","null","","","","","","","","","","","",""
"","","","","","html-button-response","139","464742","0.0-139.0","E0D18BBBCD6B4625A1281C4347DED50B","019dac5c-0ae1-7095-918f-44a93d5abca7","019dac5b-243f-7307-af64-a10f53f1ef70","","1131","
                <div class=""stimulus-container"">
                    <img src=""images/semantic_sequence/visiting_cities_semantic/visiting_cities_semantic_9.png"" class=""exp-image"">
                    <div class=""question-area"">
                        <p style=""font-size: 20px; font-weight: bold; margin: 0;"">Is there a person in this image?</p>
                    </div>
                </div>","1","main_experiment_trial","9","visiting_cities_semantic","semantic_sequence","chronological","","","","","","",""
"","","","","","html-keyboard-response","140","469750","0.0-140.0","E0D18BBBCD6B4625A1281C4347DED50B","019dac5c-0ae1-7095-918f-44a93d5abca7","019dac5b-243f-7307-af64-a10f53f1ef70","","null","
                <div class=""stimulus-container"">
                    <img src=""images/semantic_sequence/visiting_cities_semantic/visiting_cities_semantic_ten.png"" class=""exp-image"">
                    <div class=""question-area""></div> 
                </div>","null","","","","","","","","","","","",""
"","","","","","html-button-response","141","470897","0.0-141.0","E0D18BBBCD6B4625A1281C4347DED50B","019dac5c-0ae1-7095-918f-44a93d5abca7","019dac5b-243f-7307-af64-a10f53f1ef70","","1146","
                <div class=""stimulus-container"">
                    <img src=""images/semantic_sequence/visiting_cities_semantic/visiting_cities_semantic_ten.png"" class=""exp-image"">
                    <div class=""question-area"">
                        <p style=""font-size: 20px; font-weight: bold; margin: 0;"">Is there a person in this image?</p>
                    </div>
                </div>","1","main_experiment_trial","ten","visiting_cities_semantic","semantic_sequence","chronological","","","","","","",""
"","","","","","html-keyboard-response","142","475900","0.0-142.0","E0D18BBBCD6B4625A1281C4347DED50B","019dac5c-0ae1-7095-918f-44a93d5abca7","019dac5b-243f-7307-af64-a10f53f1ef70","","null","<div style=""background-color: white; width: 100vw; height: 100vh;""></div>","null","","","","","","","","","","","",""
"","","","","","html-keyboard-response","143","480902","0.0-143.0","E0D18BBBCD6B4625A1281C4347DED50B","019dac5c-0ae1-7095-918f-44a93d5abca7","019dac5b-243f-7307-af64-a10f53f1ef70","","null","
                <div class=""stimulus-container"">
                    <img src=""images/semantic_sequence/kitchen_operations_semantic/kitchen_operations_semantic_1.png"" class=""exp-image"">
                    <div class=""question-area""></div> 
                </div>","null","","","","","","","","","","","",""
"","","","","","html-button-response","144","483543","0.0-144.0","E0D18BBBCD6B4625A1281C4347DED50B","019dac5c-0ae1-7095-918f-44a93d5abca7","019dac5b-243f-7307-af64-a10f53f1ef70","","2641","
                <div class=""stimulus-container"">
                    <img src=""images/semantic_sequence/kitchen_operations_semantic/kitchen_operations_semantic_1.png"" class=""exp-image"">
                    <div class=""question-area"">
                        <p style=""font-size: 20px; font-weight: bold; margin: 0;"">Is there a person in this image?</p>
                    </div>
                </div>","0","main_experiment_trial","1","kitchen_operations_semantic","semantic_sequence","chronological","","","","","","",""
"","","","","","html-keyboard-response","145","488553","0.0-145.0","E0D18BBBCD6B4625A1281C4347DED50B","019dac5c-0ae1-7095-918f-44a93d5abca7","019dac5b-243f-7307-af64-a10f53f1ef70","","null","
                <div class=""stimulus-container"">
                    <img src=""images/semantic_sequence/kitchen_operations_semantic/kitchen_operations_semantic_2.png"" class=""exp-image"">
                    <div class=""question-area""></div> 
                </div>","null","","","","","","","","","","","",""
"","","","","","html-button-response","146","490264","0.0-146.0","E0D18BBBCD6B4625A1281C4347DED50B","019dac5c-0ae1-7095-918f-44a93d5abca7","019dac5b-243f-7307-af64-a10f53f1ef70","","1710","
                <div class=""stimulus-container"">
                    <img src=""images/semantic_sequence/kitchen_operations_semantic/kitchen_operations_semantic_2.png"" class=""exp-image"">
                    <div class=""question-area"">
                        <p style=""font-size: 20px; font-weight: bold; margin: 0;"">Is there a person in this image?</p>
                    </div>
                </div>","0","main_experiment_trial","2","kitchen_operations_semantic","semantic_sequence","chronological","","","","","","",""
"","","","","","html-keyboard-response","147","495271","0.0-147.0","E0D18BBBCD6B4625A1281C4347DED50B","019dac5c-0ae1-7095-918f-44a93d5abca7","019dac5b-243f-7307-af64-a10f53f1ef70","","null","
                <div class=""stimulus-container"">
                    <img src=""images/semantic_sequence/kitchen_operations_semantic/kitchen_operations_semantic_3.png"" class=""exp-image"">
                    <div class=""question-area""></div> 
                </div>","null","","","","","","","","","","","",""
"","","","","","html-button-response","148","496443","0.0-148.0","E0D18BBBCD6B4625A1281C4347DED50B","019dac5c-0ae1-7095-918f-44a93d5abca7","019dac5b-243f-7307-af64-a10f53f1ef70","","1171","
                <div class=""stimulus-container"">
                    <img src=""images/semantic_sequence/kitchen_operations_semantic/kitchen_operations_semantic_3.png"" class=""exp-image"">
                    <div class=""question-area"">
                        <p style=""font-size: 20px; font-weight: bold; margin: 0;"">Is there a person in this image?</p>
                    </div>
                </div>","0","main_experiment_trial","3","kitchen_operations_semantic","semantic_sequence","chronological","","","","","","",""
"","","","","","html-keyboard-response","149","501451","0.0-149.0","E0D18BBBCD6B4625A1281C4347DED50B","019dac5c-0ae1-7095-918f-44a93d5abca7","019dac5b-243f-7307-af64-a10f53f1ef70","","null","
                <div class=""stimulus-container"">
                    <img src=""images/semantic_sequence/kitchen_operations_semantic/kitchen_operations_semantic_4.png"" class=""exp-image"">
                    <div class=""question-area""></div> 
                </div>","null","","","","","","","","","","","",""
"","","","","","html-button-response","150","502632","0.0-150.0","E0D18BBBCD6B4625A1281C4347DED50B","019dac5c-0ae1-7095-918f-44a93d5abca7","019dac5b-243f-7307-af64-a10f53f1ef70","","1181","
                <div class=""stimulus-container"">
                    <img src=""images/semantic_sequence/kitchen_operations_semantic/kitchen_operations_semantic_4.png"" class=""exp-image"">
                    <div class=""question-area"">
                        <p style=""font-size: 20px; font-weight: bold; margin: 0;"">Is there a person in this image?</p>
                    </div>
                </div>","0","main_experiment_trial","4","kitchen_operations_semantic","semantic_sequence","chronological","","","","","","",""
"","","","","","html-keyboard-response","151","507634","0.0-151.0","E0D18BBBCD6B4625A1281C4347DED50B","019dac5c-0ae1-7095-918f-44a93d5abca7","019dac5b-243f-7307-af64-a10f53f1ef70","","null","
                <div class=""stimulus-container"">
                    <img src=""images/semantic_sequence/kitchen_operations_semantic/kitchen_operations_semantic_5.png"" class=""exp-image"">
                    <div class=""question-area""></div> 
                </div>","null","","","","","","","","","","","",""
"","","","","","html-button-response","152","508247","0.0-152.0","E0D18BBBCD6B4625A1281C4347DED50B","019dac5c-0ae1-7095-918f-44a93d5abca7","019dac5b-243f-7307-af64-a10f53f1ef70","","612","
                <div class=""stimulus-container"">
                    <img src=""images/semantic_sequence/kitchen_operations_semantic/kitchen_operations_semantic_5.png"" class=""exp-image"">
                    <div class=""question-area"">
                        <p style=""font-size: 20px; font-weight: bold; margin: 0;"">Is there a person in this image?</p>
                    </div>
                </div>","0","main_experiment_trial","5","kitchen_operations_semantic","semantic_sequence","chronological","","","","","","",""
"","","","","","html-keyboard-response","153","513255","0.0-153.0","E0D18BBBCD6B4625A1281C4347DED50B","019dac5c-0ae1-7095-918f-44a93d5abca7","019dac5b-243f-7307-af64-a10f53f1ef70","","null","
                <div class=""stimulus-container"">
                    <img src=""images/semantic_sequence/kitchen_operations_semantic/kitchen_operations_semantic_6.png"" class=""exp-image"">
                    <div class=""question-area""></div> 
                </div>","null","","","","","","","","","","","",""
"","","","","","html-button-response","154","514057","0.0-154.0","E0D18BBBCD6B4625A1281C4347DED50B","019dac5c-0ae1-7095-918f-44a93d5abca7","019dac5b-243f-7307-af64-a10f53f1ef70","","801","
                <div class=""stimulus-container"">
                    <img src=""images/semantic_sequence/kitchen_operations_semantic/kitchen_operations_semantic_6.png"" class=""exp-image"">
                    <div class=""question-area"">
                        <p style=""font-size: 20px; font-weight: bold; margin: 0;"">Is there a person in this image?</p>
                    </div>
                </div>","0","main_experiment_trial","6","kitchen_operations_semantic","semantic_sequence","chronological","","","","","","",""
"","","","","","html-keyboard-response","155","519069","0.0-155.0","E0D18BBBCD6B4625A1281C4347DED50B","019dac5c-0ae1-7095-918f-44a93d5abca7","019dac5b-243f-7307-af64-a10f53f1ef70","","null","
                <div class=""stimulus-container"">
                    <img src=""images/semantic_sequence/kitchen_operations_semantic/kitchen_operations_semantic_7.png"" class=""exp-image"">
                    <div class=""question-area""></div> 
                </div>","null","","","","","","","","","","","",""
"","","","","","html-button-response","156","519575","0.0-156.0","E0D18BBBCD6B4625A1281C4347DED50B","019dac5c-0ae1-7095-918f-44a93d5abca7","019dac5b-243f-7307-af64-a10f53f1ef70","","505","
                <div class=""stimulus-container"">
                    <img src=""images/semantic_sequence/kitchen_operations_semantic/kitchen_operations_semantic_7.png"" class=""exp-image"">
                    <div class=""question-area"">
                        <p style=""font-size: 20px; font-weight: bold; margin: 0;"">Is there a person in this image?</p>
                    </div>
                </div>","0","main_experiment_trial","7","kitchen_operations_semantic","semantic_sequence","chronological","","","","","","",""
"","","","","","html-keyboard-response","157","524580","0.0-157.0","E0D18BBBCD6B4625A1281C4347DED50B","019dac5c-0ae1-7095-918f-44a93d5abca7","019dac5b-243f-7307-af64-a10f53f1ef70","","null","
                <div class=""stimulus-container"">
                    <img src=""images/semantic_sequence/kitchen_operations_semantic/kitchen_operations_semantic_8.png"" class=""exp-image"">
                    <div class=""question-area""></div> 
                </div>","null","","","","","","","","","","","",""
"","","","","","html-button-response","158","525185","0.0-158.0","E0D18BBBCD6B4625A1281C4347DED50B","019dac5c-0ae1-7095-918f-44a93d5abca7","019dac5b-243f-7307-af64-a10f53f1ef70","","603","
                <div class=""stimulus-container"">
                    <img src=""images/semantic_sequence/kitchen_operations_semantic/kitchen_operations_semantic_8.png"" class=""exp-image"">
                    <div class=""question-area"">
                        <p style=""font-size: 20px; font-weight: bold; margin: 0;"">Is there a person in this image?</p>
                    </div>
                </div>","0","main_experiment_trial","8","kitchen_operations_semantic","semantic_sequence","chronological","","","","","","",""
"","","","","","html-keyboard-response","159","530198","0.0-159.0","E0D18BBBCD6B4625A1281C4347DED50B","019dac5c-0ae1-7095-918f-44a93d5abca7","019dac5b-243f-7307-af64-a10f53f1ef70","","null","
                <div class=""stimulus-container"">
                    <img src=""images/semantic_sequence/kitchen_operations_semantic/kitchen_operations_semantic_9.png"" class=""exp-image"">
                    <div class=""question-area""></div> 
                </div>","null","","","","","","","","","","","",""
"","","","","","html-button-response","160","530712","0.0-160.0","E0D18BBBCD6B4625A1281C4347DED50B","019dac5c-0ae1-7095-918f-44a93d5abca7","019dac5b-243f-7307-af64-a10f53f1ef70","","513","
                <div class=""stimulus-container"">
                    <img src=""images/semantic_sequence/kitchen_operations_semantic/kitchen_operations_semantic_9.png"" class=""exp-image"">
                    <div class=""question-area"">
                        <p style=""font-size: 20px; font-weight: bold; margin: 0;"">Is there a person in this image?</p>
                    </div>
                </div>","0","main_experiment_trial","9","kitchen_operations_semantic","semantic_sequence","chronological","","","","","","",""
"","","","","","html-keyboard-response","161","535723","0.0-161.0","E0D18BBBCD6B4625A1281C4347DED50B","019dac5c-0ae1-7095-918f-44a93d5abca7","019dac5b-243f-7307-af64-a10f53f1ef70","","null","
                <div class=""stimulus-container"">
                    <img src=""images/semantic_sequence/kitchen_operations_semantic/kitchen_operations_semantic_ten.png"" class=""exp-image"">
                    <div class=""question-area""></div> 
                </div>","null","","","","","","","","","","","",""
"","","","","","html-button-response","162","536311","0.0-162.0","E0D18BBBCD6B4625A1281C4347DED50B","019dac5c-0ae1-7095-918f-44a93d5abca7","019dac5b-243f-7307-af64-a10f53f1ef70","","588","
                <div class=""stimulus-container"">
                    <img src=""images/semantic_sequence/kitchen_operations_semantic/kitchen_operations_semantic_ten.png"" class=""exp-image"">
                    <div class=""question-area"">
                        <p style=""font-size: 20px; font-weight: bold; margin: 0;"">Is there a person in this image?</p>
                    </div>
                </div>","0","main_experiment_trial","ten","kitchen_operations_semantic","semantic_sequence","chronological","","","","","","",""
"","","","","","html-keyboard-response","163","541327","0.0-163.0","E0D18BBBCD6B4625A1281C4347DED50B","019dac5c-0ae1-7095-918f-44a93d5abca7","019dac5b-243f-7307-af64-a10f53f1ef70","","null","<div style=""background-color: white; width: 100vw; height: 100vh;""></div>","null","","","","","","","","","","","",""
"","","","","","html-keyboard-response","164","546332","0.0-164.0","E0D18BBBCD6B4625A1281C4347DED50B","019dac5c-0ae1-7095-918f-44a93d5abca7","019dac5b-243f-7307-af64-a10f53f1ef70","","null","
                <div class=""stimulus-container"">
                    <img src=""images/causal_sequence/museum_causal/museum_causal_1.png"" class=""exp-image"">
                    <div class=""question-area""></div> 
                </div>","null","","","","","","","","","","","",""
"","","","","","html-button-response","165","547360","0.0-165.0","E0D18BBBCD6B4625A1281C4347DED50B","019dac5c-0ae1-7095-918f-44a93d5abca7","019dac5b-243f-7307-af64-a10f53f1ef70","","1027","
                <div class=""stimulus-container"">
                    <img src=""images/causal_sequence/museum_causal/museum_causal_1.png"" class=""exp-image"">
                    <div class=""question-area"">
                        <p style=""font-size: 20px; font-weight: bold; margin: 0;"">Is there a person in this image?</p>
                    </div>
                </div>","0","main_experiment_trial","1","museum_causal","causal_sequence","chronological","","","","","","",""
"","","","","","html-keyboard-response","166","552374","0.0-166.0","E0D18BBBCD6B4625A1281C4347DED50B","019dac5c-0ae1-7095-918f-44a93d5abca7","019dac5b-243f-7307-af64-a10f53f1ef70","","null","
                <div class=""stimulus-container"">
                    <img src=""images/causal_sequence/museum_causal/museum_causal_2.png"" class=""exp-image"">
                    <div class=""question-area""></div> 
                </div>","null","","","","","","","","","","","",""
"","","","","","html-button-response","167","553057","0.0-167.0","E0D18BBBCD6B4625A1281C4347DED50B","019dac5c-0ae1-7095-918f-44a93d5abca7","019dac5b-243f-7307-af64-a10f53f1ef70","","682","
                <div class=""stimulus-container"">
                    <img src=""images/causal_sequence/museum_causal/museum_causal_2.png"" class=""exp-image"">
                    <div class=""question-area"">
                        <p style=""font-size: 20px; font-weight: bold; margin: 0;"">Is there a person in this image?</p>
                    </div>
                </div>","0","main_experiment_trial","2","museum_causal","causal_sequence","chronological","","","","","","",""
"","","","","","html-keyboard-response","168","558066","0.0-168.0","E0D18BBBCD6B4625A1281C4347DED50B","019dac5c-0ae1-7095-918f-44a93d5abca7","019dac5b-243f-7307-af64-a10f53f1ef70","","null","
                <div class=""stimulus-container"">
                    <img src=""images/causal_sequence/museum_causal/museum_causal_3.png"" class=""exp-image"">
                    <div class=""question-area""></div> 
                </div>","null","","","","","","","","","","","",""
"","","","","","html-button-response","169","561073","0.0-169.0","E0D18BBBCD6B4625A1281C4347DED50B","019dac5c-0ae1-7095-918f-44a93d5abca7","019dac5b-243f-7307-af64-a10f53f1ef70","","null","
                <div class=""stimulus-container"">
                    <img src=""images/causal_sequence/museum_causal/museum_causal_3.png"" class=""exp-image"">
                    <div class=""question-area"">
                        <p style=""font-size: 20px; font-weight: bold; margin: 0;"">Is there a person in this image?</p>
                    </div>
                </div>","null","main_experiment_trial","3","museum_causal","causal_sequence","chronological","","","","","","",""
"","","","","","html-keyboard-response","170","566085","0.0-170.0","E0D18BBBCD6B4625A1281C4347DED50B","019dac5c-0ae1-7095-918f-44a93d5abca7","019dac5b-243f-7307-af64-a10f53f1ef70","","null","
                <div class=""stimulus-container"">
                    <img src=""images/causal_sequence/museum_causal/museum_causal_4.png"" class=""exp-image"">
                    <div class=""question-area""></div> 
                </div>","null","","","","","","","","","","","",""
"","","","","","html-button-response","171","567192","0.0-171.0","E0D18BBBCD6B4625A1281C4347DED50B","019dac5c-0ae1-7095-918f-44a93d5abca7","019dac5b-243f-7307-af64-a10f53f1ef70","","1106","
                <div class=""stimulus-container"">
                    <img src=""images/causal_sequence/museum_causal/museum_causal_4.png"" class=""exp-image"">
                    <div class=""question-area"">
                        <p style=""font-size: 20px; font-weight: bold; margin: 0;"">Is there a person in this image?</p>
                    </div>
                </div>","1","main_experiment_trial","4","museum_causal","causal_sequence","chronological","","","","","","",""
"","","","","","html-keyboard-response","172","572193","0.0-172.0","E0D18BBBCD6B4625A1281C4347DED50B","019dac5c-0ae1-7095-918f-44a93d5abca7","019dac5b-243f-7307-af64-a10f53f1ef70","","null","
                <div class=""stimulus-container"">
                    <img src=""images/causal_sequence/museum_causal/museum_causal_5.png"" class=""exp-image"">
                    <div class=""question-area""></div> 
                </div>","null","","","","","","","","","","","",""
"","","","","","html-button-response","173","574752","0.0-173.0","E0D18BBBCD6B4625A1281C4347DED50B","019dac5c-0ae1-7095-918f-44a93d5abca7","019dac5b-243f-7307-af64-a10f53f1ef70","","2558","
                <div class=""stimulus-container"">
                    <img src=""images/causal_sequence/museum_causal/museum_causal_5.png"" class=""exp-image"">
                    <div class=""question-area"">
                        <p style=""font-size: 20px; font-weight: bold; margin: 0;"">Is there a person in this image?</p>
                    </div>
                </div>","0","main_experiment_trial","5","museum_causal","causal_sequence","chronological","","","","","","",""
"","","","","","html-keyboard-response","174","579766","0.0-174.0","E0D18BBBCD6B4625A1281C4347DED50B","019dac5c-0ae1-7095-918f-44a93d5abca7","019dac5b-243f-7307-af64-a10f53f1ef70","","null","
                <div class=""stimulus-container"">
                    <img src=""images/causal_sequence/museum_causal/museum_causal_6.png"" class=""exp-image"">
                    <div class=""question-area""></div> 
                </div>","null","","","","","","","","","","","",""
"","","","","","html-button-response","175","581586","0.0-175.0","E0D18BBBCD6B4625A1281C4347DED50B","019dac5c-0ae1-7095-918f-44a93d5abca7","019dac5b-243f-7307-af64-a10f53f1ef70","","1819","
                <div class=""stimulus-container"">
