"success","timeout","failed_images","failed_audio","failed_video","trial_type","trial_index","time_elapsed","internal_node_id","subject_id","study_id","session_id","view_history","rt","stimulus","response","task","image_index","folder","valuable_image_index","valuable_X","chosen_image_index","distance_from_X"
"false","false","[]","[]","[]","preload","0","5460","0.0-0.0","57C912FC551B4394ABCF0CDA2F381112","019ce7aa-1228-76c3-a3e8-3939bd4512f9","019ce7a0-0965-7aa7-a556-174d32a8e773","","","","","","","","","","",""
"","","","","","instructions","1","22333","0.0-1.0","57C912FC551B4394ABCF0CDA2F381112","019ce7aa-1228-76c3-a3e8-3939bd4512f9","019ce7a0-0965-7aa7-a556-174d32a8e773","[{""page_index"":0,""viewing_time"":16870}]","16871","","","","","","","","",""
"","","","","","instructions","2","26953","0.0-2.0","57C912FC551B4394ABCF0CDA2F381112","019ce7aa-1228-76c3-a3e8-3939bd4512f9","019ce7a0-0965-7aa7-a556-174d32a8e773","[{""page_index"":0,""viewing_time"":4618}]","4619","","","","","","","","",""
"true","","","","","fullscreen","3","29656","0.0-3.0","57C912FC551B4394ABCF0CDA2F381112","019ce7aa-1228-76c3-a3e8-3939bd4512f9","019ce7a0-0965-7aa7-a556-174d32a8e773","","1689","","","","","","","","",""
"","","","","","instructions","4","41055","0.0-4.0","57C912FC551B4394ABCF0CDA2F381112","019ce7aa-1228-76c3-a3e8-3939bd4512f9","019ce7a0-0965-7aa7-a556-174d32a8e773","[{""page_index"":0,""viewing_time"":11398}]","11399","","","","","","","","",""
"","","","","","instructions","5","46541","0.0-5.0","57C912FC551B4394ABCF0CDA2F381112","019ce7aa-1228-76c3-a3e8-3939bd4512f9","019ce7a0-0965-7aa7-a556-174d32a8e773","[{""page_index"":0,""viewing_time"":5485}]","5485","","","","","","","","",""
"","","","","","html-keyboard-response","6","50560","0.0-6.0","57C912FC551B4394ABCF0CDA2F381112","019ce7aa-1228-76c3-a3e8-3939bd4512f9","019ce7a0-0965-7aa7-a556-174d32a8e773","","null","
                <div class=""stimulus-container"">
                    <img src=""images/instructions/movie_1.png"" class=""exp-image"">
                    <div class=""question-area""></div> 
                </div>","null","","","","","","",""
"","","","","","html-button-response","7","52967","0.0-7.0","57C912FC551B4394ABCF0CDA2F381112","019ce7aa-1228-76c3-a3e8-3939bd4512f9","019ce7a0-0965-7aa7-a556-174d32a8e773","","2405","
                <div class=""stimulus-container"">
                    <img src=""images/instructions/movie_1.png"" class=""exp-image"">
                    <div class=""question-area"">
                        <p style=""font-size: 20px; font-weight: bold; margin: 0;"">Was there a person in this image?</p>
                    </div>
                </div>","0","example_question","1","","","","",""
"","","","","","html-keyboard-response","8","56975","0.0-8.0","57C912FC551B4394ABCF0CDA2F381112","019ce7aa-1228-76c3-a3e8-3939bd4512f9","019ce7a0-0965-7aa7-a556-174d32a8e773","","null","
                <div class=""stimulus-container"">
                    <img src=""images/instructions/movie_2.png"" class=""exp-image"">
                    <div class=""question-area""></div> 
                </div>","null","","","","","","",""
"","","","","","html-button-response","9","57691","0.0-9.0","57C912FC551B4394ABCF0CDA2F381112","019ce7aa-1228-76c3-a3e8-3939bd4512f9","019ce7a0-0965-7aa7-a556-174d32a8e773","","715","
                <div class=""stimulus-container"">
                    <img src=""images/instructions/movie_2.png"" class=""exp-image"">
                    <div class=""question-area"">
                        <p style=""font-size: 20px; font-weight: bold; margin: 0;"">Was there a person in this image?</p>
                    </div>
                </div>","0","example_question","2","","","","",""
"","","","","","html-keyboard-response","10","61701","0.0-10.0","57C912FC551B4394ABCF0CDA2F381112","019ce7aa-1228-76c3-a3e8-3939bd4512f9","019ce7a0-0965-7aa7-a556-174d32a8e773","","null","
                <div class=""stimulus-container"">
                    <img src=""images/instructions/movie_3.png"" class=""exp-image"">
                    <div class=""question-area""></div> 
                </div>","null","","","","","","",""
"","","","","","html-button-response","11","63017","0.0-11.0","57C912FC551B4394ABCF0CDA2F381112","019ce7aa-1228-76c3-a3e8-3939bd4512f9","019ce7a0-0965-7aa7-a556-174d32a8e773","","1315","
                <div class=""stimulus-container"">
                    <img src=""images/instructions/movie_3.png"" class=""exp-image"">
                    <div class=""question-area"">
                        <p style=""font-size: 20px; font-weight: bold; margin: 0;"">Was there a person in this image?</p>
                    </div>
                </div>","0","example_question","3","","","","",""
"","","","","","html-keyboard-response","12","67027","0.0-12.0","57C912FC551B4394ABCF0CDA2F381112","019ce7aa-1228-76c3-a3e8-3939bd4512f9","019ce7a0-0965-7aa7-a556-174d32a8e773","","null","
                <div class=""stimulus-container"">
                    <img src=""images/instructions/movie_4.png"" class=""exp-image"">
                    <div class=""question-area""></div> 
                </div>","null","","","","","","",""
"","","","","","html-button-response","13","68079","0.0-13.0","57C912FC551B4394ABCF0CDA2F381112","019ce7aa-1228-76c3-a3e8-3939bd4512f9","019ce7a0-0965-7aa7-a556-174d32a8e773","","1051","
                <div class=""stimulus-container"">
                    <img src=""images/instructions/movie_4.png"" class=""exp-image"">
                    <div class=""question-area"">
                        <p style=""font-size: 20px; font-weight: bold; margin: 0;"">Was there a person in this image?</p>
                    </div>
                </div>","0","example_question","4","","","","",""
"","","","","","instructions","14","70690","0.0-14.0","57C912FC551B4394ABCF0CDA2F381112","019ce7aa-1228-76c3-a3e8-3939bd4512f9","019ce7a0-0965-7aa7-a556-174d32a8e773","[{""page_index"":0,""viewing_time"":2610}]","2610","","","","","","","","",""
"","","","","","html-keyboard-response","15","71706","0.0-15.0","57C912FC551B4394ABCF0CDA2F381112","019ce7aa-1228-76c3-a3e8-3939bd4512f9","019ce7a0-0965-7aa7-a556-174d32a8e773","","null","<div style=""background-color: gray; width: 100vw; height: 100vh;""></div>","null","","","","","","",""
"","","","","","html-keyboard-response","16","76715","0.0-16.0","57C912FC551B4394ABCF0CDA2F381112","019ce7aa-1228-76c3-a3e8-3939bd4512f9","019ce7a0-0965-7aa7-a556-174d32a8e773","","null","
                    <div class=""stimulus-container"">
                        <img src=""images/causal_sequence/coin_causal/coin_causal_1.png"" class=""exp-image"">
                        <div class=""question-area""></div> 
                    </div>","null","","","","","","",""
"","","","","","html-button-response","17","78788","0.0-17.0","57C912FC551B4394ABCF0CDA2F381112","019ce7aa-1228-76c3-a3e8-3939bd4512f9","019ce7a0-0965-7aa7-a556-174d32a8e773","","2071","
                    <div class=""stimulus-container"">
                        <img src=""images/causal_sequence/coin_causal/coin_causal_1.png"" class=""exp-image"">
                        <div class=""question-area"">
                            <p style=""font-size: 20px; font-weight: bold; margin: 0;"">Is there a person in this image?</p>
                        </div>
                    </div>","0","main_causal_task","1","coin_causal","","","",""
"","","","","","html-keyboard-response","18","83795","0.0-18.0","57C912FC551B4394ABCF0CDA2F381112","019ce7aa-1228-76c3-a3e8-3939bd4512f9","019ce7a0-0965-7aa7-a556-174d32a8e773","","null","
                    <div class=""stimulus-container"">
                        <img src=""images/causal_sequence/coin_causal/coin_causal_2.png"" class=""exp-image"">
                        <div class=""question-area""></div> 
                    </div>","null","","","","","","",""
"","","","","","html-button-response","19","85368","0.0-19.0","57C912FC551B4394ABCF0CDA2F381112","019ce7aa-1228-76c3-a3e8-3939bd4512f9","019ce7a0-0965-7aa7-a556-174d32a8e773","","1570","
                    <div class=""stimulus-container"">
                        <img src=""images/causal_sequence/coin_causal/coin_causal_2.png"" class=""exp-image"">
                        <div class=""question-area"">
                            <p style=""font-size: 20px; font-weight: bold; margin: 0;"">Is there a person in this image?</p>
                        </div>
                    </div>","0","main_causal_task","2","coin_causal","","","",""
"","","","","","html-keyboard-response","20","90371","0.0-20.0","57C912FC551B4394ABCF0CDA2F381112","019ce7aa-1228-76c3-a3e8-3939bd4512f9","019ce7a0-0965-7aa7-a556-174d32a8e773","","null","
                    <div class=""stimulus-container"">
                        <img src=""images/causal_sequence/coin_causal/coin_causal_3.png"" class=""exp-image"">
                        <div class=""question-area""></div> 
                    </div>","null","","","","","","",""
"","","","","","html-button-response","21","91675","0.0-21.0","57C912FC551B4394ABCF0CDA2F381112","019ce7aa-1228-76c3-a3e8-3939bd4512f9","019ce7a0-0965-7aa7-a556-174d32a8e773","","1302","
                    <div class=""stimulus-container"">
                        <img src=""images/causal_sequence/coin_causal/coin_causal_3.png"" class=""exp-image"">
                        <div class=""question-area"">
                            <p style=""font-size: 20px; font-weight: bold; margin: 0;"">Is there a person in this image?</p>
                        </div>
                    </div>","0","main_causal_task","3","coin_causal","","","",""
"","","","","","html-keyboard-response","22","96690","0.0-22.0","57C912FC551B4394ABCF0CDA2F381112","019ce7aa-1228-76c3-a3e8-3939bd4512f9","019ce7a0-0965-7aa7-a556-174d32a8e773","","null","
                    <div class=""stimulus-container"">
                        <img src=""images/causal_sequence/coin_causal/coin_causal_4.png"" class=""exp-image"">
                        <div class=""question-area""></div> 
                    </div>","null","","","","","","",""
"","","","","","html-button-response","23","98139","0.0-23.0","57C912FC551B4394ABCF0CDA2F381112","019ce7aa-1228-76c3-a3e8-3939bd4512f9","019ce7a0-0965-7aa7-a556-174d32a8e773","","1447","
                    <div class=""stimulus-container"">
                        <img src=""images/causal_sequence/coin_causal/coin_causal_4.png"" class=""exp-image"">
                        <div class=""question-area"">
                            <p style=""font-size: 20px; font-weight: bold; margin: 0;"">Is there a person in this image?</p>
                        </div>
                    </div>","0","main_causal_task","4","coin_causal","","","",""
"","","","","","html-keyboard-response","24","103147","0.0-24.0","57C912FC551B4394ABCF0CDA2F381112","019ce7aa-1228-76c3-a3e8-3939bd4512f9","019ce7a0-0965-7aa7-a556-174d32a8e773","","null","
                    <div class=""stimulus-container"">
                        <img src=""images/causal_sequence/coin_causal/coin_causal_5.png"" class=""exp-image"">
                        <div class=""question-area""></div> 
                    </div>","null","","","","","","",""
"","","","","","html-button-response","25","104077","0.0-25.0","57C912FC551B4394ABCF0CDA2F381112","019ce7aa-1228-76c3-a3e8-3939bd4512f9","019ce7a0-0965-7aa7-a556-174d32a8e773","","928","
                    <div class=""stimulus-container"">
                        <img src=""images/causal_sequence/coin_causal/coin_causal_5.png"" class=""exp-image"">
                        <div class=""question-area"">
                            <p style=""font-size: 20px; font-weight: bold; margin: 0;"">Is there a person in this image?</p>
                        </div>
                    </div>","0","main_causal_task","5","coin_causal","","","",""
"","","","","","html-keyboard-response","26","109086","0.0-26.0","57C912FC551B4394ABCF0CDA2F381112","019ce7aa-1228-76c3-a3e8-3939bd4512f9","019ce7a0-0965-7aa7-a556-174d32a8e773","","null","
                    <div class=""stimulus-container"">
                        <img src=""images/causal_sequence/coin_causal/coin_causal_6.png"" class=""exp-image"">
                        <div class=""question-area""></div> 
                    </div>","null","","","","","","",""
"","","","","","html-button-response","27","111412","0.0-27.0","57C912FC551B4394ABCF0CDA2F381112","019ce7aa-1228-76c3-a3e8-3939bd4512f9","019ce7a0-0965-7aa7-a556-174d32a8e773","","2324","
                    <div class=""stimulus-container"">
                        <img src=""images/causal_sequence/coin_causal/coin_causal_6.png"" class=""exp-image"">
                        <div class=""question-area"">
                            <p style=""font-size: 20px; font-weight: bold; margin: 0;"">Is there a person in this image?</p>
                        </div>
                    </div>","0","main_causal_task","6","coin_causal","","","",""
"","","","","","html-keyboard-response","28","116415","0.0-28.0","57C912FC551B4394ABCF0CDA2F381112","019ce7aa-1228-76c3-a3e8-3939bd4512f9","019ce7a0-0965-7aa7-a556-174d32a8e773","","null","
                    <div class=""stimulus-container"">
                        <img src=""images/causal_sequence/coin_causal/coin_causal_7.png"" class=""exp-image"">
                        <div class=""question-area""></div> 
                    </div>","null","","","","","","",""
"","","","","","html-button-response","29","117503","0.0-29.0","57C912FC551B4394ABCF0CDA2F381112","019ce7aa-1228-76c3-a3e8-3939bd4512f9","019ce7a0-0965-7aa7-a556-174d32a8e773","","1086","
                    <div class=""stimulus-container"">
                        <img src=""images/causal_sequence/coin_causal/coin_causal_7.png"" class=""exp-image"">
                        <div class=""question-area"">
                            <p style=""font-size: 20px; font-weight: bold; margin: 0;"">Is there a person in this image?</p>
                        </div>
                    </div>","1","main_causal_task","7","coin_causal","","","",""
"","","","","","html-keyboard-response","30","122517","0.0-30.0","57C912FC551B4394ABCF0CDA2F381112","019ce7aa-1228-76c3-a3e8-3939bd4512f9","019ce7a0-0965-7aa7-a556-174d32a8e773","","null","
                    <div class=""stimulus-container"">
                        <img src=""images/causal_sequence/coin_causal/coin_causal_8.png"" class=""exp-image"">
                        <div class=""question-area""></div> 
                    </div>","null","","","","","","",""
"","","","","","html-button-response","31","123342","0.0-31.0","57C912FC551B4394ABCF0CDA2F381112","019ce7aa-1228-76c3-a3e8-3939bd4512f9","019ce7a0-0965-7aa7-a556-174d32a8e773","","824","
                    <div class=""stimulus-container"">
                        <img src=""images/causal_sequence/coin_causal/coin_causal_8.png"" class=""exp-image"">
                        <div class=""question-area"">
                            <p style=""font-size: 20px; font-weight: bold; margin: 0;"">Is there a person in this image?</p>
                        </div>
                    </div>","0","main_causal_task","8","coin_causal","","","",""
"","","","","","html-keyboard-response","32","128352","0.0-32.0","57C912FC551B4394ABCF0CDA2F381112","019ce7aa-1228-76c3-a3e8-3939bd4512f9","019ce7a0-0965-7aa7-a556-174d32a8e773","","null","
                    <div class=""stimulus-container"">
                        <img src=""images/causal_sequence/coin_causal/coin_causal_9.png"" class=""exp-image"">
                        <div class=""question-area""></div> 
                    </div>","null","","","","","","",""
"","","","","","html-button-response","33","129255","0.0-33.0","57C912FC551B4394ABCF0CDA2F381112","019ce7aa-1228-76c3-a3e8-3939bd4512f9","019ce7a0-0965-7aa7-a556-174d32a8e773","","902","
                    <div class=""stimulus-container"">
                        <img src=""images/causal_sequence/coin_causal/coin_causal_9.png"" class=""exp-image"">
                        <div class=""question-area"">
                            <p style=""font-size: 20px; font-weight: bold; margin: 0;"">Is there a person in this image?</p>
                        </div>
                    </div>","0","main_causal_task","9","coin_causal","","","",""
"","","","","","html-keyboard-response","34","130261","0.0-34.0","57C912FC551B4394ABCF0CDA2F381112","019ce7aa-1228-76c3-a3e8-3939bd4512f9","019ce7a0-0965-7aa7-a556-174d32a8e773","","null","<div style=""background-color: gray; width: 100vw; height: 100vh;""></div>","null","","","","","","",""
"","","","","","html-keyboard-response","35","135263","0.0-35.0","57C912FC551B4394ABCF0CDA2F381112","019ce7aa-1228-76c3-a3e8-3939bd4512f9","019ce7a0-0965-7aa7-a556-174d32a8e773","","null","
                    <div class=""stimulus-container"">
                        <img src=""images/causal_sequence/package_causal/package_causal_1.png"" class=""exp-image"">
                        <div class=""question-area""></div> 
                    </div>","null","","","","","","",""
"","","","","","html-button-response","36","136119","0.0-36.0","57C912FC551B4394ABCF0CDA2F381112","019ce7aa-1228-76c3-a3e8-3939bd4512f9","019ce7a0-0965-7aa7-a556-174d32a8e773","","854","
                    <div class=""stimulus-container"">
                        <img src=""images/causal_sequence/package_causal/package_causal_1.png"" class=""exp-image"">
                        <div class=""question-area"">
                            <p style=""font-size: 20px; font-weight: bold; margin: 0;"">Is there a person in this image?</p>
                        </div>
                    </div>","0","main_causal_task","1","package_causal","","","",""
"","","","","","html-keyboard-response","37","141121","0.0-37.0","57C912FC551B4394ABCF0CDA2F381112","019ce7aa-1228-76c3-a3e8-3939bd4512f9","019ce7a0-0965-7aa7-a556-174d32a8e773","","null","
                    <div class=""stimulus-container"">
                        <img src=""images/causal_sequence/package_causal/package_causal_2.png"" class=""exp-image"">
                        <div class=""question-area""></div> 
                    </div>","null","","","","","","",""
"","","","","","html-button-response","38","143365","0.0-38.0","57C912FC551B4394ABCF0CDA2F381112","019ce7aa-1228-76c3-a3e8-3939bd4512f9","019ce7a0-0965-7aa7-a556-174d32a8e773","","2243","
                    <div class=""stimulus-container"">
                        <img src=""images/causal_sequence/package_causal/package_causal_2.png"" class=""exp-image"">
                        <div class=""question-area"">
                            <p style=""font-size: 20px; font-weight: bold; margin: 0;"">Is there a person in this image?</p>
                        </div>
                    </div>","0","main_causal_task","2","package_causal","","","",""
"","","","","","html-keyboard-response","39","148376","0.0-39.0","57C912FC551B4394ABCF0CDA2F381112","019ce7aa-1228-76c3-a3e8-3939bd4512f9","019ce7a0-0965-7aa7-a556-174d32a8e773","","null","
                    <div class=""stimulus-container"">
                        <img src=""images/causal_sequence/package_causal/package_causal_3.png"" class=""exp-image"">
                        <div class=""question-area""></div> 
                    </div>","null","","","","","","",""
"","","","","","html-button-response","40","149449","0.0-40.0","57C912FC551B4394ABCF0CDA2F381112","019ce7aa-1228-76c3-a3e8-3939bd4512f9","019ce7a0-0965-7aa7-a556-174d32a8e773","","1071","
                    <div class=""stimulus-container"">
                        <img src=""images/causal_sequence/package_causal/package_causal_3.png"" class=""exp-image"">
                        <div class=""question-area"">
                            <p style=""font-size: 20px; font-weight: bold; margin: 0;"">Is there a person in this image?</p>
                        </div>
                    </div>","0","main_causal_task","3","package_causal","","","",""
"","","","","","html-keyboard-response","41","154456","0.0-41.0","57C912FC551B4394ABCF0CDA2F381112","019ce7aa-1228-76c3-a3e8-3939bd4512f9","019ce7a0-0965-7aa7-a556-174d32a8e773","","null","
                    <div class=""stimulus-container"">
                        <img src=""images/causal_sequence/package_causal/package_causal_4.png"" class=""exp-image"">
                        <div class=""question-area""></div> 
                    </div>","null","","","","","","",""
"","","","","","html-button-response","42","155227","0.0-42.0","57C912FC551B4394ABCF0CDA2F381112","019ce7aa-1228-76c3-a3e8-3939bd4512f9","019ce7a0-0965-7aa7-a556-174d32a8e773","","769","
                    <div class=""stimulus-container"">
                        <img src=""images/causal_sequence/package_causal/package_causal_4.png"" class=""exp-image"">
                        <div class=""question-area"">
                            <p style=""font-size: 20px; font-weight: bold; margin: 0;"">Is there a person in this image?</p>
                        </div>
                    </div>","1","main_causal_task","4","package_causal","","","",""
"","","","","","html-keyboard-response","43","160242","0.0-43.0","57C912FC551B4394ABCF0CDA2F381112","019ce7aa-1228-76c3-a3e8-3939bd4512f9","019ce7a0-0965-7aa7-a556-174d32a8e773","","null","
                    <div class=""stimulus-container"">
                        <img src=""images/causal_sequence/package_causal/package_causal_5.png"" class=""exp-image"">
                        <div class=""question-area""></div> 
                    </div>","null","","","","","","",""
"","","","","","html-button-response","44","161960","0.0-44.0","57C912FC551B4394ABCF0CDA2F381112","019ce7aa-1228-76c3-a3e8-3939bd4512f9","019ce7a0-0965-7aa7-a556-174d32a8e773","","1716","
                    <div class=""stimulus-container"">
                        <img src=""images/causal_sequence/package_causal/package_causal_5.png"" class=""exp-image"">
                        <div class=""question-area"">
                            <p style=""font-size: 20px; font-weight: bold; margin: 0;"">Is there a person in this image?</p>
                        </div>
                    </div>","0","main_causal_task","5","package_causal","","","",""
"","","","","","html-keyboard-response","45","166972","0.0-45.0","57C912FC551B4394ABCF0CDA2F381112","019ce7aa-1228-76c3-a3e8-3939bd4512f9","019ce7a0-0965-7aa7-a556-174d32a8e773","","null","
                    <div class=""stimulus-container"">
                        <img src=""images/causal_sequence/package_causal/package_causal_6.png"" class=""exp-image"">
                        <div class=""question-area""></div> 
                    </div>","null","","","","","","",""
"","","","","","html-button-response","46","168043","0.0-46.0","57C912FC551B4394ABCF0CDA2F381112","019ce7aa-1228-76c3-a3e8-3939bd4512f9","019ce7a0-0965-7aa7-a556-174d32a8e773","","1070","
                    <div class=""stimulus-container"">
                        <img src=""images/causal_sequence/package_causal/package_causal_6.png"" class=""exp-image"">
                        <div class=""question-area"">
                            <p style=""font-size: 20px; font-weight: bold; margin: 0;"">Is there a person in this image?</p>
                        </div>
                    </div>","0","main_causal_task","6","package_causal","","","",""
"","","","","","html-keyboard-response","47","173046","0.0-47.0","57C912FC551B4394ABCF0CDA2F381112","019ce7aa-1228-76c3-a3e8-3939bd4512f9","019ce7a0-0965-7aa7-a556-174d32a8e773","","null","
                    <div class=""stimulus-container"">
                        <img src=""images/causal_sequence/package_causal/package_causal_7.png"" class=""exp-image"">
                        <div class=""question-area""></div> 
                    </div>","null","","","","","","",""
"","","","","","html-button-response","48","174783","0.0-48.0","57C912FC551B4394ABCF0CDA2F381112","019ce7aa-1228-76c3-a3e8-3939bd4512f9","019ce7a0-0965-7aa7-a556-174d32a8e773","","1735","
                    <div class=""stimulus-container"">
                        <img src=""images/causal_sequence/package_causal/package_causal_7.png"" class=""exp-image"">
                        <div class=""question-area"">
                            <p style=""font-size: 20px; font-weight: bold; margin: 0;"">Is there a person in this image?</p>
                        </div>
                    </div>","0","main_causal_task","7","package_causal","","","",""
"","","","","","html-keyboard-response","49","179793","0.0-49.0","57C912FC551B4394ABCF0CDA2F381112","019ce7aa-1228-76c3-a3e8-3939bd4512f9","019ce7a0-0965-7aa7-a556-174d32a8e773","","null","
                    <div class=""stimulus-container"">
                        <img src=""images/causal_sequence/package_causal/package_causal_8.png"" class=""exp-image"">
                        <div class=""question-area""></div> 
                    </div>","null","","","","","","",""
"","","","","","html-button-response","50","181081","0.0-50.0","57C912FC551B4394ABCF0CDA2F381112","019ce7aa-1228-76c3-a3e8-3939bd4512f9","019ce7a0-0965-7aa7-a556-174d32a8e773","","1287","
                    <div class=""stimulus-container"">
                        <img src=""images/causal_sequence/package_causal/package_causal_8.png"" class=""exp-image"">
                        <div class=""question-area"">
                            <p style=""font-size: 20px; font-weight: bold; margin: 0;"">Is there a person in this image?</p>
                        </div>
                    </div>","0","main_causal_task","8","package_causal","","","",""
"","","","","","html-keyboard-response","51","186090","0.0-51.0","57C912FC551B4394ABCF0CDA2F381112","019ce7aa-1228-76c3-a3e8-3939bd4512f9","019ce7a0-0965-7aa7-a556-174d32a8e773","","null","
                    <div class=""stimulus-container"">
                        <img src=""images/causal_sequence/package_causal/package_causal_9.png"" class=""exp-image"">
                        <div class=""question-area""></div> 
                    </div>","null","","","","","","",""
"","","","","","html-button-response","52","186907","0.0-52.0","57C912FC551B4394ABCF0CDA2F381112","019ce7aa-1228-76c3-a3e8-3939bd4512f9","019ce7a0-0965-7aa7-a556-174d32a8e773","","816","
                    <div class=""stimulus-container"">
                        <img src=""images/causal_sequence/package_causal/package_causal_9.png"" class=""exp-image"">
                        <div class=""question-area"">
                            <p style=""font-size: 20px; font-weight: bold; margin: 0;"">Is there a person in this image?</p>
                        </div>
                    </div>","0","main_causal_task","9","package_causal","","","",""
"","","","","","html-keyboard-response","53","187915","0.0-53.0","57C912FC551B4394ABCF0CDA2F381112","019ce7aa-1228-76c3-a3e8-3939bd4512f9","019ce7a0-0965-7aa7-a556-174d32a8e773","","null","<div style=""background-color: gray; width: 100vw; height: 100vh;""></div>","null","","","","","","",""
"","","","","","html-keyboard-response","54","192917","0.0-54.0","57C912FC551B4394ABCF0CDA2F381112","019ce7aa-1228-76c3-a3e8-3939bd4512f9","019ce7a0-0965-7aa7-a556-174d32a8e773","","null","
                    <div class=""stimulus-container"">
                        <img src=""images/causal_sequence/dog_causal/dog_causal_1.png"" class=""exp-image"">
                        <div class=""question-area""></div> 
                    </div>","null","","","","","","",""
"","","","","","html-button-response","55","194141","0.0-55.0","57C912FC551B4394ABCF0CDA2F381112","019ce7aa-1228-76c3-a3e8-3939bd4512f9","019ce7a0-0965-7aa7-a556-174d32a8e773","","1224","
                    <div class=""stimulus-container"">
                        <img src=""images/causal_sequence/dog_causal/dog_causal_1.png"" class=""exp-image"">
                        <div class=""question-area"">
                            <p style=""font-size: 20px; font-weight: bold; margin: 0;"">Is there a person in this image?</p>
                        </div>
                    </div>","0","main_causal_task","1","dog_causal","","","",""
"","","","","","html-keyboard-response","56","199146","0.0-56.0","57C912FC551B4394ABCF0CDA2F381112","019ce7aa-1228-76c3-a3e8-3939bd4512f9","019ce7a0-0965-7aa7-a556-174d32a8e773","","null","
                    <div class=""stimulus-container"">
                        <img src=""images/causal_sequence/dog_causal/dog_causal_2.png"" class=""exp-image"">
                        <div class=""question-area""></div> 
                    </div>","null","","","","","","",""
"","","","","","html-button-response","57","200136","0.0-57.0","57C912FC551B4394ABCF0CDA2F381112","019ce7aa-1228-76c3-a3e8-3939bd4512f9","019ce7a0-0965-7aa7-a556-174d32a8e773","","989","
                    <div class=""stimulus-container"">
                        <img src=""images/causal_sequence/dog_causal/dog_causal_2.png"" class=""exp-image"">
                        <div class=""question-area"">
                            <p style=""font-size: 20px; font-weight: bold; margin: 0;"">Is there a person in this image?</p>
                        </div>
                    </div>","0","main_causal_task","2","dog_causal","","","",""
"","","","","","html-keyboard-response","58","205149","0.0-58.0","57C912FC551B4394ABCF0CDA2F381112","019ce7aa-1228-76c3-a3e8-3939bd4512f9","019ce7a0-0965-7aa7-a556-174d32a8e773","","null","
                    <div class=""stimulus-container"">
                        <img src=""images/causal_sequence/dog_causal/dog_causal_3.png"" class=""exp-image"">
                        <div class=""question-area""></div> 
                    </div>","null","","","","","","",""
"","","","","","html-button-response","59","205911","0.0-59.0","57C912FC551B4394ABCF0CDA2F381112","019ce7aa-1228-76c3-a3e8-3939bd4512f9","019ce7a0-0965-7aa7-a556-174d32a8e773","","761","
                    <div class=""stimulus-container"">
                        <img src=""images/causal_sequence/dog_causal/dog_causal_3.png"" class=""exp-image"">
                        <div class=""question-area"">
                            <p style=""font-size: 20px; font-weight: bold; margin: 0;"">Is there a person in this image?</p>
                        </div>
                    </div>","0","main_causal_task","3","dog_causal","","","",""
"","","","","","html-keyboard-response","60","210927","0.0-60.0","57C912FC551B4394ABCF0CDA2F381112","019ce7aa-1228-76c3-a3e8-3939bd4512f9","019ce7a0-0965-7aa7-a556-174d32a8e773","","null","
                    <div class=""stimulus-container"">
                        <img src=""images/causal_sequence/dog_causal/dog_causal_4.png"" class=""exp-image"">
                        <div class=""question-area""></div> 
                    </div>","null","","","","","","",""
"","","","","","html-button-response","61","212105","0.0-61.0","57C912FC551B4394ABCF0CDA2F381112","019ce7aa-1228-76c3-a3e8-3939bd4512f9","019ce7a0-0965-7aa7-a556-174d32a8e773","","1176","
                    <div class=""stimulus-container"">
                        <img src=""images/causal_sequence/dog_causal/dog_causal_4.png"" class=""exp-image"">
                        <div class=""question-area"">
                            <p style=""font-size: 20px; font-weight: bold; margin: 0;"">Is there a person in this image?</p>
                        </div>
                    </div>","0","main_causal_task","4","dog_causal","","","",""
"","","","","","html-keyboard-response","62","217113","0.0-62.0","57C912FC551B4394ABCF0CDA2F381112","019ce7aa-1228-76c3-a3e8-3939bd4512f9","019ce7a0-0965-7aa7-a556-174d32a8e773","","null","
                    <div class=""stimulus-container"">
                        <img src=""images/causal_sequence/dog_causal/dog_causal_5.png"" class=""exp-image"">
                        <div class=""question-area""></div> 
                    </div>","null","","","","","","",""
"","","","","","html-button-response","63","218282","0.0-63.0","57C912FC551B4394ABCF0CDA2F381112","019ce7aa-1228-76c3-a3e8-3939bd4512f9","019ce7a0-0965-7aa7-a556-174d32a8e773","","1167","
                    <div class=""stimulus-container"">
                        <img src=""images/causal_sequence/dog_causal/dog_causal_5.png"" class=""exp-image"">
                        <div class=""question-area"">
                            <p style=""font-size: 20px; font-weight: bold; margin: 0;"">Is there a person in this image?</p>
                        </div>
                    </div>","0","main_causal_task","5","dog_causal","","","",""
"","","","","","html-keyboard-response","64","223297","0.0-64.0","57C912FC551B4394ABCF0CDA2F381112","019ce7aa-1228-76c3-a3e8-3939bd4512f9","019ce7a0-0965-7aa7-a556-174d32a8e773","","null","
                    <div class=""stimulus-container"">
                        <img src=""images/causal_sequence/dog_causal/dog_causal_6.png"" class=""exp-image"">
                        <div class=""question-area""></div> 
                    </div>","null","","","","","","",""
"","","","","","html-button-response","65","225098","0.0-65.0","57C912FC551B4394ABCF0CDA2F381112","019ce7aa-1228-76c3-a3e8-3939bd4512f9","019ce7a0-0965-7aa7-a556-174d32a8e773","","1800","
                    <div class=""stimulus-container"">
                        <img src=""images/causal_sequence/dog_causal/dog_causal_6.png"" class=""exp-image"">
                        <div class=""question-area"">
                            <p style=""font-size: 20px; font-weight: bold; margin: 0;"">Is there a person in this image?</p>
                        </div>
                    </div>","0","main_causal_task","6","dog_causal","","","",""
"","","","","","html-keyboard-response","66","230110","0.0-66.0","57C912FC551B4394ABCF0CDA2F381112","019ce7aa-1228-76c3-a3e8-3939bd4512f9","019ce7a0-0965-7aa7-a556-174d32a8e773","","null","
                    <div class=""stimulus-container"">
                        <img src=""images/causal_sequence/dog_causal/dog_causal_7.png"" class=""exp-image"">
                        <div class=""question-area""></div> 
                    </div>","null","","","","","","",""
"","","","","","html-button-response","67","231185","0.0-67.0","57C912FC551B4394ABCF0CDA2F381112","019ce7aa-1228-76c3-a3e8-3939bd4512f9","019ce7a0-0965-7aa7-a556-174d32a8e773","","1073","
                    <div class=""stimulus-container"">
                        <img src=""images/causal_sequence/dog_causal/dog_causal_7.png"" class=""exp-image"">
                        <div class=""question-area"">
                            <p style=""font-size: 20px; font-weight: bold; margin: 0;"">Is there a person in this image?</p>
                        </div>
                    </div>","0","main_causal_task","7","dog_causal","","","",""
"","","","","","html-keyboard-response","68","236188","0.0-68.0","57C912FC551B4394ABCF0CDA2F381112","019ce7aa-1228-76c3-a3e8-3939bd4512f9","019ce7a0-0965-7aa7-a556-174d32a8e773","","null","
                    <div class=""stimulus-container"">
                        <img src=""images/causal_sequence/dog_causal/dog_causal_8.png"" class=""exp-image"">
                        <div class=""question-area""></div> 
                    </div>","null","","","","","","",""
"","","","","","html-button-response","69","237112","0.0-69.0","57C912FC551B4394ABCF0CDA2F381112","019ce7aa-1228-76c3-a3e8-3939bd4512f9","019ce7a0-0965-7aa7-a556-174d32a8e773","","923","
                    <div class=""stimulus-container"">
                        <img src=""images/causal_sequence/dog_causal/dog_causal_8.png"" class=""exp-image"">
                        <div class=""question-area"">
                            <p style=""font-size: 20px; font-weight: bold; margin: 0;"">Is there a person in this image?</p>
                        </div>
                    </div>","0","main_causal_task","8","dog_causal","","","",""
"","","","","","html-keyboard-response","70","242125","0.0-70.0","57C912FC551B4394ABCF0CDA2F381112","019ce7aa-1228-76c3-a3e8-3939bd4512f9","019ce7a0-0965-7aa7-a556-174d32a8e773","","null","
                    <div class=""stimulus-container"">
                        <img src=""images/causal_sequence/dog_causal/dog_causal_9.png"" class=""exp-image"">
                        <div class=""question-area""></div> 
                    </div>","null","","","","","","",""
"","","","","","html-button-response","71","243130","0.0-71.0","57C912FC551B4394ABCF0CDA2F381112","019ce7aa-1228-76c3-a3e8-3939bd4512f9","019ce7a0-0965-7aa7-a556-174d32a8e773","","1004","
                    <div class=""stimulus-container"">
                        <img src=""images/causal_sequence/dog_causal/dog_causal_9.png"" class=""exp-image"">
                        <div class=""question-area"">
                            <p style=""font-size: 20px; font-weight: bold; margin: 0;"">Is there a person in this image?</p>
                        </div>
                    </div>","0","main_causal_task","9","dog_causal","","","",""
"","","","","","html-keyboard-response","72","244138","0.0-72.0","57C912FC551B4394ABCF0CDA2F381112","019ce7aa-1228-76c3-a3e8-3939bd4512f9","019ce7a0-0965-7aa7-a556-174d32a8e773","","null","<div style=""background-color: gray; width: 100vw; height: 100vh;""></div>","null","","","","","","",""
"","","","","","html-keyboard-response","73","249140","0.0-73.0","57C912FC551B4394ABCF0CDA2F381112","019ce7aa-1228-76c3-a3e8-3939bd4512f9","019ce7a0-0965-7aa7-a556-174d32a8e773","","null","
                    <div class=""stimulus-container"">
                        <img src=""images/causal_sequence/the_performance_causal/the_performance_causal_1.png"" class=""exp-image"">
                        <div class=""question-area""></div> 
                    </div>","null","","","","","","",""
"","","","","","html-button-response","74","252030","0.0-74.0","57C912FC551B4394ABCF0CDA2F381112","019ce7aa-1228-76c3-a3e8-3939bd4512f9","019ce7a0-0965-7aa7-a556-174d32a8e773","","2889","
                    <div class=""stimulus-container"">
                        <img src=""images/causal_sequence/the_performance_causal/the_performance_causal_1.png"" class=""exp-image"">
                        <div class=""question-area"">
                            <p style=""font-size: 20px; font-weight: bold; margin: 0;"">Is there a person in this image?</p>
                        </div>
                    </div>","0","main_causal_task","1","the_performance_causal","","","",""
"","","","","","html-keyboard-response","75","257038","0.0-75.0","57C912FC551B4394ABCF0CDA2F381112","019ce7aa-1228-76c3-a3e8-3939bd4512f9","019ce7a0-0965-7aa7-a556-174d32a8e773","","null","
                    <div class=""stimulus-container"">
                        <img src=""images/causal_sequence/the_performance_causal/the_performance_causal_2.png"" class=""exp-image"">
                        <div class=""question-area""></div> 
                    </div>","null","","","","","","",""
"","","","","","html-button-response","76","259295","0.0-76.0","57C912FC551B4394ABCF0CDA2F381112","019ce7aa-1228-76c3-a3e8-3939bd4512f9","019ce7a0-0965-7aa7-a556-174d32a8e773","","2256","
                    <div class=""stimulus-container"">
                        <img src=""images/causal_sequence/the_performance_causal/the_performance_causal_2.png"" class=""exp-image"">
                        <div class=""question-area"">
                            <p style=""font-size: 20px; font-weight: bold; margin: 0;"">Is there a person in this image?</p>
                        </div>
                    </div>","0","main_causal_task","2","the_performance_causal","","","",""
"","","","","","html-keyboard-response","77","264311","0.0-77.0","57C912FC551B4394ABCF0CDA2F381112","019ce7aa-1228-76c3-a3e8-3939bd4512f9","019ce7a0-0965-7aa7-a556-174d32a8e773","","null","
                    <div class=""stimulus-container"">
                        <img src=""images/causal_sequence/the_performance_causal/the_performance_causal_3.png"" class=""exp-image"">
                        <div class=""question-area""></div> 
                    </div>","null","","","","","","",""
"","","","","","html-button-response","78","266844","0.0-78.0","57C912FC551B4394ABCF0CDA2F381112","019ce7aa-1228-76c3-a3e8-3939bd4512f9","019ce7a0-0965-7aa7-a556-174d32a8e773","","2532","
                    <div class=""stimulus-container"">
                        <img src=""images/causal_sequence/the_performance_causal/the_performance_causal_3.png"" class=""exp-image"">
                        <div class=""question-area"">
                            <p style=""font-size: 20px; font-weight: bold; margin: 0;"">Is there a person in this image?</p>
                        </div>
                    </div>","0","main_causal_task","3","the_performance_causal","","","",""
"","","","","","html-keyboard-response","79","271860","0.0-79.0","57C912FC551B4394ABCF0CDA2F381112","019ce7aa-1228-76c3-a3e8-3939bd4512f9","019ce7a0-0965-7aa7-a556-174d32a8e773","","null","
                    <div class=""stimulus-container"">
                        <img src=""images/causal_sequence/the_performance_causal/the_performance_causal_4.png"" class=""exp-image"">
                        <div class=""question-area""></div> 
                    </div>","null","","","","","","",""
"","","","","","html-button-response","80","274867","0.0-80.0","57C912FC551B4394ABCF0CDA2F381112","019ce7aa-1228-76c3-a3e8-3939bd4512f9","019ce7a0-0965-7aa7-a556-174d32a8e773","","null","
                    <div class=""stimulus-container"">
                        <img src=""images/causal_sequence/the_performance_causal/the_performance_causal_4.png"" class=""exp-image"">
                        <div class=""question-area"">
                            <p style=""font-size: 20px; font-weight: bold; margin: 0;"">Is there a person in this image?</p>
                        </div>
                    </div>","null","main_causal_task","4","the_performance_causal","","","",""
"","","","","","html-keyboard-response","81","279869","0.0-81.0","57C912FC551B4394ABCF0CDA2F381112","019ce7aa-1228-76c3-a3e8-3939bd4512f9","019ce7a0-0965-7aa7-a556-174d32a8e773","","null","
                    <div class=""stimulus-container"">
                        <img src=""images/causal_sequence/the_performance_causal/the_performance_causal_5.png"" class=""exp-image"">
                        <div class=""question-area""></div> 
                    </div>","null","","","","","","",""
"","","","","","html-button-response","82","280677","0.0-82.0","57C912FC551B4394ABCF0CDA2F381112","019ce7aa-1228-76c3-a3e8-3939bd4512f9","019ce7a0-0965-7aa7-a556-174d32a8e773","","806","
                    <div class=""stimulus-container"">
                        <img src=""images/causal_sequence/the_performance_causal/the_performance_causal_5.png"" class=""exp-image"">
                        <div class=""question-area"">
                            <p style=""font-size: 20px; font-weight: bold; margin: 0;"">Is there a person in this image?</p>
                        </div>
                    </div>","0","main_causal_task","5","the_performance_causal","","","",""
"","","","","","html-keyboard-response","83","285680","0.0-83.0","57C912FC551B4394ABCF0CDA2F381112","019ce7aa-1228-76c3-a3e8-3939bd4512f9","019ce7a0-0965-7aa7-a556-174d32a8e773","","null","
                    <div class=""stimulus-container"">
                        <img src=""images/causal_sequence/the_performance_causal/the_performance_causal_6.png"" class=""exp-image"">
                        <div class=""question-area""></div> 
                    </div>","null","","","","","","",""
"","","","","","html-button-response","84","288685","0.0-84.0","57C912FC551B4394ABCF0CDA2F381112","019ce7aa-1228-76c3-a3e8-3939bd4512f9","019ce7a0-0965-7aa7-a556-174d32a8e773","","null","
                    <div class=""stimulus-container"">
                        <img src=""images/causal_sequence/the_performance_causal/the_performance_causal_6.png"" class=""exp-image"">
                        <div class=""question-area"">
                            <p style=""font-size: 20px; font-weight: bold; margin: 0;"">Is there a person in this image?</p>
                        </div>
                    </div>","null","main_causal_task","6","the_performance_causal","","","",""
"","","","","","html-keyboard-response","85","293695","0.0-85.0","57C912FC551B4394ABCF0CDA2F381112","019ce7aa-1228-76c3-a3e8-3939bd4512f9","019ce7a0-0965-7aa7-a556-174d32a8e773","","null","
                    <div class=""stimulus-container"">
                        <img src=""images/causal_sequence/the_performance_causal/the_performance_causal_7.png"" class=""exp-image"">
                        <div class=""question-area""></div> 
                    </div>","null","","","","","","",""
"","","","","","html-button-response","86","296459","0.0-86.0","57C912FC551B4394ABCF0CDA2F381112","019ce7aa-1228-76c3-a3e8-3939bd4512f9","019ce7a0-0965-7aa7-a556-174d32a8e773","","2762","
                    <div class=""stimulus-container"">
                        <img src=""images/causal_sequence/the_performance_causal/the_performance_causal_7.png"" class=""exp-image"">
                        <div class=""question-area"">
                            <p style=""font-size: 20px; font-weight: bold; margin: 0;"">Is there a person in this image?</p>
                        </div>
                    </div>","0","main_causal_task","7","the_performance_causal","","","",""
"","","","","","html-keyboard-response","87","301469","0.0-87.0","57C912FC551B4394ABCF0CDA2F381112","019ce7aa-1228-76c3-a3e8-3939bd4512f9","019ce7a0-0965-7aa7-a556-174d32a8e773","","null","
                    <div class=""stimulus-container"">
                        <img src=""images/causal_sequence/the_performance_causal/the_performance_causal_8.png"" class=""exp-image"">
                        <div class=""question-area""></div> 
                    </div>","null","","","","","","",""
"","","","","","html-button-response","88","302286","0.0-88.0","57C912FC551B4394ABCF0CDA2F381112","019ce7aa-1228-76c3-a3e8-3939bd4512f9","019ce7a0-0965-7aa7-a556-174d32a8e773","","815","
                    <div class=""stimulus-container"">
                        <img src=""images/causal_sequence/the_performance_causal/the_performance_causal_8.png"" class=""exp-image"">
                        <div class=""question-area"">
                            <p style=""font-size: 20px; font-weight: bold; margin: 0;"">Is there a person in this image?</p>
                        </div>
                    </div>","0","main_causal_task","8","the_performance_causal","","","",""
"","","","","","html-keyboard-response","89","307291","0.0-89.0","57C912FC551B4394ABCF0CDA2F381112","019ce7aa-1228-76c3-a3e8-3939bd4512f9","019ce7a0-0965-7aa7-a556-174d32a8e773","","null","
                    <div class=""stimulus-container"">
                        <img src=""images/causal_sequence/the_performance_causal/the_performance_causal_9.png"" class=""exp-image"">
                        <div class=""question-area""></div> 
                    </div>","null","","","","","","",""
"","","","","","html-button-response","90","308939","0.0-90.0","57C912FC551B4394ABCF0CDA2F381112","019ce7aa-1228-76c3-a3e8-3939bd4512f9","019ce7a0-0965-7aa7-a556-174d32a8e773","","1646","
                    <div class=""stimulus-container"">
                        <img src=""images/causal_sequence/the_performance_causal/the_performance_causal_9.png"" class=""exp-image"">
                        <div class=""question-area"">
                            <p style=""font-size: 20px; font-weight: bold; margin: 0;"">Is there a person in this image?</p>
                        </div>
                    </div>","0","main_causal_task","9","the_performance_causal","","","",""
"","","","","","html-keyboard-response","91","309951","0.0-91.0","57C912FC551B4394ABCF0CDA2F381112","019ce7aa-1228-76c3-a3e8-3939bd4512f9","019ce7a0-0965-7aa7-a556-174d32a8e773","","null","<div style=""background-color: gray; width: 100vw; height: 100vh;""></div>","null","","","","","","",""
"","","","","","html-keyboard-response","92","314960","0.0-92.0","57C912FC551B4394ABCF0CDA2F381112","019ce7aa-1228-76c3-a3e8-3939bd4512f9","019ce7a0-0965-7aa7-a556-174d32a8e773","","null","
                    <div class=""stimulus-container"">
                        <img src=""images/causal_sequence/museum_causal/museum_causal_1.png"" class=""exp-image"">
                        <div class=""question-area""></div> 
                    </div>","null","","","","","","",""
"","","","","","html-button-response","93","315950","0.0-93.0","57C912FC551B4394ABCF0CDA2F381112","019ce7aa-1228-76c3-a3e8-3939bd4512f9","019ce7a0-0965-7aa7-a556-174d32a8e773","","988","
                    <div class=""stimulus-container"">
                        <img src=""images/causal_sequence/museum_causal/museum_causal_1.png"" class=""exp-image"">
                        <div class=""question-area"">
                            <p style=""font-size: 20px; font-weight: bold; margin: 0;"">Is there a person in this image?</p>
                        </div>
                    </div>","0","main_causal_task","1","museum_causal","","","",""
"","","","","","html-keyboard-response","94","320959","0.0-94.0","57C912FC551B4394ABCF0CDA2F381112","019ce7aa-1228-76c3-a3e8-3939bd4512f9","019ce7a0-0965-7aa7-a556-174d32a8e773","","null","
                    <div class=""stimulus-container"">
                        <img src=""images/causal_sequence/museum_causal/museum_causal_2.png"" class=""exp-image"">
                        <div class=""question-area""></div> 
                    </div>","null","","","","","","",""
"","","","","","html-button-response","95","322394","0.0-95.0","57C912FC551B4394ABCF0CDA2F381112","019ce7aa-1228-76c3-a3e8-3939bd4512f9","019ce7a0-0965-7aa7-a556-174d32a8e773","","1433","
                    <div class=""stimulus-container"">
                        <img src=""images/causal_sequence/museum_causal/museum_causal_2.png"" class=""exp-image"">
                        <div class=""question-area"">
                            <p style=""font-size: 20px; font-weight: bold; margin: 0;"">Is there a person in this image?</p>
                        </div>
                    </div>","1","main_causal_task","2","museum_causal","","","",""
"","","","","","html-keyboard-response","96","327396","0.0-96.0","57C912FC551B4394ABCF0CDA2F381112","019ce7aa-1228-76c3-a3e8-3939bd4512f9","019ce7a0-0965-7aa7-a556-174d32a8e773","","null","
                    <div class=""stimulus-container"">
                        <img src=""images/causal_sequence/museum_causal/museum_causal_3.png"" class=""exp-image"">
                        <div class=""question-area""></div> 
                    </div>","null","","","","","","",""
"","","","","","html-button-response","97","328195","0.0-97.0","57C912FC551B4394ABCF0CDA2F381112","019ce7aa-1228-76c3-a3e8-3939bd4512f9","019ce7a0-0965-7aa7-a556-174d32a8e773","","798","
                    <div class=""stimulus-container"">
                        <img src=""images/causal_sequence/museum_causal/museum_causal_3.png"" class=""exp-image"">
                        <div class=""question-area"">
                            <p style=""font-size: 20px; font-weight: bold; margin: 0;"">Is there a person in this image?</p>
                        </div>
                    </div>","0","main_causal_task","3","museum_causal","","","",""
"","","","","","html-keyboard-response","98","333202","0.0-98.0","57C912FC551B4394ABCF0CDA2F381112","019ce7aa-1228-76c3-a3e8-3939bd4512f9","019ce7a0-0965-7aa7-a556-174d32a8e773","","null","
                    <div class=""stimulus-container"">
                        <img src=""images/causal_sequence/museum_causal/museum_causal_4.png"" class=""exp-image"">
                        <div class=""question-area""></div> 
                    </div>","null","","","","","","",""
"","","","","","html-button-response","99","333984","0.0-99.0","57C912FC551B4394ABCF0CDA2F381112","019ce7aa-1228-76c3-a3e8-3939bd4512f9","019ce7a0-0965-7aa7-a556-174d32a8e773","","781","
                    <div class=""stimulus-container"">
                        <img src=""images/causal_sequence/museum_causal/museum_causal_4.png"" class=""exp-image"">
                        <div class=""question-area"">
                            <p style=""font-size: 20px; font-weight: bold; margin: 0;"">Is there a person in this image?</p>
                        </div>
                    </div>","1","main_causal_task","4","museum_causal","","","",""
"","","","","","html-keyboard-response","100","338989","0.0-100.0","57C912FC551B4394ABCF0CDA2F381112","019ce7aa-1228-76c3-a3e8-3939bd4512f9","019ce7a0-0965-7aa7-a556-174d32a8e773","","null","
                    <div class=""stimulus-container"">
                        <img src=""images/causal_sequence/museum_causal/museum_causal_5.png"" class=""exp-image"">
                        <div class=""question-area""></div> 
                    </div>","null","","","","","","",""
"","","","","","html-button-response","101","339778","0.0-101.0","57C912FC551B4394ABCF0CDA2F381112","019ce7aa-1228-76c3-a3e8-3939bd4512f9","019ce7a0-0965-7aa7-a556-174d32a8e773","","788","
                    <div class=""stimulus-container"">
                        <img src=""images/causal_sequence/museum_causal/museum_causal_5.png"" class=""exp-image"">
                        <div class=""question-area"">
                            <p style=""font-size: 20px; font-weight: bold; margin: 0;"">Is there a person in this image?</p>
                        </div>
                    </div>","0","main_causal_task","5","museum_causal","","","",""
"","","","","","html-keyboard-response","102","344788","0.0-102.0","57C912FC551B4394ABCF0CDA2F381112","019ce7aa-1228-76c3-a3e8-3939bd4512f9","019ce7a0-0965-7aa7-a556-174d32a8e773","","null","
                    <div class=""stimulus-container"">
                        <img src=""images/causal_sequence/museum_causal/museum_causal_6.png"" class=""exp-image"">
                        <div class=""question-area""></div> 
                    </div>","null","","","","","","",""
"","","","","","html-button-response","103","345910","0.0-103.0","57C912FC551B4394ABCF0CDA2F381112","019ce7aa-1228-76c3-a3e8-3939bd4512f9","019ce7a0-0965-7aa7-a556-174d32a8e773","","1121","
                    <div class=""stimulus-container"">
                        <img src=""images/causal_sequence/museum_causal/museum_causal_6.png"" class=""exp-image"">
                        <div class=""question-area"">
                            <p style=""font-size: 20px; font-weight: bold; margin: 0;"">Is there a person in this image?</p>
                        </div>
                    </div>","0","main_causal_task","6","museum_causal","","","",""
"","","","","","html-keyboard-response","104","350923","0.0-104.0","57C912FC551B4394ABCF0CDA2F381112","019ce7aa-1228-76c3-a3e8-3939bd4512f9","019ce7a0-0965-7aa7-a556-174d32a8e773","","null","
                    <div class=""stimulus-container"">
                        <img src=""images/causal_sequence/museum_causal/museum_causal_7.png"" class=""exp-image"">
                        <div class=""question-area""></div> 
                    </div>","null","","","","","","",""
"","","","","","html-button-response","105","352043","0.0-105.0","57C912FC551B4394ABCF0CDA2F381112","019ce7aa-1228-76c3-a3e8-3939bd4512f9","019ce7a0-0965-7aa7-a556-174d32a8e773","","1119","
                    <div class=""stimulus-container"">
                        <img src=""images/causal_sequence/museum_causal/museum_causal_7.png"" class=""exp-image"">
                        <div class=""question-area"">
                            <p style=""font-size: 20px; font-weight: bold; margin: 0;"">Is there a person in this image?</p>
                        </div>
                    </div>","1","main_causal_task","7","museum_causal","","","",""
"","","","","","html-keyboard-response","106","357058","0.0-106.0","57C912FC551B4394ABCF0CDA2F381112","019ce7aa-1228-76c3-a3e8-3939bd4512f9","019ce7a0-0965-7aa7-a556-174d32a8e773","","null","
                    <div class=""stimulus-container"">
                        <img src=""images/causal_sequence/museum_causal/museum_causal_8.png"" class=""exp-image"">
                        <div class=""question-area""></div> 
                    </div>","null","","","","","","",""
"","","","","","html-button-response","107","358242","0.0-107.0","57C912FC551B4394ABCF0CDA2F381112","019ce7aa-1228-76c3-a3e8-3939bd4512f9","019ce7a0-0965-7aa7-a556-174d32a8e773","","1183","
                    <div class=""stimulus-container"">
                        <img src=""images/causal_sequence/museum_causal/museum_causal_8.png"" class=""exp-image"">
                        <div class=""question-area"">
                            <p style=""font-size: 20px; font-weight: bold; margin: 0;"">Is there a person in this image?</p>
                        </div>
                    </div>","0","main_causal_task","8","museum_causal","","","",""
"","","","","","html-keyboard-response","108","363253","0.0-108.0","57C912FC551B4394ABCF0CDA2F381112","019ce7aa-1228-76c3-a3e8-3939bd4512f9","019ce7a0-0965-7aa7-a556-174d32a8e773","","null","
                    <div class=""stimulus-container"">
                        <img src=""images/causal_sequence/museum_causal/museum_causal_9.png"" class=""exp-image"">
                        <div class=""question-area""></div> 
                    </div>","null","","","","","","",""
"","","","","","html-button-response","109","364344","0.0-109.0","57C912FC551B4394ABCF0CDA2F381112","019ce7aa-1228-76c3-a3e8-3939bd4512f9","019ce7a0-0965-7aa7-a556-174d32a8e773","","1089","
                    <div class=""stimulus-container"">
                        <img src=""images/causal_sequence/museum_causal/museum_causal_9.png"" class=""exp-image"">
                        <div class=""question-area"">
                            <p style=""font-size: 20px; font-weight: bold; margin: 0;"">Is there a person in this image?</p>
                        </div>
                    </div>","1","main_causal_task","9","museum_causal","","","",""
"","","","","","html-keyboard-response","110","365358","0.0-110.0","57C912FC551B4394ABCF0CDA2F381112","019ce7aa-1228-76c3-a3e8-3939bd4512f9","019ce7a0-0965-7aa7-a556-174d32a8e773","","null","<div style=""background-color: gray; width: 100vw; height: 100vh;""></div>","null","","","","","","",""
"","","","","","html-keyboard-response","111","370372","0.0-111.0","57C912FC551B4394ABCF0CDA2F381112","019ce7aa-1228-76c3-a3e8-3939bd4512f9","019ce7a0-0965-7aa7-a556-174d32a8e773","","null","
                    <div class=""stimulus-container"">
                        <img src=""images/causal_sequence/saving_a_cat_causal/saving_a_cat_causal_1.png"" class=""exp-image"">
                        <div class=""question-area""></div> 
                    </div>","null","","","","","","",""
"","","","","","html-button-response","112","371556","0.0-112.0","57C912FC551B4394ABCF0CDA2F381112","019ce7aa-1228-76c3-a3e8-3939bd4512f9","019ce7a0-0965-7aa7-a556-174d32a8e773","","1179","
                    <div class=""stimulus-container"">
                        <img src=""images/causal_sequence/saving_a_cat_causal/saving_a_cat_causal_1.png"" class=""exp-image"">
                        <div class=""question-area"">
                            <p style=""font-size: 20px; font-weight: bold; margin: 0;"">Is there a person in this image?</p>
                        </div>
                    </div>","0","main_causal_task","1","saving_a_cat_causal","","","",""
"","","","","","html-keyboard-response","113","376563","0.0-113.0","57C912FC551B4394ABCF0CDA2F381112","019ce7aa-1228-76c3-a3e8-3939bd4512f9","019ce7a0-0965-7aa7-a556-174d32a8e773","","null","
                    <div class=""stimulus-container"">
                        <img src=""images/causal_sequence/saving_a_cat_causal/saving_a_cat_causal_2.png"" class=""exp-image"">
                        <div class=""question-area""></div> 
                    </div>","null","","","","","","",""
"","","","","","html-button-response","114","377875","0.0-114.0","57C912FC551B4394ABCF0CDA2F381112","019ce7aa-1228-76c3-a3e8-3939bd4512f9","019ce7a0-0965-7aa7-a556-174d32a8e773","","1311","
                    <div class=""stimulus-container"">
                        <img src=""images/causal_sequence/saving_a_cat_causal/saving_a_cat_causal_2.png"" class=""exp-image"">
                        <div class=""question-area"">
                            <p style=""font-size: 20px; font-weight: bold; margin: 0;"">Is there a person in this image?</p>
                        </div>
                    </div>","1","main_causal_task","2","saving_a_cat_causal","","","",""
"","","","","","html-keyboard-response","115","382877","0.0-115.0","57C912FC551B4394ABCF0CDA2F381112","019ce7aa-1228-76c3-a3e8-3939bd4512f9","019ce7a0-0965-7aa7-a556-174d32a8e773","","null","
                    <div class=""stimulus-container"">
                        <img src=""images/causal_sequence/saving_a_cat_causal/saving_a_cat_causal_3.png"" class=""exp-image"">
                        <div class=""question-area""></div> 
                    </div>","null","","","","","","",""
"","","","","","html-button-response","116","383654","0.0-116.0","57C912FC551B4394ABCF0CDA2F381112","019ce7aa-1228-76c3-a3e8-3939bd4512f9","019ce7a0-0965-7aa7-a556-174d32a8e773","","775","
                    <div class=""stimulus-container"">
                        <img src=""images/causal_sequence/saving_a_cat_causal/saving_a_cat_causal_3.png"" class=""exp-image"">
                        <div class=""question-area"">
                            <p style=""font-size: 20px; font-weight: bold; margin: 0;"">Is there a person in this image?</p>
                        </div>
                    </div>","1","main_causal_task","3","saving_a_cat_causal","","","",""
"","","","","","html-keyboard-response","117","388665","0.0-117.0","57C912FC551B4394ABCF0CDA2F381112","019ce7aa-1228-76c3-a3e8-3939bd4512f9","019ce7a0-0965-7aa7-a556-174d32a8e773","","null","
                    <div class=""stimulus-container"">
                        <img src=""images/causal_sequence/saving_a_cat_causal/saving_a_cat_causal_4.png"" class=""exp-image"">
                        <div class=""question-area""></div> 
                    </div>","null","","","","","","",""
"","","","","","html-button-response","118","389369","0.0-118.0","57C912FC551B4394ABCF0CDA2F381112","019ce7aa-1228-76c3-a3e8-3939bd4512f9","019ce7a0-0965-7aa7-a556-174d32a8e773","","702","
                    <div class=""stimulus-container"">
                        <img src=""images/causal_sequence/saving_a_cat_causal/saving_a_cat_causal_4.png"" class=""exp-image"">
                        <div class=""question-area"">
                            <p style=""font-size: 20px; font-weight: bold; margin: 0;"">Is there a person in this image?</p>
                        </div>
                    </div>","0","main_causal_task","4","saving_a_cat_causal","","","",""
"","","","","","html-keyboard-response","119","394384","0.0-119.0","57C912FC551B4394ABCF0CDA2F381112","019ce7aa-1228-76c3-a3e8-3939bd4512f9","019ce7a0-0965-7aa7-a556-174d32a8e773","","null","
                    <div class=""stimulus-container"">
                        <img src=""images/causal_sequence/saving_a_cat_causal/saving_a_cat_causal_5.png"" class=""exp-image"">
                        <div class=""question-area""></div> 
                    </div>","null","","","","","","",""
"","","","","","html-button-response","120","395169","0.0-120.0","57C912FC551B4394ABCF0CDA2F381112","019ce7aa-1228-76c3-a3e8-3939bd4512f9","019ce7a0-0965-7aa7-a556-174d32a8e773","","784","
                    <div class=""stimulus-container"">
                        <img src=""images/causal_sequence/saving_a_cat_causal/saving_a_cat_causal_5.png"" class=""exp-image"">
                        <div class=""question-area"">
                            <p style=""font-size: 20px; font-weight: bold; margin: 0;"">Is there a person in this image?</p>
                        </div>
                    </div>","0","main_causal_task","5","saving_a_cat_causal","","","",""
"","","","","","html-keyboard-response","121","400177","0.0-121.0","57C912FC551B4394ABCF0CDA2F381112","019ce7aa-1228-76c3-a3e8-3939bd4512f9","019ce7a0-0965-7aa7-a556-174d32a8e773","","null","
                    <div class=""stimulus-container"">
                        <img src=""images/causal_sequence/saving_a_cat_causal/saving_a_cat_causal_6.png"" class=""exp-image"">
                        <div class=""question-area""></div> 
                    </div>","null","","","","","","",""
"","","","","","html-button-response","122","401237","0.0-122.0","57C912FC551B4394ABCF0CDA2F381112","019ce7aa-1228-76c3-a3e8-3939bd4512f9","019ce7a0-0965-7aa7-a556-174d32a8e773","","1059","
                    <div class=""stimulus-container"">
                        <img src=""images/causal_sequence/saving_a_cat_causal/saving_a_cat_causal_6.png"" class=""exp-image"">
                        <div class=""question-area"">
                            <p style=""font-size: 20px; font-weight: bold; margin: 0;"">Is there a person in this image?</p>
                        </div>
                    </div>","0","main_causal_task","6","saving_a_cat_causal","","","",""
"","","","","","html-keyboard-response","123","406247","0.0-123.0","57C912FC551B4394ABCF0CDA2F381112","019ce7aa-1228-76c3-a3e8-3939bd4512f9","019ce7a0-0965-7aa7-a556-174d32a8e773","","null","
                    <div class=""stimulus-container"">
                        <img src=""images/causal_sequence/saving_a_cat_causal/saving_a_cat_causal_7.png"" class=""exp-image"">
                        <div class=""question-area""></div> 
                    </div>","null","","","","","","",""
"","","","","","html-button-response","124","407072","0.0-124.0","57C912FC551B4394ABCF0CDA2F381112","019ce7aa-1228-76c3-a3e8-3939bd4512f9","019ce7a0-0965-7aa7-a556-174d32a8e773","","823","
                    <div class=""stimulus-container"">
                        <img src=""images/causal_sequence/saving_a_cat_causal/saving_a_cat_causal_7.png"" class=""exp-image"">
                        <div class=""question-area"">
                            <p style=""font-size: 20px; font-weight: bold; margin: 0;"">Is there a person in this image?</p>
                        </div>
                    </div>","0","main_causal_task","7","saving_a_cat_causal","","","",""
"","","","","","html-keyboard-response","125","412087","0.0-125.0","57C912FC551B4394ABCF0CDA2F381112","019ce7aa-1228-76c3-a3e8-3939bd4512f9","019ce7a0-0965-7aa7-a556-174d32a8e773","","null","
                    <div class=""stimulus-container"">
                        <img src=""images/causal_sequence/saving_a_cat_causal/saving_a_cat_causal_8.png"" class=""exp-image"">
                        <div class=""question-area""></div> 
                    </div>","null","","","","","","",""
"","","","","","html-button-response","126","413228","0.0-126.0","57C912FC551B4394ABCF0CDA2F381112","019ce7aa-1228-76c3-a3e8-3939bd4512f9","019ce7a0-0965-7aa7-a556-174d32a8e773","","1139","
                    <div class=""stimulus-container"">
                        <img src=""images/causal_sequence/saving_a_cat_causal/saving_a_cat_causal_8.png"" class=""exp-image"">
                        <div class=""question-area"">
                            <p style=""font-size: 20px; font-weight: bold; margin: 0;"">Is there a person in this image?</p>
                        </div>
                    </div>","0","main_causal_task","8","saving_a_cat_causal","","","",""
"","","","","","html-keyboard-response","127","418232","0.0-127.0","57C912FC551B4394ABCF0CDA2F381112","019ce7aa-1228-76c3-a3e8-3939bd4512f9","019ce7a0-0965-7aa7-a556-174d32a8e773","","null","
                    <div class=""stimulus-container"">
                        <img src=""images/causal_sequence/saving_a_cat_causal/saving_a_cat_causal_9.png"" class=""exp-image"">
                        <div class=""question-area""></div> 
                    </div>","null","","","","","","",""
"","","","","","html-button-response","128","418969","0.0-128.0","57C912FC551B4394ABCF0CDA2F381112","019ce7aa-1228-76c3-a3e8-3939bd4512f9","019ce7a0-0965-7aa7-a556-174d32a8e773","","734","
                    <div class=""stimulus-container"">
                        <img src=""images/causal_sequence/saving_a_cat_causal/saving_a_cat_causal_9.png"" class=""exp-image"">
                        <div class=""question-area"">
                            <p style=""font-size: 20px; font-weight: bold; margin: 0;"">Is there a person in this image?</p>
                        </div>
                    </div>","0","main_causal_task","9","saving_a_cat_causal","","","",""
"","","","","","instructions","129","421385","0.0-129.0","57C912FC551B4394ABCF0CDA2F381112","019ce7aa-1228-76c3-a3e8-3939bd4512f9","019ce7a0-0965-7aa7-a556-174d32a8e773","[{""page_index"":0,""viewing_time"":2415}]","2415","","","","","","","","",""
"","","","","","instructions","130","429230","0.0-130.0","57C912FC551B4394ABCF0CDA2F381112","019ce7aa-1228-76c3-a3e8-3939bd4512f9","019ce7a0-0965-7aa7-a556-174d32a8e773","[{""page_index"":0,""viewing_time"":7844}]","7845","","","","","","","","",""
"","","","","","html-keyboard-response","131","430242","0.0-131.0","57C912FC551B4394ABCF0CDA2F381112","019ce7aa-1228-76c3-a3e8-3939bd4512f9","019ce7a0-0965-7aa7-a556-174d32a8e773","","null","
        <div class=""stimulus-container"" style=""display: flex; align-items: center; justify-content: center; gap: 30px;"">
            <img src=""images/instructions/movie_1.png"" class=""exp-image"">
            <div style=""font-size: 40px; font-weight: bold; color: green; border: 5px solid green; padding: 25px; border-radius: 15px; background-color: #f0fff0;"">
                WORTH<br>$1
            </div>
        </div>
        <div class=""question-area""></div>","null","","","","","","",""
"","","","","","html-button-response","132","431678","0.0-132.0","57C912FC551B4394ABCF0CDA2F381112","019ce7aa-1228-76c3-a3e8-3939bd4512f9","019ce7a0-0965-7aa7-a556-174d32a8e773","","1427","
        <div class=""stimulus-container"" style=""display: flex; align-items: center; justify-content: center; gap: 30px;"">
            <img src=""images/instructions/movie_1.png"" class=""exp-image"">
            <div style=""font-size: 40px; font-weight: bold; color: green; border: 5px solid green; padding: 25px; border-radius: 15px; background-color: #f0fff0;"">
                WORTH<br>$1
            </div>
        </div>
        <div class=""question-area"">
            <p style=""font-size: 20px; font-weight: bold; margin: 0;"">Was there a person in this image?</p>
        </div>","0","","","","","","",""
"","","","","","instructions","133","435311","0.0-133.0","57C912FC551B4394ABCF0CDA2F381112","019ce7aa-1228-76c3-a3e8-3939bd4512f9","019ce7a0-0965-7aa7-a556-174d32a8e773","[{""page_index"":0,""viewing_time"":3632}]","3633","","","","","","","","",""
"","","","","","html-keyboard-response","134","445319","0.0-134.0","57C912FC551B4394ABCF0CDA2F381112","019ce7aa-1228-76c3-a3e8-3939bd4512f9","019ce7a0-0965-7aa7-a556-174d32a8e773","","null","
            <div class=""stimulus-container"" style=""display: flex; align-items: center; justify-content: center; gap: 30px;"">
                <img src=""images/causal_sequence/museum_causal/museum_causal_7.png"" class=""exp-image"">
                <div style=""font-size: 40px; font-weight: bold; color: green; border: 5px solid green; padding: 25px; border-radius: 15px; background-color: #f0fff0;"">
                    WORTH<br>$1
                </div>
            </div>
            <div class=""question-area""></div>","null","","","","","","",""
"","","","","","html-button-response","135","447197","0.0-135.0","57C912FC551B4394ABCF0CDA2F381112","019ce7aa-1228-76c3-a3e8-3939bd4512f9","019ce7a0-0965-7aa7-a556-174d32a8e773","","1875","
            <div class=""stimulus-container"" style=""display: flex; align-items: center; justify-content: center; gap: 30px;"">
                <img src=""images/causal_sequence/museum_causal/museum_causal_7.png"" class=""exp-image"">
                <div style=""font-size: 40px; font-weight: bold; color: green; border: 5px solid green; padding: 25px; border-radius: 15px; background-color: #f0fff0;"">
                    WORTH<br>$1
                </div>
            </div>
            <div class=""question-area"">
                <p style=""font-size: 20px; font-weight: bold; margin: 0;"">Was there a person in this image?</p>
            </div>","1","part2_value_learning","","museum_causal","7","","",""
"","","","","","html-keyboard-response","136","457205","0.0-136.0","57C912FC551B4394ABCF0CDA2F381112","019ce7aa-1228-76c3-a3e8-3939bd4512f9","019ce7a0-0965-7aa7-a556-174d32a8e773","","null","
            <div class=""stimulus-container"" style=""display: flex; align-items: center; justify-content: center; gap: 30px;"">
                <img src=""images/causal_sequence/the_performance_causal/the_performance_causal_3.png"" class=""exp-image"">
                <div style=""font-size: 40px; font-weight: bold; color: green; border: 5px solid green; padding: 25px; border-radius: 15px; background-color: #f0fff0;"">
                    WORTH<br>$1
                </div>
            </div>
            <div class=""question-area""></div>","null","","","","","","",""
"","","","","","html-button-response","137","459345","0.0-137.0","57C912FC551B4394ABCF0CDA2F381112","019ce7aa-1228-76c3-a3e8-3939bd4512f9","019ce7a0-0965-7aa7-a556-174d32a8e773","","2137","
            <div class=""stimulus-container"" style=""display: flex; align-items: center; justify-content: center; gap: 30px;"">
                <img src=""images/causal_sequence/the_performance_causal/the_performance_causal_3.png"" class=""exp-image"">
                <div style=""font-size: 40px; font-weight: bold; color: green; border: 5px solid green; padding: 25px; border-radius: 15px; background-color: #f0fff0;"">
                    WORTH<br>$1
                </div>
            </div>
            <div class=""question-area"">
                <p style=""font-size: 20px; font-weight: bold; margin: 0;"">Was there a person in this image?</p>
            </div>","0","part2_value_learning","","the_performance_causal","3","","",""
"","","","","","html-keyboard-response","138","469352","0.0-138.0","57C912FC551B4394ABCF0CDA2F381112","019ce7aa-1228-76c3-a3e8-3939bd4512f9","019ce7a0-0965-7aa7-a556-174d32a8e773","","null","
            <div class=""stimulus-container"" style=""display: flex; align-items: center; justify-content: center; gap: 30px;"">
                <img src=""images/causal_sequence/dog_causal/dog_causal_3.png"" class=""exp-image"">
                <div style=""font-size: 40px; font-weight: bold; color: green; border: 5px solid green; padding: 25px; border-radius: 15px; background-color: #f0fff0;"">
                    WORTH<br>$1
                </div>
            </div>
            <div class=""question-area""></div>","null","","","","","","",""
"","","","","","html-button-response","139","470991","0.0-139.0","57C912FC551B4394ABCF0CDA2F381112","019ce7aa-1228-76c3-a3e8-3939bd4512f9","019ce7a0-0965-7aa7-a556-174d32a8e773","","1636","
            <div class=""stimulus-container"" style=""display: flex; align-items: center; justify-content: center; gap: 30px;"">
                <img src=""images/causal_sequence/dog_causal/dog_causal_3.png"" class=""exp-image"">
                <div style=""font-size: 40px; font-weight: bold; color: green; border: 5px solid green; padding: 25px; border-radius: 15px; background-color: #f0fff0;"">
                    WORTH<br>$1
                </div>
            </div>
            <div class=""question-area"">
                <p style=""font-size: 20px; font-weight: bold; margin: 0;"">Was there a person in this image?</p>
            </div>","0","part2_value_learning","","dog_causal","3","","",""
"","","","","","html-keyboard-response","140","481004","0.0-140.0","57C912FC551B4394ABCF0CDA2F381112","019ce7aa-1228-76c3-a3e8-3939bd4512f9","019ce7a0-0965-7aa7-a556-174d32a8e773","","null","
            <div class=""stimulus-container"" style=""display: flex; align-items: center; justify-content: center; gap: 30px;"">
                <img src=""images/causal_sequence/saving_a_cat_causal/saving_a_cat_causal_6.png"" class=""exp-image"">
                <div style=""font-size: 40px; font-weight: bold; color: green; border: 5px solid green; padding: 25px; border-radius: 15px; background-color: #f0fff0;"">
                    WORTH<br>$1
                </div>
            </div>
            <div class=""question-area""></div>","null","","","","","","",""
"","","","","","html-button-response","141","482224","0.0-141.0","57C912FC551B4394ABCF0CDA2F381112","019ce7aa-1228-76c3-a3e8-3939bd4512f9","019ce7a0-0965-7aa7-a556-174d32a8e773","","1218","
            <div class=""stimulus-container"" style=""display: flex; align-items: center; justify-content: center; gap: 30px;"">
                <img src=""images/causal_sequence/saving_a_cat_causal/saving_a_cat_causal_6.png"" class=""exp-image"">
                <div style=""font-size: 40px; font-weight: bold; color: green; border: 5px solid green; padding: 25px; border-radius: 15px; background-color: #f0fff0;"">
                    WORTH<br>$1
                </div>
            </div>
            <div class=""question-area"">
                <p style=""font-size: 20px; font-weight: bold; margin: 0;"">Was there a person in this image?</p>
            </div>","0","part2_value_learning","","saving_a_cat_causal","6","","",""
"","","","","","html-keyboard-response","142","492232","0.0-142.0","57C912FC551B4394ABCF0CDA2F381112","019ce7aa-1228-76c3-a3e8-3939bd4512f9","019ce7a0-0965-7aa7-a556-174d32a8e773","","null","
            <div class=""stimulus-container"" style=""display: flex; align-items: center; justify-content: center; gap: 30px;"">
                <img src=""images/causal_sequence/package_causal/package_causal_3.png"" class=""exp-image"">
                <div style=""font-size: 40px; font-weight: bold; color: green; border: 5px solid green; padding: 25px; border-radius: 15px; background-color: #f0fff0;"">
                    WORTH<br>$1
                </div>
            </div>
            <div class=""question-area""></div>","null","","","","","","",""
"","","","","","html-button-response","143","493537","0.0-143.0","57C912FC551B4394ABCF0CDA2F381112","019ce7aa-1228-76c3-a3e8-3939bd4512f9","019ce7a0-0965-7aa7-a556-174d32a8e773","","1303","
            <div class=""stimulus-container"" style=""display: flex; align-items: center; justify-content: center; gap: 30px;"">
                <img src=""images/causal_sequence/package_causal/package_causal_3.png"" class=""exp-image"">
                <div style=""font-size: 40px; font-weight: bold; color: green; border: 5px solid green; padding: 25px; border-radius: 15px; background-color: #f0fff0;"">
                    WORTH<br>$1
                </div>
            </div>
            <div class=""question-area"">
                <p style=""font-size: 20px; font-weight: bold; margin: 0;"">Was there a person in this image?</p>
            </div>","0","part2_value_learning","","package_causal","3","","",""
"","","","","","html-keyboard-response","144","503545","0.0-144.0","57C912FC551B4394ABCF0CDA2F381112","019ce7aa-1228-76c3-a3e8-3939bd4512f9","019ce7a0-0965-7aa7-a556-174d32a8e773","","null","
            <div class=""stimulus-container"" style=""display: flex; align-items: center; justify-content: center; gap: 30px;"">
                <img src=""images/causal_sequence/coin_causal/coin_causal_4.png"" class=""exp-image"">
                <div style=""font-size: 40px; font-weight: bold; color: green; border: 5px solid green; padding: 25px; border-radius: 15px; background-color: #f0fff0;"">
                    WORTH<br>$1
                </div>
            </div>
            <div class=""question-area""></div>","null","","","","","","",""
"","","","","","html-button-response","145","504760","0.0-145.0","57C912FC551B4394ABCF0CDA2F381112","019ce7aa-1228-76c3-a3e8-3939bd4512f9","019ce7a0-0965-7aa7-a556-174d32a8e773","","1213","
            <div class=""stimulus-container"" style=""display: flex; align-items: center; justify-content: center; gap: 30px;"">
                <img src=""images/causal_sequence/coin_causal/coin_causal_4.png"" class=""exp-image"">
                <div style=""font-size: 40px; font-weight: bold; color: green; border: 5px solid green; padding: 25px; border-radius: 15px; background-color: #f0fff0;"">
                    WORTH<br>$1
                </div>
            </div>
            <div class=""question-area"">
                <p style=""font-size: 20px; font-weight: bold; margin: 0;"">Was there a person in this image?</p>
            </div>","0","part2_value_learning","","coin_causal","4","","",""
"","","","","","instructions","146","506662","0.0-146.0","57C912FC551B4394ABCF0CDA2F381112","019ce7aa-1228-76c3-a3e8-3939bd4512f9","019ce7a0-0965-7aa7-a556-174d32a8e773","[{""page_index"":0,""viewing_time"":1901}]","1901","","","","","","","","",""
"","","","","","instructions","147","508769","0.0-147.0","57C912FC551B4394ABCF0CDA2F381112","019ce7aa-1228-76c3-a3e8-3939bd4512f9","019ce7a0-0965-7aa7-a556-174d32a8e773","[{""page_index"":0,""viewing_time"":2105}]","2106","","","","","","","","",""
"","","","","","html-keyboard-response","148","518789","0.0-148.0-0.0","57C912FC551B4394ABCF0CDA2F381112","019ce7aa-1228-76c3-a3e8-3939bd4512f9","019ce7a0-0965-7aa7-a556-174d32a8e773","","null","
                        <div style=""font-family: Arial; margin-bottom: 20px;""><h3>Which image is more valuable?</h3></div>
                        <div class=""stimulus-container"" style=""display: flex; width: 1100px; justify-content: center; gap: 50px;"">
                            <img src=""images/causal_sequence/coin_causal/coin_causal_6.png"" class=""exp-image"">
                            <img src=""images/causal_sequence/coin_causal/coin_causal_2.png"" class=""exp-image"">
                        </div>","null","","","","","","",""
"","","","","","html-button-response","149","520565","0.0-148.0-1.0","57C912FC551B4394ABCF0CDA2F381112","019ce7aa-1228-76c3-a3e8-3939bd4512f9","019ce7a0-0965-7aa7-a556-174d32a8e773","","1774","
                        <div style=""font-family: Arial; margin-bottom: 20px;""><h3>Which image is more valuable?</h3></div>
                        <div class=""stimulus-container"" style=""display: flex; width: 1100px; justify-content: center; gap: 50px;"">
                            <img src=""images/causal_sequence/coin_causal/coin_causal_6.png"" class=""exp-image"">
                            <img src=""images/causal_sequence/coin_causal/coin_causal_2.png"" class=""exp-image"">
                        </div>","1","part3_final_choice","","coin_causal","","4","2","-2"
"","","","","","html-keyboard-response","150","530586","0.0-149.0-0.0","57C912FC551B4394ABCF0CDA2F381112","019ce7aa-1228-76c3-a3e8-3939bd4512f9","019ce7a0-0965-7aa7-a556-174d32a8e773","","null","
                        <div style=""font-family: Arial; margin-bottom: 20px;""><h3>Which image is more valuable?</h3></div>
                        <div class=""stimulus-container"" style=""display: flex; width: 1100px; justify-content: center; gap: 50px;"">
                            <img src=""images/causal_sequence/the_performance_causal/the_performance_causal_1.png"" class=""exp-image"">
                            <img src=""images/causal_sequence/the_performance_causal/the_performance_causal_5.png"" class=""exp-image"">
                        </div>","null","","","","","","",""
"","","","","","html-button-response","151","532497","0.0-149.0-1.0","57C912FC551B4394ABCF0CDA2F381112","019ce7aa-1228-76c3-a3e8-3939bd4512f9","019ce7a0-0965-7aa7-a556-174d32a8e773","","1908","
                        <div style=""font-family: Arial; margin-bottom: 20px;""><h3>Which image is more valuable?</h3></div>
                        <div class=""stimulus-container"" style=""display: flex; width: 1100px; justify-content: center; gap: 50px;"">
                            <img src=""images/causal_sequence/the_performance_causal/the_performance_causal_1.png"" class=""exp-image"">
                            <img src=""images/causal_sequence/the_performance_causal/the_performance_causal_5.png"" class=""exp-image"">
                        </div>","1","part3_final_choice","","the_performance_causal","","3","5","2"
"","","","","","html-keyboard-response","152","542504","0.0-150.0-0.0","57C912FC551B4394ABCF0CDA2F381112","019ce7aa-1228-76c3-a3e8-3939bd4512f9","019ce7a0-0965-7aa7-a556-174d32a8e773","","null","
                        <div style=""font-family: Arial; margin-bottom: 20px;""><h3>Which image is more valuable?</h3></div>
                        <div class=""stimulus-container"" style=""display: flex; width: 1100px; justify-content: center; gap: 50px;"">
                            <img src=""images/causal_sequence/package_causal/package_causal_1.png"" class=""exp-image"">
                            <img src=""images/causal_sequence/package_causal/package_causal_5.png"" class=""exp-image"">
                        </div>","null","","","","","","",""
"","","","","","html-button-response","153","543811","0.0-150.0-1.0","57C912FC551B4394ABCF0CDA2F381112","019ce7aa-1228-76c3-a3e8-3939bd4512f9","019ce7a0-0965-7aa7-a556-174d32a8e773","","1304","
                        <div style=""font-family: Arial; margin-bottom: 20px;""><h3>Which image is more valuable?</h3></div>
                        <div class=""stimulus-container"" style=""display: flex; width: 1100px; justify-content: center; gap: 50px;"">
                            <img src=""images/causal_sequence/package_causal/package_causal_1.png"" class=""exp-image"">
                            <img src=""images/causal_sequence/package_causal/package_causal_5.png"" class=""exp-image"">
                        </div>","1","part3_final_choice","","package_causal","","3","5","2"
"","","","","","html-keyboard-response","154","553815","0.0-151.0-0.0","57C912FC551B4394ABCF0CDA2F381112","019ce7aa-1228-76c3-a3e8-3939bd4512f9","019ce7a0-0965-7aa7-a556-174d32a8e773","","null","
                        <div style=""font-family: Arial; margin-bottom: 20px;""><h3>Which image is more valuable?</h3></div>
                        <div class=""stimulus-container"" style=""display: flex; width: 1100px; justify-content: center; gap: 50px;"">
                            <img src=""images/causal_sequence/dog_causal/dog_causal_1.png"" class=""exp-image"">
                            <img src=""images/causal_sequence/dog_causal/dog_causal_5.png"" class=""exp-image"">
                        </div>","null","","","","","","",""
"","","","","","html-button-response","155","558141","0.0-151.0-1.0","57C912FC551B4394ABCF0CDA2F381112","019ce7aa-1228-76c3-a3e8-3939bd4512f9","019ce7a0-0965-7aa7-a556-174d32a8e773","","4323","
                        <div style=""font-family: Arial; margin-bottom: 20px;""><h3>Which image is more valuable?</h3></div>
                        <div class=""stimulus-container"" style=""display: flex; width: 1100px; justify-content: center; gap: 50px;"">
                            <img src=""images/causal_sequence/dog_causal/dog_causal_1.png"" class=""exp-image"">
                            <img src=""images/causal_sequence/dog_causal/dog_causal_5.png"" class=""exp-image"">
                        </div>","0","part3_final_choice","","dog_causal","","3","1","-2"
"","","","","","html-keyboard-response","156","568156","0.0-152.0-0.0","57C912FC551B4394ABCF0CDA2F381112","019ce7aa-1228-76c3-a3e8-3939bd4512f9","019ce7a0-0965-7aa7-a556-174d32a8e773","","null","
                        <div style=""font-family: Arial; margin-bottom: 20px;""><h3>Which image is more valuable?</h3></div>
                        <div class=""stimulus-container"" style=""display: flex; width: 1100px; justify-content: center; gap: 50px;"">
                            <img src=""images/causal_sequence/museum_causal/museum_causal_9.png"" class=""exp-image"">
                            <img src=""images/causal_sequence/museum_causal/museum_causal_5.png"" class=""exp-image"">
                        </div>","null","","","","","","",""
"","","","","","html-button-response","157","568906","0.0-152.0-1.0","57C912FC551B4394ABCF0CDA2F381112","019ce7aa-1228-76c3-a3e8-3939bd4512f9","019ce7a0-0965-7aa7-a556-174d32a8e773","","747","
                        <div style=""font-family: Arial; margin-bottom: 20px;""><h3>Which image is more valuable?</h3></div>
                        <div class=""stimulus-container"" style=""display: flex; width: 1100px; justify-content: center; gap: 50px;"">
                            <img src=""images/causal_sequence/museum_causal/museum_causal_9.png"" class=""exp-image"">
                            <img src=""images/causal_sequence/museum_causal/museum_causal_5.png"" class=""exp-image"">
                        </div>","1","part3_final_choice","","museum_causal","","7","5","-2"
"","","","","","html-keyboard-response","158","578924","0.0-153.0-0.0","57C912FC551B4394ABCF0CDA2F381112","019ce7aa-1228-76c3-a3e8-3939bd4512f9","019ce7a0-0965-7aa7-a556-174d32a8e773","","null","
                        <div style=""font-family: Arial; margin-bottom: 20px;""><h3>Which image is more valuable?</h3></div>
                        <div class=""stimulus-container"" style=""display: flex; width: 1100px; justify-content: center; gap: 50px;"">
                            <img src=""images/causal_sequence/saving_a_cat_causal/saving_a_cat_causal_8.png"" class=""exp-image"">
                            <img src=""images/causal_sequence/saving_a_cat_causal/saving_a_cat_causal_4.png"" class=""exp-image"">
                        </div>","null","","","","","","",""
"","","","","","html-button-response","159","580037","0.0-153.0-1.0","57C912FC551B4394ABCF0CDA2F381112","019ce7aa-1228-76c3-a3e8-3939bd4512f9","019ce7a0-0965-7aa7-a556-174d32a8e773","","1110","
                        <div style=""font-family: Arial; margin-bottom: 20px;""><h3>Which image is more valuable?</h3></div>
                        <div class=""stimulus-container"" style=""display: flex; width: 1100px; justify-content: center; gap: 50px;"">
                            <img src=""images/causal_sequence/saving_a_cat_causal/saving_a_cat_causal_8.png"" class=""exp-image"">
                            <img src=""images/causal_sequence/saving_a_cat_causal/saving_a_cat_causal_4.png"" class=""exp-image"">
                        </div>","0","part3_final_choice","","saving_a_cat_causal","","6","8","2"
"","","","","","survey-text","160","642709","0.0-154.0","57C912FC551B4394ABCF0CDA2F381112","019ce7aa-1228-76c3-a3e8-3939bd4512f9","019ce7a0-0965-7aa7-a556-174d32a8e773","","62611","","{""gender"":""female"",""age"":""22"",""decision_strategy"":""I decided based on what held higher moral character and empowering."",""consistency_check"":""Reasoning changed between different sets based on the idea of the image.""}","demographics_and_strategy","","","","","",""
"","","","","","instructions","161","649925","0.0-155.0","57C912FC551B4394ABCF0CDA2F381112","019ce7aa-1228-76c3-a3e8-3939bd4512f9","019ce7a0-0965-7aa7-a556-174d32a8e773","[{""page_index"":0,""viewing_time"":7210}]","7216","","","","","","","","",""
