"success","timeout","failed_images","failed_audio","failed_video","trial_type","trial_index","time_elapsed","internal_node_id","subject_id","study_id","session_id","view_history","rt","stimulus","response","task","image_index","folder","valuable_image_index","valuable_X","chosen_image_index","distance_from_X"
"false","false","[]","[]","[]","preload","0","4189","0.0-0.0","B727FF0B207D4626BEFDCD7252B28773","019ce667-771e-740f-ba05-e0918766ef4a","019ce643-47c6-74a0-b3d2-7bf5651ded46","","","","","","","","","","",""
"","","","","","instructions","1","6589","0.0-1.0","B727FF0B207D4626BEFDCD7252B28773","019ce667-771e-740f-ba05-e0918766ef4a","019ce643-47c6-74a0-b3d2-7bf5651ded46","[{""page_index"":0,""viewing_time"":2399}]","2400","","","","","","","","",""
"","","","","","instructions","2","141763","0.0-2.0","B727FF0B207D4626BEFDCD7252B28773","019ce667-771e-740f-ba05-e0918766ef4a","019ce643-47c6-74a0-b3d2-7bf5651ded46","[{""page_index"":0,""viewing_time"":135172}]","135172","","","","","","","","",""
"true","","","","","fullscreen","3","144232","0.0-3.0","B727FF0B207D4626BEFDCD7252B28773","019ce667-771e-740f-ba05-e0918766ef4a","019ce643-47c6-74a0-b3d2-7bf5651ded46","","1466","","","","","","","","",""
"","","","","","instructions","4","199054","0.0-4.0","B727FF0B207D4626BEFDCD7252B28773","019ce667-771e-740f-ba05-e0918766ef4a","019ce643-47c6-74a0-b3d2-7bf5651ded46","[{""page_index"":0,""viewing_time"":54820}]","54820","","","","","","","","",""
"","","","","","instructions","5","205614","0.0-5.0","B727FF0B207D4626BEFDCD7252B28773","019ce667-771e-740f-ba05-e0918766ef4a","019ce643-47c6-74a0-b3d2-7bf5651ded46","[{""page_index"":0,""viewing_time"":6559}]","6560","","","","","","","","",""
"","","","","","html-keyboard-response","6","209618","0.0-6.0","B727FF0B207D4626BEFDCD7252B28773","019ce667-771e-740f-ba05-e0918766ef4a","019ce643-47c6-74a0-b3d2-7bf5651ded46","","null","
                <div class=""stimulus-container"">
                    <img src=""images/instructions/movie_1.png"" class=""exp-image"">
                    <div class=""question-area""></div> 
                </div>","null","","","","","","",""
"","","","","","html-button-response","7","212623","0.0-7.0","B727FF0B207D4626BEFDCD7252B28773","019ce667-771e-740f-ba05-e0918766ef4a","019ce643-47c6-74a0-b3d2-7bf5651ded46","","null","
                <div class=""stimulus-container"">
                    <img src=""images/instructions/movie_1.png"" class=""exp-image"">
                    <div class=""question-area"">
                        <p style=""font-size: 20px; font-weight: bold; margin: 0;"">Was there a person in this image?</p>
                    </div>
                </div>","null","example_question","1","","","","",""
"","","","","","html-keyboard-response","8","216627","0.0-8.0","B727FF0B207D4626BEFDCD7252B28773","019ce667-771e-740f-ba05-e0918766ef4a","019ce643-47c6-74a0-b3d2-7bf5651ded46","","null","
                <div class=""stimulus-container"">
                    <img src=""images/instructions/movie_2.png"" class=""exp-image"">
                    <div class=""question-area""></div> 
                </div>","null","","","","","","",""
"","","","","","html-button-response","9","218539","0.0-9.0","B727FF0B207D4626BEFDCD7252B28773","019ce667-771e-740f-ba05-e0918766ef4a","019ce643-47c6-74a0-b3d2-7bf5651ded46","","1909","
                <div class=""stimulus-container"">
                    <img src=""images/instructions/movie_2.png"" class=""exp-image"">
                    <div class=""question-area"">
                        <p style=""font-size: 20px; font-weight: bold; margin: 0;"">Was there a person in this image?</p>
                    </div>
                </div>","1","example_question","2","","","","",""
"","","","","","html-keyboard-response","10","222542","0.0-10.0","B727FF0B207D4626BEFDCD7252B28773","019ce667-771e-740f-ba05-e0918766ef4a","019ce643-47c6-74a0-b3d2-7bf5651ded46","","null","
                <div class=""stimulus-container"">
                    <img src=""images/instructions/movie_3.png"" class=""exp-image"">
                    <div class=""question-area""></div> 
                </div>","null","","","","","","",""
"","","","","","html-button-response","11","223879","0.0-11.0","B727FF0B207D4626BEFDCD7252B28773","019ce667-771e-740f-ba05-e0918766ef4a","019ce643-47c6-74a0-b3d2-7bf5651ded46","","1335","
                <div class=""stimulus-container"">
                    <img src=""images/instructions/movie_3.png"" class=""exp-image"">
                    <div class=""question-area"">
                        <p style=""font-size: 20px; font-weight: bold; margin: 0;"">Was there a person in this image?</p>
                    </div>
                </div>","0","example_question","3","","","","",""
"","","","","","html-keyboard-response","12","227883","0.0-12.0","B727FF0B207D4626BEFDCD7252B28773","019ce667-771e-740f-ba05-e0918766ef4a","019ce643-47c6-74a0-b3d2-7bf5651ded46","","null","
                <div class=""stimulus-container"">
                    <img src=""images/instructions/movie_4.png"" class=""exp-image"">
                    <div class=""question-area""></div> 
                </div>","null","","","","","","",""
"","","","","","html-button-response","13","229409","0.0-13.0","B727FF0B207D4626BEFDCD7252B28773","019ce667-771e-740f-ba05-e0918766ef4a","019ce643-47c6-74a0-b3d2-7bf5651ded46","","1524","
                <div class=""stimulus-container"">
                    <img src=""images/instructions/movie_4.png"" class=""exp-image"">
                    <div class=""question-area"">
                        <p style=""font-size: 20px; font-weight: bold; margin: 0;"">Was there a person in this image?</p>
                    </div>
                </div>","0","example_question","4","","","","",""
"","","","","","instructions","14","231033","0.0-14.0","B727FF0B207D4626BEFDCD7252B28773","019ce667-771e-740f-ba05-e0918766ef4a","019ce643-47c6-74a0-b3d2-7bf5651ded46","[{""page_index"":0,""viewing_time"":1622}]","1623","","","","","","","","",""
"","","","","","html-keyboard-response","15","232035","0.0-15.0","B727FF0B207D4626BEFDCD7252B28773","019ce667-771e-740f-ba05-e0918766ef4a","019ce643-47c6-74a0-b3d2-7bf5651ded46","","null","<div style=""background-color: gray; width: 100vw; height: 100vh;""></div>","null","","","","","","",""
"","","","","","html-keyboard-response","16","237039","0.0-16.0","B727FF0B207D4626BEFDCD7252B28773","019ce667-771e-740f-ba05-e0918766ef4a","019ce643-47c6-74a0-b3d2-7bf5651ded46","","null","
                    <div class=""stimulus-container"">
                        <img src=""images/causal_sequence/the_performance_causal/the_performance_causal_1.png"" class=""exp-image"">
                        <div class=""question-area""></div> 
                    </div>","null","","","","","","",""
"","","","","","html-button-response","17","238326","0.0-17.0","B727FF0B207D4626BEFDCD7252B28773","019ce667-771e-740f-ba05-e0918766ef4a","019ce643-47c6-74a0-b3d2-7bf5651ded46","","1284","
                    <div class=""stimulus-container"">
                        <img src=""images/causal_sequence/the_performance_causal/the_performance_causal_1.png"" class=""exp-image"">
                        <div class=""question-area"">
                            <p style=""font-size: 20px; font-weight: bold; margin: 0;"">Is there a person in this image?</p>
                        </div>
                    </div>","0","main_causal_task","1","the_performance_causal","","","",""
"","","","","","html-keyboard-response","18","243329","0.0-18.0","B727FF0B207D4626BEFDCD7252B28773","019ce667-771e-740f-ba05-e0918766ef4a","019ce643-47c6-74a0-b3d2-7bf5651ded46","","null","
                    <div class=""stimulus-container"">
                        <img src=""images/causal_sequence/the_performance_causal/the_performance_causal_2.png"" class=""exp-image"">
                        <div class=""question-area""></div> 
                    </div>","null","","","","","","",""
"","","","","","html-button-response","19","244115","0.0-19.0","B727FF0B207D4626BEFDCD7252B28773","019ce667-771e-740f-ba05-e0918766ef4a","019ce643-47c6-74a0-b3d2-7bf5651ded46","","785","
                    <div class=""stimulus-container"">
                        <img src=""images/causal_sequence/the_performance_causal/the_performance_causal_2.png"" class=""exp-image"">
                        <div class=""question-area"">
                            <p style=""font-size: 20px; font-weight: bold; margin: 0;"">Is there a person in this image?</p>
                        </div>
                    </div>","0","main_causal_task","2","the_performance_causal","","","",""
"","","","","","html-keyboard-response","20","249118","0.0-20.0","B727FF0B207D4626BEFDCD7252B28773","019ce667-771e-740f-ba05-e0918766ef4a","019ce643-47c6-74a0-b3d2-7bf5651ded46","","null","
                    <div class=""stimulus-container"">
                        <img src=""images/causal_sequence/the_performance_causal/the_performance_causal_3.png"" class=""exp-image"">
                        <div class=""question-area""></div> 
                    </div>","null","","","","","","",""
"","","","","","html-button-response","21","250641","0.0-21.0","B727FF0B207D4626BEFDCD7252B28773","019ce667-771e-740f-ba05-e0918766ef4a","019ce643-47c6-74a0-b3d2-7bf5651ded46","","1521","
                    <div class=""stimulus-container"">
                        <img src=""images/causal_sequence/the_performance_causal/the_performance_causal_3.png"" class=""exp-image"">
                        <div class=""question-area"">
                            <p style=""font-size: 20px; font-weight: bold; margin: 0;"">Is there a person in this image?</p>
                        </div>
                    </div>","0","main_causal_task","3","the_performance_causal","","","",""
"","","","","","html-keyboard-response","22","255645","0.0-22.0","B727FF0B207D4626BEFDCD7252B28773","019ce667-771e-740f-ba05-e0918766ef4a","019ce643-47c6-74a0-b3d2-7bf5651ded46","","null","
                    <div class=""stimulus-container"">
                        <img src=""images/causal_sequence/the_performance_causal/the_performance_causal_4.png"" class=""exp-image"">
                        <div class=""question-area""></div> 
                    </div>","null","","","","","","",""
"","","","","","html-button-response","23","257683","0.0-23.0","B727FF0B207D4626BEFDCD7252B28773","019ce667-771e-740f-ba05-e0918766ef4a","019ce643-47c6-74a0-b3d2-7bf5651ded46","","2035","
                    <div class=""stimulus-container"">
                        <img src=""images/causal_sequence/the_performance_causal/the_performance_causal_4.png"" class=""exp-image"">
                        <div class=""question-area"">
                            <p style=""font-size: 20px; font-weight: bold; margin: 0;"">Is there a person in this image?</p>
                        </div>
                    </div>","0","main_causal_task","4","the_performance_causal","","","",""
"","","","","","html-keyboard-response","24","262686","0.0-24.0","B727FF0B207D4626BEFDCD7252B28773","019ce667-771e-740f-ba05-e0918766ef4a","019ce643-47c6-74a0-b3d2-7bf5651ded46","","null","
                    <div class=""stimulus-container"">
                        <img src=""images/causal_sequence/the_performance_causal/the_performance_causal_5.png"" class=""exp-image"">
                        <div class=""question-area""></div> 
                    </div>","null","","","","","","",""
"","","","","","html-button-response","25","265689","0.0-25.0","B727FF0B207D4626BEFDCD7252B28773","019ce667-771e-740f-ba05-e0918766ef4a","019ce643-47c6-74a0-b3d2-7bf5651ded46","","null","
                    <div class=""stimulus-container"">
                        <img src=""images/causal_sequence/the_performance_causal/the_performance_causal_5.png"" class=""exp-image"">
                        <div class=""question-area"">
                            <p style=""font-size: 20px; font-weight: bold; margin: 0;"">Is there a person in this image?</p>
                        </div>
                    </div>","null","main_causal_task","5","the_performance_causal","","","",""
"","","","","","html-keyboard-response","26","270693","0.0-26.0","B727FF0B207D4626BEFDCD7252B28773","019ce667-771e-740f-ba05-e0918766ef4a","019ce643-47c6-74a0-b3d2-7bf5651ded46","","null","
                    <div class=""stimulus-container"">
                        <img src=""images/causal_sequence/the_performance_causal/the_performance_causal_6.png"" class=""exp-image"">
                        <div class=""question-area""></div> 
                    </div>","null","","","","","","",""
"","","","","","html-button-response","27","272612","0.0-27.0","B727FF0B207D4626BEFDCD7252B28773","019ce667-771e-740f-ba05-e0918766ef4a","019ce643-47c6-74a0-b3d2-7bf5651ded46","","1917","
                    <div class=""stimulus-container"">
                        <img src=""images/causal_sequence/the_performance_causal/the_performance_causal_6.png"" class=""exp-image"">
                        <div class=""question-area"">
                            <p style=""font-size: 20px; font-weight: bold; margin: 0;"">Is there a person in this image?</p>
                        </div>
                    </div>","0","main_causal_task","6","the_performance_causal","","","",""
"","","","","","html-keyboard-response","28","277615","0.0-28.0","B727FF0B207D4626BEFDCD7252B28773","019ce667-771e-740f-ba05-e0918766ef4a","019ce643-47c6-74a0-b3d2-7bf5651ded46","","null","
                    <div class=""stimulus-container"">
                        <img src=""images/causal_sequence/the_performance_causal/the_performance_causal_7.png"" class=""exp-image"">
                        <div class=""question-area""></div> 
                    </div>","null","","","","","","",""
"","","","","","html-button-response","29","279449","0.0-29.0","B727FF0B207D4626BEFDCD7252B28773","019ce667-771e-740f-ba05-e0918766ef4a","019ce643-47c6-74a0-b3d2-7bf5651ded46","","1832","
                    <div class=""stimulus-container"">
                        <img src=""images/causal_sequence/the_performance_causal/the_performance_causal_7.png"" class=""exp-image"">
                        <div class=""question-area"">
                            <p style=""font-size: 20px; font-weight: bold; margin: 0;"">Is there a person in this image?</p>
                        </div>
                    </div>","0","main_causal_task","7","the_performance_causal","","","",""
"","","","","","html-keyboard-response","30","284453","0.0-30.0","B727FF0B207D4626BEFDCD7252B28773","019ce667-771e-740f-ba05-e0918766ef4a","019ce643-47c6-74a0-b3d2-7bf5651ded46","","null","
                    <div class=""stimulus-container"">
                        <img src=""images/causal_sequence/the_performance_causal/the_performance_causal_8.png"" class=""exp-image"">
                        <div class=""question-area""></div> 
                    </div>","null","","","","","","",""
"","","","","","html-button-response","31","285900","0.0-31.0","B727FF0B207D4626BEFDCD7252B28773","019ce667-771e-740f-ba05-e0918766ef4a","019ce643-47c6-74a0-b3d2-7bf5651ded46","","1445","
                    <div class=""stimulus-container"">
                        <img src=""images/causal_sequence/the_performance_causal/the_performance_causal_8.png"" class=""exp-image"">
                        <div class=""question-area"">
                            <p style=""font-size: 20px; font-weight: bold; margin: 0;"">Is there a person in this image?</p>
                        </div>
                    </div>","0","main_causal_task","8","the_performance_causal","","","",""
"","","","","","html-keyboard-response","32","290904","0.0-32.0","B727FF0B207D4626BEFDCD7252B28773","019ce667-771e-740f-ba05-e0918766ef4a","019ce643-47c6-74a0-b3d2-7bf5651ded46","","null","
                    <div class=""stimulus-container"">
                        <img src=""images/causal_sequence/the_performance_causal/the_performance_causal_9.png"" class=""exp-image"">
                        <div class=""question-area""></div> 
                    </div>","null","","","","","","",""
"","","","","","html-button-response","33","292700","0.0-33.0","B727FF0B207D4626BEFDCD7252B28773","019ce667-771e-740f-ba05-e0918766ef4a","019ce643-47c6-74a0-b3d2-7bf5651ded46","","1794","
                    <div class=""stimulus-container"">
                        <img src=""images/causal_sequence/the_performance_causal/the_performance_causal_9.png"" class=""exp-image"">
                        <div class=""question-area"">
                            <p style=""font-size: 20px; font-weight: bold; margin: 0;"">Is there a person in this image?</p>
                        </div>
                    </div>","0","main_causal_task","9","the_performance_causal","","","",""
"","","","","","html-keyboard-response","34","293703","0.0-34.0","B727FF0B207D4626BEFDCD7252B28773","019ce667-771e-740f-ba05-e0918766ef4a","019ce643-47c6-74a0-b3d2-7bf5651ded46","","null","<div style=""background-color: gray; width: 100vw; height: 100vh;""></div>","null","","","","","","",""
"","","","","","html-keyboard-response","35","298706","0.0-35.0","B727FF0B207D4626BEFDCD7252B28773","019ce667-771e-740f-ba05-e0918766ef4a","019ce643-47c6-74a0-b3d2-7bf5651ded46","","null","
                    <div class=""stimulus-container"">
                        <img src=""images/causal_sequence/saving_a_cat_causal/saving_a_cat_causal_1.png"" class=""exp-image"">
                        <div class=""question-area""></div> 
                    </div>","null","","","","","","",""
"","","","","","html-button-response","36","299450","0.0-36.0","B727FF0B207D4626BEFDCD7252B28773","019ce667-771e-740f-ba05-e0918766ef4a","019ce643-47c6-74a0-b3d2-7bf5651ded46","","740","
                    <div class=""stimulus-container"">
                        <img src=""images/causal_sequence/saving_a_cat_causal/saving_a_cat_causal_1.png"" class=""exp-image"">
                        <div class=""question-area"">
                            <p style=""font-size: 20px; font-weight: bold; margin: 0;"">Is there a person in this image?</p>
                        </div>
                    </div>","0","main_causal_task","1","saving_a_cat_causal","","","",""
"","","","","","html-keyboard-response","37","304453","0.0-37.0","B727FF0B207D4626BEFDCD7252B28773","019ce667-771e-740f-ba05-e0918766ef4a","019ce643-47c6-74a0-b3d2-7bf5651ded46","","null","
                    <div class=""stimulus-container"">
                        <img src=""images/causal_sequence/saving_a_cat_causal/saving_a_cat_causal_2.png"" class=""exp-image"">
                        <div class=""question-area""></div> 
                    </div>","null","","","","","","",""
"","","","","","html-button-response","38","305592","0.0-38.0","B727FF0B207D4626BEFDCD7252B28773","019ce667-771e-740f-ba05-e0918766ef4a","019ce643-47c6-74a0-b3d2-7bf5651ded46","","1136","
                    <div class=""stimulus-container"">
                        <img src=""images/causal_sequence/saving_a_cat_causal/saving_a_cat_causal_2.png"" class=""exp-image"">
                        <div class=""question-area"">
                            <p style=""font-size: 20px; font-weight: bold; margin: 0;"">Is there a person in this image?</p>
                        </div>
                    </div>","1","main_causal_task","2","saving_a_cat_causal","","","",""
"","","","","","html-keyboard-response","39","310595","0.0-39.0","B727FF0B207D4626BEFDCD7252B28773","019ce667-771e-740f-ba05-e0918766ef4a","019ce643-47c6-74a0-b3d2-7bf5651ded46","","null","
                    <div class=""stimulus-container"">
                        <img src=""images/causal_sequence/saving_a_cat_causal/saving_a_cat_causal_3.png"" class=""exp-image"">
                        <div class=""question-area""></div> 
                    </div>","null","","","","","","",""
"","","","","","html-button-response","40","312341","0.0-40.0","B727FF0B207D4626BEFDCD7252B28773","019ce667-771e-740f-ba05-e0918766ef4a","019ce643-47c6-74a0-b3d2-7bf5651ded46","","1744","
                    <div class=""stimulus-container"">
                        <img src=""images/causal_sequence/saving_a_cat_causal/saving_a_cat_causal_3.png"" class=""exp-image"">
                        <div class=""question-area"">
                            <p style=""font-size: 20px; font-weight: bold; margin: 0;"">Is there a person in this image?</p>
                        </div>
                    </div>","1","main_causal_task","3","saving_a_cat_causal","","","",""
"","","","","","html-keyboard-response","41","317345","0.0-41.0","B727FF0B207D4626BEFDCD7252B28773","019ce667-771e-740f-ba05-e0918766ef4a","019ce643-47c6-74a0-b3d2-7bf5651ded46","","null","
                    <div class=""stimulus-container"">
                        <img src=""images/causal_sequence/saving_a_cat_causal/saving_a_cat_causal_4.png"" class=""exp-image"">
                        <div class=""question-area""></div> 
                    </div>","null","","","","","","",""
"","","","","","html-button-response","42","319016","0.0-42.0","B727FF0B207D4626BEFDCD7252B28773","019ce667-771e-740f-ba05-e0918766ef4a","019ce643-47c6-74a0-b3d2-7bf5651ded46","","1668","
                    <div class=""stimulus-container"">
                        <img src=""images/causal_sequence/saving_a_cat_causal/saving_a_cat_causal_4.png"" class=""exp-image"">
                        <div class=""question-area"">
                            <p style=""font-size: 20px; font-weight: bold; margin: 0;"">Is there a person in this image?</p>
                        </div>
                    </div>","0","main_causal_task","4","saving_a_cat_causal","","","",""
"","","","","","html-keyboard-response","43","324019","0.0-43.0","B727FF0B207D4626BEFDCD7252B28773","019ce667-771e-740f-ba05-e0918766ef4a","019ce643-47c6-74a0-b3d2-7bf5651ded46","","null","
                    <div class=""stimulus-container"">
                        <img src=""images/causal_sequence/saving_a_cat_causal/saving_a_cat_causal_5.png"" class=""exp-image"">
                        <div class=""question-area""></div> 
                    </div>","null","","","","","","",""
"","","","","","html-button-response","44","325025","0.0-44.0","B727FF0B207D4626BEFDCD7252B28773","019ce667-771e-740f-ba05-e0918766ef4a","019ce643-47c6-74a0-b3d2-7bf5651ded46","","1003","
                    <div class=""stimulus-container"">
                        <img src=""images/causal_sequence/saving_a_cat_causal/saving_a_cat_causal_5.png"" class=""exp-image"">
                        <div class=""question-area"">
                            <p style=""font-size: 20px; font-weight: bold; margin: 0;"">Is there a person in this image?</p>
                        </div>
                    </div>","0","main_causal_task","5","saving_a_cat_causal","","","",""
"","","","","","html-keyboard-response","45","330028","0.0-45.0","B727FF0B207D4626BEFDCD7252B28773","019ce667-771e-740f-ba05-e0918766ef4a","019ce643-47c6-74a0-b3d2-7bf5651ded46","","null","
                    <div class=""stimulus-container"">
                        <img src=""images/causal_sequence/saving_a_cat_causal/saving_a_cat_causal_6.png"" class=""exp-image"">
                        <div class=""question-area""></div> 
                    </div>","null","","","","","","",""
"","","","","","html-button-response","46","332020","0.0-46.0","B727FF0B207D4626BEFDCD7252B28773","019ce667-771e-740f-ba05-e0918766ef4a","019ce643-47c6-74a0-b3d2-7bf5651ded46","","1989","
                    <div class=""stimulus-container"">
                        <img src=""images/causal_sequence/saving_a_cat_causal/saving_a_cat_causal_6.png"" class=""exp-image"">
                        <div class=""question-area"">
                            <p style=""font-size: 20px; font-weight: bold; margin: 0;"">Is there a person in this image?</p>
                        </div>
                    </div>","0","main_causal_task","6","saving_a_cat_causal","","","",""
"","","","","","html-keyboard-response","47","337023","0.0-47.0","B727FF0B207D4626BEFDCD7252B28773","019ce667-771e-740f-ba05-e0918766ef4a","019ce643-47c6-74a0-b3d2-7bf5651ded46","","null","
                    <div class=""stimulus-container"">
                        <img src=""images/causal_sequence/saving_a_cat_causal/saving_a_cat_causal_7.png"" class=""exp-image"">
                        <div class=""question-area""></div> 
                    </div>","null","","","","","","",""
"","","","","","html-button-response","48","339075","0.0-48.0","B727FF0B207D4626BEFDCD7252B28773","019ce667-771e-740f-ba05-e0918766ef4a","019ce643-47c6-74a0-b3d2-7bf5651ded46","","2050","
                    <div class=""stimulus-container"">
                        <img src=""images/causal_sequence/saving_a_cat_causal/saving_a_cat_causal_7.png"" class=""exp-image"">
                        <div class=""question-area"">
                            <p style=""font-size: 20px; font-weight: bold; margin: 0;"">Is there a person in this image?</p>
                        </div>
                    </div>","0","main_causal_task","7","saving_a_cat_causal","","","",""
"","","","","","html-keyboard-response","49","344079","0.0-49.0","B727FF0B207D4626BEFDCD7252B28773","019ce667-771e-740f-ba05-e0918766ef4a","019ce643-47c6-74a0-b3d2-7bf5651ded46","","null","
                    <div class=""stimulus-container"">
                        <img src=""images/causal_sequence/saving_a_cat_causal/saving_a_cat_causal_8.png"" class=""exp-image"">
                        <div class=""question-area""></div> 
                    </div>","null","","","","","","",""
"","","","","","html-button-response","50","345321","0.0-50.0","B727FF0B207D4626BEFDCD7252B28773","019ce667-771e-740f-ba05-e0918766ef4a","019ce643-47c6-74a0-b3d2-7bf5651ded46","","1240","
                    <div class=""stimulus-container"">
                        <img src=""images/causal_sequence/saving_a_cat_causal/saving_a_cat_causal_8.png"" class=""exp-image"">
                        <div class=""question-area"">
                            <p style=""font-size: 20px; font-weight: bold; margin: 0;"">Is there a person in this image?</p>
                        </div>
                    </div>","0","main_causal_task","8","saving_a_cat_causal","","","",""
"","","","","","html-keyboard-response","51","350325","0.0-51.0","B727FF0B207D4626BEFDCD7252B28773","019ce667-771e-740f-ba05-e0918766ef4a","019ce643-47c6-74a0-b3d2-7bf5651ded46","","null","
                    <div class=""stimulus-container"">
                        <img src=""images/causal_sequence/saving_a_cat_causal/saving_a_cat_causal_9.png"" class=""exp-image"">
                        <div class=""question-area""></div> 
                    </div>","null","","","","","","",""
"","","","","","html-button-response","52","352603","0.0-52.0","B727FF0B207D4626BEFDCD7252B28773","019ce667-771e-740f-ba05-e0918766ef4a","019ce643-47c6-74a0-b3d2-7bf5651ded46","","2276","
                    <div class=""stimulus-container"">
                        <img src=""images/causal_sequence/saving_a_cat_causal/saving_a_cat_causal_9.png"" class=""exp-image"">
                        <div class=""question-area"">
                            <p style=""font-size: 20px; font-weight: bold; margin: 0;"">Is there a person in this image?</p>
                        </div>
                    </div>","0","main_causal_task","9","saving_a_cat_causal","","","",""
"","","","","","html-keyboard-response","53","353606","0.0-53.0","B727FF0B207D4626BEFDCD7252B28773","019ce667-771e-740f-ba05-e0918766ef4a","019ce643-47c6-74a0-b3d2-7bf5651ded46","","null","<div style=""background-color: gray; width: 100vw; height: 100vh;""></div>","null","","","","","","",""
"","","","","","html-keyboard-response","54","358609","0.0-54.0","B727FF0B207D4626BEFDCD7252B28773","019ce667-771e-740f-ba05-e0918766ef4a","019ce643-47c6-74a0-b3d2-7bf5651ded46","","null","
                    <div class=""stimulus-container"">
                        <img src=""images/causal_sequence/museum_causal/museum_causal_1.png"" class=""exp-image"">
                        <div class=""question-area""></div> 
                    </div>","null","","","","","","",""
"","","","","","html-button-response","55","360578","0.0-55.0","B727FF0B207D4626BEFDCD7252B28773","019ce667-771e-740f-ba05-e0918766ef4a","019ce643-47c6-74a0-b3d2-7bf5651ded46","","1967","
                    <div class=""stimulus-container"">
                        <img src=""images/causal_sequence/museum_causal/museum_causal_1.png"" class=""exp-image"">
                        <div class=""question-area"">
                            <p style=""font-size: 20px; font-weight: bold; margin: 0;"">Is there a person in this image?</p>
                        </div>
                    </div>","0","main_causal_task","1","museum_causal","","","",""
"","","","","","html-keyboard-response","56","365581","0.0-56.0","B727FF0B207D4626BEFDCD7252B28773","019ce667-771e-740f-ba05-e0918766ef4a","019ce643-47c6-74a0-b3d2-7bf5651ded46","","null","
                    <div class=""stimulus-container"">
                        <img src=""images/causal_sequence/museum_causal/museum_causal_2.png"" class=""exp-image"">
                        <div class=""question-area""></div> 
                    </div>","null","","","","","","",""
"","","","","","html-button-response","57","368528","0.0-57.0","B727FF0B207D4626BEFDCD7252B28773","019ce667-771e-740f-ba05-e0918766ef4a","019ce643-47c6-74a0-b3d2-7bf5651ded46","","2945","
                    <div class=""stimulus-container"">
                        <img src=""images/causal_sequence/museum_causal/museum_causal_2.png"" class=""exp-image"">
                        <div class=""question-area"">
                            <p style=""font-size: 20px; font-weight: bold; margin: 0;"">Is there a person in this image?</p>
                        </div>
                    </div>","1","main_causal_task","2","museum_causal","","","",""
"","","","","","html-keyboard-response","58","373531","0.0-58.0","B727FF0B207D4626BEFDCD7252B28773","019ce667-771e-740f-ba05-e0918766ef4a","019ce643-47c6-74a0-b3d2-7bf5651ded46","","null","
                    <div class=""stimulus-container"">
                        <img src=""images/causal_sequence/museum_causal/museum_causal_3.png"" class=""exp-image"">
                        <div class=""question-area""></div> 
                    </div>","null","","","","","","",""
"","","","","","html-button-response","59","376535","0.0-59.0","B727FF0B207D4626BEFDCD7252B28773","019ce667-771e-740f-ba05-e0918766ef4a","019ce643-47c6-74a0-b3d2-7bf5651ded46","","null","
                    <div class=""stimulus-container"">
                        <img src=""images/causal_sequence/museum_causal/museum_causal_3.png"" class=""exp-image"">
                        <div class=""question-area"">
                            <p style=""font-size: 20px; font-weight: bold; margin: 0;"">Is there a person in this image?</p>
                        </div>
                    </div>","null","main_causal_task","3","museum_causal","","","",""
"","","","","","html-keyboard-response","60","381539","0.0-60.0","B727FF0B207D4626BEFDCD7252B28773","019ce667-771e-740f-ba05-e0918766ef4a","019ce643-47c6-74a0-b3d2-7bf5651ded46","","null","
                    <div class=""stimulus-container"">
                        <img src=""images/causal_sequence/museum_causal/museum_causal_4.png"" class=""exp-image"">
                        <div class=""question-area""></div> 
                    </div>","null","","","","","","",""
"","","","","","html-button-response","61","384297","0.0-61.0","B727FF0B207D4626BEFDCD7252B28773","019ce667-771e-740f-ba05-e0918766ef4a","019ce643-47c6-74a0-b3d2-7bf5651ded46","","2755","
                    <div class=""stimulus-container"">
                        <img src=""images/causal_sequence/museum_causal/museum_causal_4.png"" class=""exp-image"">
                        <div class=""question-area"">
                            <p style=""font-size: 20px; font-weight: bold; margin: 0;"">Is there a person in this image?</p>
                        </div>
                    </div>","1","main_causal_task","4","museum_causal","","","",""
"","","","","","html-keyboard-response","62","389300","0.0-62.0","B727FF0B207D4626BEFDCD7252B28773","019ce667-771e-740f-ba05-e0918766ef4a","019ce643-47c6-74a0-b3d2-7bf5651ded46","","null","
                    <div class=""stimulus-container"">
                        <img src=""images/causal_sequence/museum_causal/museum_causal_5.png"" class=""exp-image"">
                        <div class=""question-area""></div> 
                    </div>","null","","","","","","",""
"","","","","","html-button-response","63","392113","0.0-63.0","B727FF0B207D4626BEFDCD7252B28773","019ce667-771e-740f-ba05-e0918766ef4a","019ce643-47c6-74a0-b3d2-7bf5651ded46","","2811","
                    <div class=""stimulus-container"">
                        <img src=""images/causal_sequence/museum_causal/museum_causal_5.png"" class=""exp-image"">
                        <div class=""question-area"">
                            <p style=""font-size: 20px; font-weight: bold; margin: 0;"">Is there a person in this image?</p>
                        </div>
                    </div>","0","main_causal_task","5","museum_causal","","","",""
"","","","","","html-keyboard-response","64","397117","0.0-64.0","B727FF0B207D4626BEFDCD7252B28773","019ce667-771e-740f-ba05-e0918766ef4a","019ce643-47c6-74a0-b3d2-7bf5651ded46","","null","
                    <div class=""stimulus-container"">
                        <img src=""images/causal_sequence/museum_causal/museum_causal_6.png"" class=""exp-image"">
                        <div class=""question-area""></div> 
                    </div>","null","","","","","","",""
"","","","","","html-button-response","65","399424","0.0-65.0","B727FF0B207D4626BEFDCD7252B28773","019ce667-771e-740f-ba05-e0918766ef4a","019ce643-47c6-74a0-b3d2-7bf5651ded46","","2305","
                    <div class=""stimulus-container"">
                        <img src=""images/causal_sequence/museum_causal/museum_causal_6.png"" class=""exp-image"">
                        <div class=""question-area"">
                            <p style=""font-size: 20px; font-weight: bold; margin: 0;"">Is there a person in this image?</p>
                        </div>
                    </div>","0","main_causal_task","6","museum_causal","","","",""
"","","","","","html-keyboard-response","66","404427","0.0-66.0","B727FF0B207D4626BEFDCD7252B28773","019ce667-771e-740f-ba05-e0918766ef4a","019ce643-47c6-74a0-b3d2-7bf5651ded46","","null","
                    <div class=""stimulus-container"">
                        <img src=""images/causal_sequence/museum_causal/museum_causal_7.png"" class=""exp-image"">
                        <div class=""question-area""></div> 
                    </div>","null","","","","","","",""
"","","","","","html-button-response","67","406696","0.0-67.0","B727FF0B207D4626BEFDCD7252B28773","019ce667-771e-740f-ba05-e0918766ef4a","019ce643-47c6-74a0-b3d2-7bf5651ded46","","2266","
                    <div class=""stimulus-container"">
                        <img src=""images/causal_sequence/museum_causal/museum_causal_7.png"" class=""exp-image"">
                        <div class=""question-area"">
                            <p style=""font-size: 20px; font-weight: bold; margin: 0;"">Is there a person in this image?</p>
                        </div>
                    </div>","1","main_causal_task","7","museum_causal","","","",""
"","","","","","html-keyboard-response","68","411699","0.0-68.0","B727FF0B207D4626BEFDCD7252B28773","019ce667-771e-740f-ba05-e0918766ef4a","019ce643-47c6-74a0-b3d2-7bf5651ded46","","null","
                    <div class=""stimulus-container"">
                        <img src=""images/causal_sequence/museum_causal/museum_causal_8.png"" class=""exp-image"">
                        <div class=""question-area""></div> 
                    </div>","null","","","","","","",""
"","","","","","html-button-response","69","413453","0.0-69.0","B727FF0B207D4626BEFDCD7252B28773","019ce667-771e-740f-ba05-e0918766ef4a","019ce643-47c6-74a0-b3d2-7bf5651ded46","","1752","
                    <div class=""stimulus-container"">
                        <img src=""images/causal_sequence/museum_causal/museum_causal_8.png"" class=""exp-image"">
                        <div class=""question-area"">
                            <p style=""font-size: 20px; font-weight: bold; margin: 0;"">Is there a person in this image?</p>
                        </div>
                    </div>","0","main_causal_task","8","museum_causal","","","",""
"","","","","","html-keyboard-response","70","418457","0.0-70.0","B727FF0B207D4626BEFDCD7252B28773","019ce667-771e-740f-ba05-e0918766ef4a","019ce643-47c6-74a0-b3d2-7bf5651ded46","","null","
                    <div class=""stimulus-container"">
                        <img src=""images/causal_sequence/museum_causal/museum_causal_9.png"" class=""exp-image"">
                        <div class=""question-area""></div> 
                    </div>","null","","","","","","",""
"","","","","","html-button-response","71","421460","0.0-71.0","B727FF0B207D4626BEFDCD7252B28773","019ce667-771e-740f-ba05-e0918766ef4a","019ce643-47c6-74a0-b3d2-7bf5651ded46","","null","
                    <div class=""stimulus-container"">
                        <img src=""images/causal_sequence/museum_causal/museum_causal_9.png"" class=""exp-image"">
                        <div class=""question-area"">
                            <p style=""font-size: 20px; font-weight: bold; margin: 0;"">Is there a person in this image?</p>
                        </div>
                    </div>","null","main_causal_task","9","museum_causal","","","",""
"","","","","","html-keyboard-response","72","422462","0.0-72.0","B727FF0B207D4626BEFDCD7252B28773","019ce667-771e-740f-ba05-e0918766ef4a","019ce643-47c6-74a0-b3d2-7bf5651ded46","","null","<div style=""background-color: gray; width: 100vw; height: 100vh;""></div>","null","","","","","","",""
"","","","","","html-keyboard-response","73","427466","0.0-73.0","B727FF0B207D4626BEFDCD7252B28773","019ce667-771e-740f-ba05-e0918766ef4a","019ce643-47c6-74a0-b3d2-7bf5651ded46","","null","
                    <div class=""stimulus-container"">
                        <img src=""images/causal_sequence/package_causal/package_causal_1.png"" class=""exp-image"">
                        <div class=""question-area""></div> 
                    </div>","null","","","","","","",""
"","","","","","html-button-response","74","429377","0.0-74.0","B727FF0B207D4626BEFDCD7252B28773","019ce667-771e-740f-ba05-e0918766ef4a","019ce643-47c6-74a0-b3d2-7bf5651ded46","","1909","
                    <div class=""stimulus-container"">
                        <img src=""images/causal_sequence/package_causal/package_causal_1.png"" class=""exp-image"">
                        <div class=""question-area"">
                            <p style=""font-size: 20px; font-weight: bold; margin: 0;"">Is there a person in this image?</p>
                        </div>
                    </div>","0","main_causal_task","1","package_causal","","","",""
"","","","","","html-keyboard-response","75","434380","0.0-75.0","B727FF0B207D4626BEFDCD7252B28773","019ce667-771e-740f-ba05-e0918766ef4a","019ce643-47c6-74a0-b3d2-7bf5651ded46","","null","
                    <div class=""stimulus-container"">
                        <img src=""images/causal_sequence/package_causal/package_causal_2.png"" class=""exp-image"">
                        <div class=""question-area""></div> 
                    </div>","null","","","","","","",""
"","","","","","html-button-response","76","436479","0.0-76.0","B727FF0B207D4626BEFDCD7252B28773","019ce667-771e-740f-ba05-e0918766ef4a","019ce643-47c6-74a0-b3d2-7bf5651ded46","","2096","
                    <div class=""stimulus-container"">
                        <img src=""images/causal_sequence/package_causal/package_causal_2.png"" class=""exp-image"">
                        <div class=""question-area"">
                            <p style=""font-size: 20px; font-weight: bold; margin: 0;"">Is there a person in this image?</p>
                        </div>
                    </div>","0","main_causal_task","2","package_causal","","","",""
"","","","","","html-keyboard-response","77","441482","0.0-77.0","B727FF0B207D4626BEFDCD7252B28773","019ce667-771e-740f-ba05-e0918766ef4a","019ce643-47c6-74a0-b3d2-7bf5651ded46","","null","
                    <div class=""stimulus-container"">
                        <img src=""images/causal_sequence/package_causal/package_causal_3.png"" class=""exp-image"">
                        <div class=""question-area""></div> 
                    </div>","null","","","","","","",""
"","","","","","html-button-response","78","444178","0.0-78.0","B727FF0B207D4626BEFDCD7252B28773","019ce667-771e-740f-ba05-e0918766ef4a","019ce643-47c6-74a0-b3d2-7bf5651ded46","","2693","
                    <div class=""stimulus-container"">
                        <img src=""images/causal_sequence/package_causal/package_causal_3.png"" class=""exp-image"">
                        <div class=""question-area"">
                            <p style=""font-size: 20px; font-weight: bold; margin: 0;"">Is there a person in this image?</p>
                        </div>
                    </div>","0","main_causal_task","3","package_causal","","","",""
"","","","","","html-keyboard-response","79","449181","0.0-79.0","B727FF0B207D4626BEFDCD7252B28773","019ce667-771e-740f-ba05-e0918766ef4a","019ce643-47c6-74a0-b3d2-7bf5651ded46","","null","
                    <div class=""stimulus-container"">
                        <img src=""images/causal_sequence/package_causal/package_causal_4.png"" class=""exp-image"">
                        <div class=""question-area""></div> 
                    </div>","null","","","","","","",""
"","","","","","html-button-response","80","451212","0.0-80.0","B727FF0B207D4626BEFDCD7252B28773","019ce667-771e-740f-ba05-e0918766ef4a","019ce643-47c6-74a0-b3d2-7bf5651ded46","","2028","
                    <div class=""stimulus-container"">
                        <img src=""images/causal_sequence/package_causal/package_causal_4.png"" class=""exp-image"">
                        <div class=""question-area"">
                            <p style=""font-size: 20px; font-weight: bold; margin: 0;"">Is there a person in this image?</p>
                        </div>
                    </div>","1","main_causal_task","4","package_causal","","","",""
"","","","","","html-keyboard-response","81","456215","0.0-81.0","B727FF0B207D4626BEFDCD7252B28773","019ce667-771e-740f-ba05-e0918766ef4a","019ce643-47c6-74a0-b3d2-7bf5651ded46","","null","
                    <div class=""stimulus-container"">
                        <img src=""images/causal_sequence/package_causal/package_causal_5.png"" class=""exp-image"">
                        <div class=""question-area""></div> 
                    </div>","null","","","","","","",""
"","","","","","html-button-response","82","459219","0.0-82.0","B727FF0B207D4626BEFDCD7252B28773","019ce667-771e-740f-ba05-e0918766ef4a","019ce643-47c6-74a0-b3d2-7bf5651ded46","","null","
                    <div class=""stimulus-container"">
                        <img src=""images/causal_sequence/package_causal/package_causal_5.png"" class=""exp-image"">
                        <div class=""question-area"">
                            <p style=""font-size: 20px; font-weight: bold; margin: 0;"">Is there a person in this image?</p>
                        </div>
                    </div>","null","main_causal_task","5","package_causal","","","",""
"","","","","","html-keyboard-response","83","464222","0.0-83.0","B727FF0B207D4626BEFDCD7252B28773","019ce667-771e-740f-ba05-e0918766ef4a","019ce643-47c6-74a0-b3d2-7bf5651ded46","","null","
                    <div class=""stimulus-container"">
                        <img src=""images/causal_sequence/package_causal/package_causal_6.png"" class=""exp-image"">
                        <div class=""question-area""></div> 
                    </div>","null","","","","","","",""
"","","","","","html-button-response","84","466962","0.0-84.0","B727FF0B207D4626BEFDCD7252B28773","019ce667-771e-740f-ba05-e0918766ef4a","019ce643-47c6-74a0-b3d2-7bf5651ded46","","2737","
                    <div class=""stimulus-container"">
                        <img src=""images/causal_sequence/package_causal/package_causal_6.png"" class=""exp-image"">
                        <div class=""question-area"">
                            <p style=""font-size: 20px; font-weight: bold; margin: 0;"">Is there a person in this image?</p>
                        </div>
                    </div>","0","main_causal_task","6","package_causal","","","",""
"","","","","","html-keyboard-response","85","471966","0.0-85.0","B727FF0B207D4626BEFDCD7252B28773","019ce667-771e-740f-ba05-e0918766ef4a","019ce643-47c6-74a0-b3d2-7bf5651ded46","","null","
                    <div class=""stimulus-container"">
                        <img src=""images/causal_sequence/package_causal/package_causal_7.png"" class=""exp-image"">
                        <div class=""question-area""></div> 
                    </div>","null","","","","","","",""
"","","","","","html-button-response","86","473365","0.0-86.0","B727FF0B207D4626BEFDCD7252B28773","019ce667-771e-740f-ba05-e0918766ef4a","019ce643-47c6-74a0-b3d2-7bf5651ded46","","1397","
                    <div class=""stimulus-container"">
                        <img src=""images/causal_sequence/package_causal/package_causal_7.png"" class=""exp-image"">
                        <div class=""question-area"">
                            <p style=""font-size: 20px; font-weight: bold; margin: 0;"">Is there a person in this image?</p>
                        </div>
                    </div>","0","main_causal_task","7","package_causal","","","",""
"","","","","","html-keyboard-response","87","478368","0.0-87.0","B727FF0B207D4626BEFDCD7252B28773","019ce667-771e-740f-ba05-e0918766ef4a","019ce643-47c6-74a0-b3d2-7bf5651ded46","","null","
                    <div class=""stimulus-container"">
                        <img src=""images/causal_sequence/package_causal/package_causal_8.png"" class=""exp-image"">
                        <div class=""question-area""></div> 
                    </div>","null","","","","","","",""
"","","","","","html-button-response","88","481371","0.0-88.0","B727FF0B207D4626BEFDCD7252B28773","019ce667-771e-740f-ba05-e0918766ef4a","019ce643-47c6-74a0-b3d2-7bf5651ded46","","null","
                    <div class=""stimulus-container"">
                        <img src=""images/causal_sequence/package_causal/package_causal_8.png"" class=""exp-image"">
                        <div class=""question-area"">
                            <p style=""font-size: 20px; font-weight: bold; margin: 0;"">Is there a person in this image?</p>
                        </div>
                    </div>","null","main_causal_task","8","package_causal","","","",""
"","","","","","html-keyboard-response","89","486375","0.0-89.0","B727FF0B207D4626BEFDCD7252B28773","019ce667-771e-740f-ba05-e0918766ef4a","019ce643-47c6-74a0-b3d2-7bf5651ded46","","null","
                    <div class=""stimulus-container"">
                        <img src=""images/causal_sequence/package_causal/package_causal_9.png"" class=""exp-image"">
                        <div class=""question-area""></div> 
                    </div>","null","","","","","","",""
"","","","","","html-button-response","90","488499","0.0-90.0","B727FF0B207D4626BEFDCD7252B28773","019ce667-771e-740f-ba05-e0918766ef4a","019ce643-47c6-74a0-b3d2-7bf5651ded46","","2122","
                    <div class=""stimulus-container"">
                        <img src=""images/causal_sequence/package_causal/package_causal_9.png"" class=""exp-image"">
                        <div class=""question-area"">
                            <p style=""font-size: 20px; font-weight: bold; margin: 0;"">Is there a person in this image?</p>
                        </div>
                    </div>","0","main_causal_task","9","package_causal","","","",""
"","","","","","html-keyboard-response","91","489501","0.0-91.0","B727FF0B207D4626BEFDCD7252B28773","019ce667-771e-740f-ba05-e0918766ef4a","019ce643-47c6-74a0-b3d2-7bf5651ded46","","null","<div style=""background-color: gray; width: 100vw; height: 100vh;""></div>","null","","","","","","",""
"","","","","","html-keyboard-response","92","494504","0.0-92.0","B727FF0B207D4626BEFDCD7252B28773","019ce667-771e-740f-ba05-e0918766ef4a","019ce643-47c6-74a0-b3d2-7bf5651ded46","","null","
                    <div class=""stimulus-container"">
                        <img src=""images/causal_sequence/coin_causal/coin_causal_1.png"" class=""exp-image"">
                        <div class=""question-area""></div> 
                    </div>","null","","","","","","",""
"","","","","","html-button-response","93","496066","0.0-93.0","B727FF0B207D4626BEFDCD7252B28773","019ce667-771e-740f-ba05-e0918766ef4a","019ce643-47c6-74a0-b3d2-7bf5651ded46","","1560","
                    <div class=""stimulus-container"">
                        <img src=""images/causal_sequence/coin_causal/coin_causal_1.png"" class=""exp-image"">
                        <div class=""question-area"">
                            <p style=""font-size: 20px; font-weight: bold; margin: 0;"">Is there a person in this image?</p>
                        </div>
                    </div>","0","main_causal_task","1","coin_causal","","","",""
"","","","","","html-keyboard-response","94","501069","0.0-94.0","B727FF0B207D4626BEFDCD7252B28773","019ce667-771e-740f-ba05-e0918766ef4a","019ce643-47c6-74a0-b3d2-7bf5651ded46","","null","
                    <div class=""stimulus-container"">
                        <img src=""images/causal_sequence/coin_causal/coin_causal_2.png"" class=""exp-image"">
                        <div class=""question-area""></div> 
                    </div>","null","","","","","","",""
"","","","","","html-button-response","95","502316","0.0-95.0","B727FF0B207D4626BEFDCD7252B28773","019ce667-771e-740f-ba05-e0918766ef4a","019ce643-47c6-74a0-b3d2-7bf5651ded46","","1245","
                    <div class=""stimulus-container"">
                        <img src=""images/causal_sequence/coin_causal/coin_causal_2.png"" class=""exp-image"">
                        <div class=""question-area"">
                            <p style=""font-size: 20px; font-weight: bold; margin: 0;"">Is there a person in this image?</p>
                        </div>
                    </div>","0","main_causal_task","2","coin_causal","","","",""
"","","","","","html-keyboard-response","96","507320","0.0-96.0","B727FF0B207D4626BEFDCD7252B28773","019ce667-771e-740f-ba05-e0918766ef4a","019ce643-47c6-74a0-b3d2-7bf5651ded46","","null","
                    <div class=""stimulus-container"">
                        <img src=""images/causal_sequence/coin_causal/coin_causal_3.png"" class=""exp-image"">
                        <div class=""question-area""></div> 
                    </div>","null","","","","","","",""
"","","","","","html-button-response","97","509566","0.0-97.0","B727FF0B207D4626BEFDCD7252B28773","019ce667-771e-740f-ba05-e0918766ef4a","019ce643-47c6-74a0-b3d2-7bf5651ded46","","2244","
                    <div class=""stimulus-container"">
                        <img src=""images/causal_sequence/coin_causal/coin_causal_3.png"" class=""exp-image"">
                        <div class=""question-area"">
                            <p style=""font-size: 20px; font-weight: bold; margin: 0;"">Is there a person in this image?</p>
                        </div>
                    </div>","0","main_causal_task","3","coin_causal","","","",""
"","","","","","html-keyboard-response","98","514569","0.0-98.0","B727FF0B207D4626BEFDCD7252B28773","019ce667-771e-740f-ba05-e0918766ef4a","019ce643-47c6-74a0-b3d2-7bf5651ded46","","null","
                    <div class=""stimulus-container"">
                        <img src=""images/causal_sequence/coin_causal/coin_causal_4.png"" class=""exp-image"">
                        <div class=""question-area""></div> 
                    </div>","null","","","","","","",""
"","","","","","html-button-response","99","517571","0.0-99.0","B727FF0B207D4626BEFDCD7252B28773","019ce667-771e-740f-ba05-e0918766ef4a","019ce643-47c6-74a0-b3d2-7bf5651ded46","","null","
                    <div class=""stimulus-container"">
                        <img src=""images/causal_sequence/coin_causal/coin_causal_4.png"" class=""exp-image"">
                        <div class=""question-area"">
                            <p style=""font-size: 20px; font-weight: bold; margin: 0;"">Is there a person in this image?</p>
                        </div>
                    </div>","null","main_causal_task","4","coin_causal","","","",""
"","","","","","html-keyboard-response","100","522574","0.0-100.0","B727FF0B207D4626BEFDCD7252B28773","019ce667-771e-740f-ba05-e0918766ef4a","019ce643-47c6-74a0-b3d2-7bf5651ded46","","null","
                    <div class=""stimulus-container"">
                        <img src=""images/causal_sequence/coin_causal/coin_causal_5.png"" class=""exp-image"">
                        <div class=""question-area""></div> 
                    </div>","null","","","","","","",""
"","","","","","html-button-response","101","525576","0.0-101.0","B727FF0B207D4626BEFDCD7252B28773","019ce667-771e-740f-ba05-e0918766ef4a","019ce643-47c6-74a0-b3d2-7bf5651ded46","","null","
                    <div class=""stimulus-container"">
                        <img src=""images/causal_sequence/coin_causal/coin_causal_5.png"" class=""exp-image"">
                        <div class=""question-area"">
                            <p style=""font-size: 20px; font-weight: bold; margin: 0;"">Is there a person in this image?</p>
                        </div>
                    </div>","null","main_causal_task","5","coin_causal","","","",""
"","","","","","html-keyboard-response","102","530580","0.0-102.0","B727FF0B207D4626BEFDCD7252B28773","019ce667-771e-740f-ba05-e0918766ef4a","019ce643-47c6-74a0-b3d2-7bf5651ded46","","null","
                    <div class=""stimulus-container"">
                        <img src=""images/causal_sequence/coin_causal/coin_causal_6.png"" class=""exp-image"">
                        <div class=""question-area""></div> 
                    </div>","null","","","","","","",""
"","","","","","html-button-response","103","532674","0.0-103.0","B727FF0B207D4626BEFDCD7252B28773","019ce667-771e-740f-ba05-e0918766ef4a","019ce643-47c6-74a0-b3d2-7bf5651ded46","","2093","
                    <div class=""stimulus-container"">
                        <img src=""images/causal_sequence/coin_causal/coin_causal_6.png"" class=""exp-image"">
                        <div class=""question-area"">
                            <p style=""font-size: 20px; font-weight: bold; margin: 0;"">Is there a person in this image?</p>
                        </div>
                    </div>","0","main_causal_task","6","coin_causal","","","",""
"","","","","","html-keyboard-response","104","537677","0.0-104.0","B727FF0B207D4626BEFDCD7252B28773","019ce667-771e-740f-ba05-e0918766ef4a","019ce643-47c6-74a0-b3d2-7bf5651ded46","","null","
                    <div class=""stimulus-container"">
                        <img src=""images/causal_sequence/coin_causal/coin_causal_7.png"" class=""exp-image"">
                        <div class=""question-area""></div> 
                    </div>","null","","","","","","",""
"","","","","","html-button-response","105","540163","0.0-105.0","B727FF0B207D4626BEFDCD7252B28773","019ce667-771e-740f-ba05-e0918766ef4a","019ce643-47c6-74a0-b3d2-7bf5651ded46","","2484","
                    <div class=""stimulus-container"">
                        <img src=""images/causal_sequence/coin_causal/coin_causal_7.png"" class=""exp-image"">
                        <div class=""question-area"">
                            <p style=""font-size: 20px; font-weight: bold; margin: 0;"">Is there a person in this image?</p>
                        </div>
                    </div>","1","main_causal_task","7","coin_causal","","","",""
"","","","","","html-keyboard-response","106","545167","0.0-106.0","B727FF0B207D4626BEFDCD7252B28773","019ce667-771e-740f-ba05-e0918766ef4a","019ce643-47c6-74a0-b3d2-7bf5651ded46","","null","
                    <div class=""stimulus-container"">
                        <img src=""images/causal_sequence/coin_causal/coin_causal_8.png"" class=""exp-image"">
                        <div class=""question-area""></div> 
                    </div>","null","","","","","","",""
"","","","","","html-button-response","107","546144","0.0-107.0","B727FF0B207D4626BEFDCD7252B28773","019ce667-771e-740f-ba05-e0918766ef4a","019ce643-47c6-74a0-b3d2-7bf5651ded46","","975","
                    <div class=""stimulus-container"">
                        <img src=""images/causal_sequence/coin_causal/coin_causal_8.png"" class=""exp-image"">
                        <div class=""question-area"">
                            <p style=""font-size: 20px; font-weight: bold; margin: 0;"">Is there a person in this image?</p>
                        </div>
                    </div>","0","main_causal_task","8","coin_causal","","","",""
"","","","","","html-keyboard-response","108","551148","0.0-108.0","B727FF0B207D4626BEFDCD7252B28773","019ce667-771e-740f-ba05-e0918766ef4a","019ce643-47c6-74a0-b3d2-7bf5651ded46","","null","
                    <div class=""stimulus-container"">
                        <img src=""images/causal_sequence/coin_causal/coin_causal_9.png"" class=""exp-image"">
                        <div class=""question-area""></div> 
                    </div>","null","","","","","","",""
"","","","","","html-button-response","109","553053","0.0-109.0","B727FF0B207D4626BEFDCD7252B28773","019ce667-771e-740f-ba05-e0918766ef4a","019ce643-47c6-74a0-b3d2-7bf5651ded46","","1903","
                    <div class=""stimulus-container"">
                        <img src=""images/causal_sequence/coin_causal/coin_causal_9.png"" class=""exp-image"">
                        <div class=""question-area"">
                            <p style=""font-size: 20px; font-weight: bold; margin: 0;"">Is there a person in this image?</p>
                        </div>
                    </div>","0","main_causal_task","9","coin_causal","","","",""
"","","","","","html-keyboard-response","110","554057","0.0-110.0","B727FF0B207D4626BEFDCD7252B28773","019ce667-771e-740f-ba05-e0918766ef4a","019ce643-47c6-74a0-b3d2-7bf5651ded46","","null","<div style=""background-color: gray; width: 100vw; height: 100vh;""></div>","null","","","","","","",""
"","","","","","html-keyboard-response","111","559061","0.0-111.0","B727FF0B207D4626BEFDCD7252B28773","019ce667-771e-740f-ba05-e0918766ef4a","019ce643-47c6-74a0-b3d2-7bf5651ded46","","null","
                    <div class=""stimulus-container"">
                        <img src=""images/causal_sequence/dog_causal/dog_causal_1.png"" class=""exp-image"">
                        <div class=""question-area""></div> 
                    </div>","null","","","","","","",""
"","","","","","html-button-response","112","559944","0.0-112.0","B727FF0B207D4626BEFDCD7252B28773","019ce667-771e-740f-ba05-e0918766ef4a","019ce643-47c6-74a0-b3d2-7bf5651ded46","","881","
                    <div class=""stimulus-container"">
                        <img src=""images/causal_sequence/dog_causal/dog_causal_1.png"" class=""exp-image"">
                        <div class=""question-area"">
                            <p style=""font-size: 20px; font-weight: bold; margin: 0;"">Is there a person in this image?</p>
                        </div>
                    </div>","0","main_causal_task","1","dog_causal","","","",""
"","","","","","html-keyboard-response","113","564946","0.0-113.0","B727FF0B207D4626BEFDCD7252B28773","019ce667-771e-740f-ba05-e0918766ef4a","019ce643-47c6-74a0-b3d2-7bf5651ded46","","null","
                    <div class=""stimulus-container"">
                        <img src=""images/causal_sequence/dog_causal/dog_causal_2.png"" class=""exp-image"">
                        <div class=""question-area""></div> 
                    </div>","null","","","","","","",""
"","","","","","html-button-response","114","567949","0.0-114.0","B727FF0B207D4626BEFDCD7252B28773","019ce667-771e-740f-ba05-e0918766ef4a","019ce643-47c6-74a0-b3d2-7bf5651ded46","","null","
                    <div class=""stimulus-container"">
                        <img src=""images/causal_sequence/dog_causal/dog_causal_2.png"" class=""exp-image"">
                        <div class=""question-area"">
                            <p style=""font-size: 20px; font-weight: bold; margin: 0;"">Is there a person in this image?</p>
                        </div>
                    </div>","null","main_causal_task","2","dog_causal","","","",""
"","","","","","html-keyboard-response","115","572952","0.0-115.0","B727FF0B207D4626BEFDCD7252B28773","019ce667-771e-740f-ba05-e0918766ef4a","019ce643-47c6-74a0-b3d2-7bf5651ded46","","null","
                    <div class=""stimulus-container"">
                        <img src=""images/causal_sequence/dog_causal/dog_causal_3.png"" class=""exp-image"">
                        <div class=""question-area""></div> 
                    </div>","null","","","","","","",""
"","","","","","html-button-response","116","574903","0.0-116.0","B727FF0B207D4626BEFDCD7252B28773","019ce667-771e-740f-ba05-e0918766ef4a","019ce643-47c6-74a0-b3d2-7bf5651ded46","","1949","
                    <div class=""stimulus-container"">
                        <img src=""images/causal_sequence/dog_causal/dog_causal_3.png"" class=""exp-image"">
                        <div class=""question-area"">
                            <p style=""font-size: 20px; font-weight: bold; margin: 0;"">Is there a person in this image?</p>
                        </div>
                    </div>","0","main_causal_task","3","dog_causal","","","",""
"","","","","","html-keyboard-response","117","579907","0.0-117.0","B727FF0B207D4626BEFDCD7252B28773","019ce667-771e-740f-ba05-e0918766ef4a","019ce643-47c6-74a0-b3d2-7bf5651ded46","","null","
                    <div class=""stimulus-container"">
                        <img src=""images/causal_sequence/dog_causal/dog_causal_4.png"" class=""exp-image"">
                        <div class=""question-area""></div> 
                    </div>","null","","","","","","",""
"","","","","","html-button-response","118","581185","0.0-118.0","B727FF0B207D4626BEFDCD7252B28773","019ce667-771e-740f-ba05-e0918766ef4a","019ce643-47c6-74a0-b3d2-7bf5651ded46","","1276","
                    <div class=""stimulus-container"">
                        <img src=""images/causal_sequence/dog_causal/dog_causal_4.png"" class=""exp-image"">
                        <div class=""question-area"">
                            <p style=""font-size: 20px; font-weight: bold; margin: 0;"">Is there a person in this image?</p>
                        </div>
                    </div>","0","main_causal_task","4","dog_causal","","","",""
"","","","","","html-keyboard-response","119","586187","0.0-119.0","B727FF0B207D4626BEFDCD7252B28773","019ce667-771e-740f-ba05-e0918766ef4a","019ce643-47c6-74a0-b3d2-7bf5651ded46","","null","
                    <div class=""stimulus-container"">
                        <img src=""images/causal_sequence/dog_causal/dog_causal_5.png"" class=""exp-image"">
                        <div class=""question-area""></div> 
                    </div>","null","","","","","","",""
"","","","","","html-button-response","120","588299","0.0-120.0","B727FF0B207D4626BEFDCD7252B28773","019ce667-771e-740f-ba05-e0918766ef4a","019ce643-47c6-74a0-b3d2-7bf5651ded46","","2110","
                    <div class=""stimulus-container"">
                        <img src=""images/causal_sequence/dog_causal/dog_causal_5.png"" class=""exp-image"">
                        <div class=""question-area"">
                            <p style=""font-size: 20px; font-weight: bold; margin: 0;"">Is there a person in this image?</p>
                        </div>
                    </div>","0","main_causal_task","5","dog_causal","","","",""
"","","","","","html-keyboard-response","121","593303","0.0-121.0","B727FF0B207D4626BEFDCD7252B28773","019ce667-771e-740f-ba05-e0918766ef4a","019ce643-47c6-74a0-b3d2-7bf5651ded46","","null","
                    <div class=""stimulus-container"">
                        <img src=""images/causal_sequence/dog_causal/dog_causal_6.png"" class=""exp-image"">
                        <div class=""question-area""></div> 
                    </div>","null","","","","","","",""
"","","","","","html-button-response","122","595324","0.0-122.0","B727FF0B207D4626BEFDCD7252B28773","019ce667-771e-740f-ba05-e0918766ef4a","019ce643-47c6-74a0-b3d2-7bf5651ded46","","2019","
                    <div class=""stimulus-container"">
                        <img src=""images/causal_sequence/dog_causal/dog_causal_6.png"" class=""exp-image"">
                        <div class=""question-area"">
                            <p style=""font-size: 20px; font-weight: bold; margin: 0;"">Is there a person in this image?</p>
                        </div>
                    </div>","0","main_causal_task","6","dog_causal","","","",""
"","","","","","html-keyboard-response","123","600328","0.0-123.0","B727FF0B207D4626BEFDCD7252B28773","019ce667-771e-740f-ba05-e0918766ef4a","019ce643-47c6-74a0-b3d2-7bf5651ded46","","null","
                    <div class=""stimulus-container"">
                        <img src=""images/causal_sequence/dog_causal/dog_causal_7.png"" class=""exp-image"">
                        <div class=""question-area""></div> 
                    </div>","null","","","","","","",""
"","","","","","html-button-response","124","603330","0.0-124.0","B727FF0B207D4626BEFDCD7252B28773","019ce667-771e-740f-ba05-e0918766ef4a","019ce643-47c6-74a0-b3d2-7bf5651ded46","","null","
                    <div class=""stimulus-container"">
                        <img src=""images/causal_sequence/dog_causal/dog_causal_7.png"" class=""exp-image"">
                        <div class=""question-area"">
                            <p style=""font-size: 20px; font-weight: bold; margin: 0;"">Is there a person in this image?</p>
                        </div>
                    </div>","null","main_causal_task","7","dog_causal","","","",""
"","","","","","html-keyboard-response","125","608334","0.0-125.0","B727FF0B207D4626BEFDCD7252B28773","019ce667-771e-740f-ba05-e0918766ef4a","019ce643-47c6-74a0-b3d2-7bf5651ded46","","null","
                    <div class=""stimulus-container"">
                        <img src=""images/causal_sequence/dog_causal/dog_causal_8.png"" class=""exp-image"">
                        <div class=""question-area""></div> 
                    </div>","null","","","","","","",""
"","","","","","html-button-response","126","611338","0.0-126.0","B727FF0B207D4626BEFDCD7252B28773","019ce667-771e-740f-ba05-e0918766ef4a","019ce643-47c6-74a0-b3d2-7bf5651ded46","","null","
                    <div class=""stimulus-container"">
                        <img src=""images/causal_sequence/dog_causal/dog_causal_8.png"" class=""exp-image"">
                        <div class=""question-area"">
                            <p style=""font-size: 20px; font-weight: bold; margin: 0;"">Is there a person in this image?</p>
                        </div>
                    </div>","null","main_causal_task","8","dog_causal","","","",""
"","","","","","html-keyboard-response","127","616341","0.0-127.0","B727FF0B207D4626BEFDCD7252B28773","019ce667-771e-740f-ba05-e0918766ef4a","019ce643-47c6-74a0-b3d2-7bf5651ded46","","null","
                    <div class=""stimulus-container"">
                        <img src=""images/causal_sequence/dog_causal/dog_causal_9.png"" class=""exp-image"">
                        <div class=""question-area""></div> 
                    </div>","null","","","","","","",""
"","","","","","html-button-response","128","617800","0.0-128.0","B727FF0B207D4626BEFDCD7252B28773","019ce667-771e-740f-ba05-e0918766ef4a","019ce643-47c6-74a0-b3d2-7bf5651ded46","","1458","
                    <div class=""stimulus-container"">
                        <img src=""images/causal_sequence/dog_causal/dog_causal_9.png"" class=""exp-image"">
                        <div class=""question-area"">
                            <p style=""font-size: 20px; font-weight: bold; margin: 0;"">Is there a person in this image?</p>
                        </div>
                    </div>","0","main_causal_task","9","dog_causal","","","",""
"","","","","","instructions","129","619506","0.0-129.0","B727FF0B207D4626BEFDCD7252B28773","019ce667-771e-740f-ba05-e0918766ef4a","019ce643-47c6-74a0-b3d2-7bf5651ded46","[{""page_index"":0,""viewing_time"":1705}]","1706","","","","","","","","",""
"","","","","","instructions","130","622190","0.0-130.0","B727FF0B207D4626BEFDCD7252B28773","019ce667-771e-740f-ba05-e0918766ef4a","019ce643-47c6-74a0-b3d2-7bf5651ded46","[{""page_index"":0,""viewing_time"":2682}]","2683","","","","","","","","",""
"","","","","","html-keyboard-response","131","623193","0.0-131.0","B727FF0B207D4626BEFDCD7252B28773","019ce667-771e-740f-ba05-e0918766ef4a","019ce643-47c6-74a0-b3d2-7bf5651ded46","","null","
        <div class=""stimulus-container"" style=""display: flex; align-items: center; justify-content: center; gap: 30px;"">
            <img src=""images/instructions/movie_1.png"" class=""exp-image"">
            <div style=""font-size: 40px; font-weight: bold; color: green; border: 5px solid green; padding: 25px; border-radius: 15px; background-color: #f0fff0;"">
                WORTH<br>$1
            </div>
        </div>
        <div class=""question-area""></div>","null","","","","","","",""
"","","","","","html-button-response","132","626194","0.0-132.0","B727FF0B207D4626BEFDCD7252B28773","019ce667-771e-740f-ba05-e0918766ef4a","019ce643-47c6-74a0-b3d2-7bf5651ded46","","null","
        <div class=""stimulus-container"" style=""display: flex; align-items: center; justify-content: center; gap: 30px;"">
            <img src=""images/instructions/movie_1.png"" class=""exp-image"">
            <div style=""font-size: 40px; font-weight: bold; color: green; border: 5px solid green; padding: 25px; border-radius: 15px; background-color: #f0fff0;"">
                WORTH<br>$1
            </div>
        </div>
        <div class=""question-area"">
            <p style=""font-size: 20px; font-weight: bold; margin: 0;"">Was there a person in this image?</p>
        </div>","null","","","","","","",""
"","","","","","instructions","133","627624","0.0-133.0","B727FF0B207D4626BEFDCD7252B28773","019ce667-771e-740f-ba05-e0918766ef4a","019ce643-47c6-74a0-b3d2-7bf5651ded46","[{""page_index"":0,""viewing_time"":1429}]","1429","","","","","","","","",""
"","","","","","html-keyboard-response","134","637627","0.0-134.0","B727FF0B207D4626BEFDCD7252B28773","019ce667-771e-740f-ba05-e0918766ef4a","019ce643-47c6-74a0-b3d2-7bf5651ded46","","null","
            <div class=""stimulus-container"" style=""display: flex; align-items: center; justify-content: center; gap: 30px;"">
                <img src=""images/causal_sequence/dog_causal/dog_causal_4.png"" class=""exp-image"">
                <div style=""font-size: 40px; font-weight: bold; color: green; border: 5px solid green; padding: 25px; border-radius: 15px; background-color: #f0fff0;"">
                    WORTH<br>$1
                </div>
            </div>
            <div class=""question-area""></div>","null","","","","","","",""
"","","","","","html-button-response","135","638925","0.0-135.0","B727FF0B207D4626BEFDCD7252B28773","019ce667-771e-740f-ba05-e0918766ef4a","019ce643-47c6-74a0-b3d2-7bf5651ded46","","1295","
            <div class=""stimulus-container"" style=""display: flex; align-items: center; justify-content: center; gap: 30px;"">
                <img src=""images/causal_sequence/dog_causal/dog_causal_4.png"" class=""exp-image"">
                <div style=""font-size: 40px; font-weight: bold; color: green; border: 5px solid green; padding: 25px; border-radius: 15px; background-color: #f0fff0;"">
                    WORTH<br>$1
                </div>
            </div>
            <div class=""question-area"">
                <p style=""font-size: 20px; font-weight: bold; margin: 0;"">Was there a person in this image?</p>
            </div>","0","part2_value_learning","","dog_causal","4","","",""
"","","","","","html-keyboard-response","136","648928","0.0-136.0","B727FF0B207D4626BEFDCD7252B28773","019ce667-771e-740f-ba05-e0918766ef4a","019ce643-47c6-74a0-b3d2-7bf5651ded46","","null","
            <div class=""stimulus-container"" style=""display: flex; align-items: center; justify-content: center; gap: 30px;"">
                <img src=""images/causal_sequence/saving_a_cat_causal/saving_a_cat_causal_4.png"" class=""exp-image"">
                <div style=""font-size: 40px; font-weight: bold; color: green; border: 5px solid green; padding: 25px; border-radius: 15px; background-color: #f0fff0;"">
                    WORTH<br>$1
                </div>
            </div>
            <div class=""question-area""></div>","null","","","","","","",""
"","","","","","html-button-response","137","650124","0.0-137.0","B727FF0B207D4626BEFDCD7252B28773","019ce667-771e-740f-ba05-e0918766ef4a","019ce643-47c6-74a0-b3d2-7bf5651ded46","","1194","
            <div class=""stimulus-container"" style=""display: flex; align-items: center; justify-content: center; gap: 30px;"">
                <img src=""images/causal_sequence/saving_a_cat_causal/saving_a_cat_causal_4.png"" class=""exp-image"">
                <div style=""font-size: 40px; font-weight: bold; color: green; border: 5px solid green; padding: 25px; border-radius: 15px; background-color: #f0fff0;"">
                    WORTH<br>$1
                </div>
            </div>
            <div class=""question-area"">
                <p style=""font-size: 20px; font-weight: bold; margin: 0;"">Was there a person in this image?</p>
            </div>","0","part2_value_learning","","saving_a_cat_causal","4","","",""
"","","","","","html-keyboard-response","138","660126","0.0-138.0","B727FF0B207D4626BEFDCD7252B28773","019ce667-771e-740f-ba05-e0918766ef4a","019ce643-47c6-74a0-b3d2-7bf5651ded46","","null","
            <div class=""stimulus-container"" style=""display: flex; align-items: center; justify-content: center; gap: 30px;"">
                <img src=""images/causal_sequence/museum_causal/museum_causal_6.png"" class=""exp-image"">
                <div style=""font-size: 40px; font-weight: bold; color: green; border: 5px solid green; padding: 25px; border-radius: 15px; background-color: #f0fff0;"">
                    WORTH<br>$1
                </div>
            </div>
            <div class=""question-area""></div>","null","","","","","","",""
"","","","","","html-button-response","139","661320","0.0-139.0","B727FF0B207D4626BEFDCD7252B28773","019ce667-771e-740f-ba05-e0918766ef4a","019ce643-47c6-74a0-b3d2-7bf5651ded46","","1193","
            <div class=""stimulus-container"" style=""display: flex; align-items: center; justify-content: center; gap: 30px;"">
                <img src=""images/causal_sequence/museum_causal/museum_causal_6.png"" class=""exp-image"">
                <div style=""font-size: 40px; font-weight: bold; color: green; border: 5px solid green; padding: 25px; border-radius: 15px; background-color: #f0fff0;"">
                    WORTH<br>$1
                </div>
            </div>
            <div class=""question-area"">
                <p style=""font-size: 20px; font-weight: bold; margin: 0;"">Was there a person in this image?</p>
            </div>","0","part2_value_learning","","museum_causal","6","","",""
"","","","","","html-keyboard-response","140","671323","0.0-140.0","B727FF0B207D4626BEFDCD7252B28773","019ce667-771e-740f-ba05-e0918766ef4a","019ce643-47c6-74a0-b3d2-7bf5651ded46","","null","
            <div class=""stimulus-container"" style=""display: flex; align-items: center; justify-content: center; gap: 30px;"">
                <img src=""images/causal_sequence/coin_causal/coin_causal_4.png"" class=""exp-image"">
                <div style=""font-size: 40px; font-weight: bold; color: green; border: 5px solid green; padding: 25px; border-radius: 15px; background-color: #f0fff0;"">
                    WORTH<br>$1
                </div>
            </div>
            <div class=""question-area""></div>","null","","","","","","",""
"","","","","","html-button-response","141","672399","0.0-141.0","B727FF0B207D4626BEFDCD7252B28773","019ce667-771e-740f-ba05-e0918766ef4a","019ce643-47c6-74a0-b3d2-7bf5651ded46","","1073","
            <div class=""stimulus-container"" style=""display: flex; align-items: center; justify-content: center; gap: 30px;"">
                <img src=""images/causal_sequence/coin_causal/coin_causal_4.png"" class=""exp-image"">
                <div style=""font-size: 40px; font-weight: bold; color: green; border: 5px solid green; padding: 25px; border-radius: 15px; background-color: #f0fff0;"">
                    WORTH<br>$1
                </div>
            </div>
            <div class=""question-area"">
                <p style=""font-size: 20px; font-weight: bold; margin: 0;"">Was there a person in this image?</p>
            </div>","0","part2_value_learning","","coin_causal","4","","",""
"","","","","","html-keyboard-response","142","682402","0.0-142.0","B727FF0B207D4626BEFDCD7252B28773","019ce667-771e-740f-ba05-e0918766ef4a","019ce643-47c6-74a0-b3d2-7bf5651ded46","","null","
            <div class=""stimulus-container"" style=""display: flex; align-items: center; justify-content: center; gap: 30px;"">
                <img src=""images/causal_sequence/package_causal/package_causal_5.png"" class=""exp-image"">
                <div style=""font-size: 40px; font-weight: bold; color: green; border: 5px solid green; padding: 25px; border-radius: 15px; background-color: #f0fff0;"">
                    WORTH<br>$1
                </div>
            </div>
            <div class=""question-area""></div>","null","","","","","","",""
"","","","","","html-button-response","143","683177","0.0-143.0","B727FF0B207D4626BEFDCD7252B28773","019ce667-771e-740f-ba05-e0918766ef4a","019ce643-47c6-74a0-b3d2-7bf5651ded46","","772","
            <div class=""stimulus-container"" style=""display: flex; align-items: center; justify-content: center; gap: 30px;"">
                <img src=""images/causal_sequence/package_causal/package_causal_5.png"" class=""exp-image"">
                <div style=""font-size: 40px; font-weight: bold; color: green; border: 5px solid green; padding: 25px; border-radius: 15px; background-color: #f0fff0;"">
                    WORTH<br>$1
                </div>
            </div>
            <div class=""question-area"">
                <p style=""font-size: 20px; font-weight: bold; margin: 0;"">Was there a person in this image?</p>
            </div>","0","part2_value_learning","","package_causal","5","","",""
"","","","","","html-keyboard-response","144","693181","0.0-144.0","B727FF0B207D4626BEFDCD7252B28773","019ce667-771e-740f-ba05-e0918766ef4a","019ce643-47c6-74a0-b3d2-7bf5651ded46","","null","
            <div class=""stimulus-container"" style=""display: flex; align-items: center; justify-content: center; gap: 30px;"">
                <img src=""images/causal_sequence/the_performance_causal/the_performance_causal_6.png"" class=""exp-image"">
                <div style=""font-size: 40px; font-weight: bold; color: green; border: 5px solid green; padding: 25px; border-radius: 15px; background-color: #f0fff0;"">
                    WORTH<br>$1
                </div>
            </div>
            <div class=""question-area""></div>","null","","","","","","",""
"","","","","","html-button-response","145","694224","0.0-145.0","B727FF0B207D4626BEFDCD7252B28773","019ce667-771e-740f-ba05-e0918766ef4a","019ce643-47c6-74a0-b3d2-7bf5651ded46","","1041","
            <div class=""stimulus-container"" style=""display: flex; align-items: center; justify-content: center; gap: 30px;"">
                <img src=""images/causal_sequence/the_performance_causal/the_performance_causal_6.png"" class=""exp-image"">
                <div style=""font-size: 40px; font-weight: bold; color: green; border: 5px solid green; padding: 25px; border-radius: 15px; background-color: #f0fff0;"">
                    WORTH<br>$1
                </div>
            </div>
            <div class=""question-area"">
                <p style=""font-size: 20px; font-weight: bold; margin: 0;"">Was there a person in this image?</p>
            </div>","0","part2_value_learning","","the_performance_causal","6","","",""
"","","","","","instructions","146","695962","0.0-146.0","B727FF0B207D4626BEFDCD7252B28773","019ce667-771e-740f-ba05-e0918766ef4a","019ce643-47c6-74a0-b3d2-7bf5651ded46","[{""page_index"":0,""viewing_time"":1736}]","1737","","","","","","","","",""
"","","","","","instructions","147","696949","0.0-147.0","B727FF0B207D4626BEFDCD7252B28773","019ce667-771e-740f-ba05-e0918766ef4a","019ce643-47c6-74a0-b3d2-7bf5651ded46","[{""page_index"":0,""viewing_time"":986}]","987","","","","","","","","",""
"","","","","","html-keyboard-response","148","706953","0.0-148.0-0.0","B727FF0B207D4626BEFDCD7252B28773","019ce667-771e-740f-ba05-e0918766ef4a","019ce643-47c6-74a0-b3d2-7bf5651ded46","","null","
                        <div style=""font-family: Arial; margin-bottom: 20px;""><h3>Which image is more valuable?</h3></div>
                        <div class=""stimulus-container"" style=""display: flex; width: 1100px; justify-content: center; gap: 50px;"">
                            <img src=""images/causal_sequence/coin_causal/coin_causal_5.png"" class=""exp-image"">
                            <img src=""images/causal_sequence/coin_causal/coin_causal_3.png"" class=""exp-image"">
                        </div>","null","","","","","","",""
"","","","","","html-button-response","149","708103","0.0-148.0-1.0","B727FF0B207D4626BEFDCD7252B28773","019ce667-771e-740f-ba05-e0918766ef4a","019ce643-47c6-74a0-b3d2-7bf5651ded46","","1146","
                        <div style=""font-family: Arial; margin-bottom: 20px;""><h3>Which image is more valuable?</h3></div>
                        <div class=""stimulus-container"" style=""display: flex; width: 1100px; justify-content: center; gap: 50px;"">
                            <img src=""images/causal_sequence/coin_causal/coin_causal_5.png"" class=""exp-image"">
                            <img src=""images/causal_sequence/coin_causal/coin_causal_3.png"" class=""exp-image"">
                        </div>","1","part3_final_choice","","coin_causal","","4","3","-1"
"","","","","","html-keyboard-response","150","718105","0.0-149.0-0.0","B727FF0B207D4626BEFDCD7252B28773","019ce667-771e-740f-ba05-e0918766ef4a","019ce643-47c6-74a0-b3d2-7bf5651ded46","","null","
                        <div style=""font-family: Arial; margin-bottom: 20px;""><h3>Which image is more valuable?</h3></div>
                        <div class=""stimulus-container"" style=""display: flex; width: 1100px; justify-content: center; gap: 50px;"">
                            <img src=""images/causal_sequence/museum_causal/museum_causal_7.png"" class=""exp-image"">
                            <img src=""images/causal_sequence/museum_causal/museum_causal_5.png"" class=""exp-image"">
                        </div>","null","","","","","","",""
"","","","","","html-button-response","151","719022","0.0-149.0-1.0","B727FF0B207D4626BEFDCD7252B28773","019ce667-771e-740f-ba05-e0918766ef4a","019ce643-47c6-74a0-b3d2-7bf5651ded46","","916","
                        <div style=""font-family: Arial; margin-bottom: 20px;""><h3>Which image is more valuable?</h3></div>
                        <div class=""stimulus-container"" style=""display: flex; width: 1100px; justify-content: center; gap: 50px;"">
                            <img src=""images/causal_sequence/museum_causal/museum_causal_7.png"" class=""exp-image"">
                            <img src=""images/causal_sequence/museum_causal/museum_causal_5.png"" class=""exp-image"">
                        </div>","1","part3_final_choice","","museum_causal","","6","5","-1"
"","","","","","html-keyboard-response","152","729025","0.0-150.0-0.0","B727FF0B207D4626BEFDCD7252B28773","019ce667-771e-740f-ba05-e0918766ef4a","019ce643-47c6-74a0-b3d2-7bf5651ded46","","null","
                        <div style=""font-family: Arial; margin-bottom: 20px;""><h3>Which image is more valuable?</h3></div>
                        <div class=""stimulus-container"" style=""display: flex; width: 1100px; justify-content: center; gap: 50px;"">
                            <img src=""images/causal_sequence/saving_a_cat_causal/saving_a_cat_causal_5.png"" class=""exp-image"">
                            <img src=""images/causal_sequence/saving_a_cat_causal/saving_a_cat_causal_3.png"" class=""exp-image"">
                        </div>","null","","","","","","",""
"","","","","","html-button-response","153","729832","0.0-150.0-1.0","B727FF0B207D4626BEFDCD7252B28773","019ce667-771e-740f-ba05-e0918766ef4a","019ce643-47c6-74a0-b3d2-7bf5651ded46","","804","
                        <div style=""font-family: Arial; margin-bottom: 20px;""><h3>Which image is more valuable?</h3></div>
                        <div class=""stimulus-container"" style=""display: flex; width: 1100px; justify-content: center; gap: 50px;"">
                            <img src=""images/causal_sequence/saving_a_cat_causal/saving_a_cat_causal_5.png"" class=""exp-image"">
                            <img src=""images/causal_sequence/saving_a_cat_causal/saving_a_cat_causal_3.png"" class=""exp-image"">
                        </div>","1","part3_final_choice","","saving_a_cat_causal","","4","3","-1"
"","","","","","html-keyboard-response","154","739835","0.0-151.0-0.0","B727FF0B207D4626BEFDCD7252B28773","019ce667-771e-740f-ba05-e0918766ef4a","019ce643-47c6-74a0-b3d2-7bf5651ded46","","null","
                        <div style=""font-family: Arial; margin-bottom: 20px;""><h3>Which image is more valuable?</h3></div>
                        <div class=""stimulus-container"" style=""display: flex; width: 1100px; justify-content: center; gap: 50px;"">
                            <img src=""images/causal_sequence/the_performance_causal/the_performance_causal_5.png"" class=""exp-image"">
                            <img src=""images/causal_sequence/the_performance_causal/the_performance_causal_7.png"" class=""exp-image"">
                        </div>","null","","","","","","",""
"","","","","","html-button-response","155","740873","0.0-151.0-1.0","B727FF0B207D4626BEFDCD7252B28773","019ce667-771e-740f-ba05-e0918766ef4a","019ce643-47c6-74a0-b3d2-7bf5651ded46","","1035","
                        <div style=""font-family: Arial; margin-bottom: 20px;""><h3>Which image is more valuable?</h3></div>
                        <div class=""stimulus-container"" style=""display: flex; width: 1100px; justify-content: center; gap: 50px;"">
                            <img src=""images/causal_sequence/the_performance_causal/the_performance_causal_5.png"" class=""exp-image"">
                            <img src=""images/causal_sequence/the_performance_causal/the_performance_causal_7.png"" class=""exp-image"">
                        </div>","0","part3_final_choice","","the_performance_causal","","6","5","-1"
"","","","","","html-keyboard-response","156","750877","0.0-152.0-0.0","B727FF0B207D4626BEFDCD7252B28773","019ce667-771e-740f-ba05-e0918766ef4a","019ce643-47c6-74a0-b3d2-7bf5651ded46","","null","
                        <div style=""font-family: Arial; margin-bottom: 20px;""><h3>Which image is more valuable?</h3></div>
                        <div class=""stimulus-container"" style=""display: flex; width: 1100px; justify-content: center; gap: 50px;"">
                            <img src=""images/causal_sequence/dog_causal/dog_causal_3.png"" class=""exp-image"">
                            <img src=""images/causal_sequence/dog_causal/dog_causal_5.png"" class=""exp-image"">
                        </div>","null","","","","","","",""
"","","","","","html-button-response","157","751949","0.0-152.0-1.0","B727FF0B207D4626BEFDCD7252B28773","019ce667-771e-740f-ba05-e0918766ef4a","019ce643-47c6-74a0-b3d2-7bf5651ded46","","1069","
                        <div style=""font-family: Arial; margin-bottom: 20px;""><h3>Which image is more valuable?</h3></div>
                        <div class=""stimulus-container"" style=""display: flex; width: 1100px; justify-content: center; gap: 50px;"">
                            <img src=""images/causal_sequence/dog_causal/dog_causal_3.png"" class=""exp-image"">
                            <img src=""images/causal_sequence/dog_causal/dog_causal_5.png"" class=""exp-image"">
                        </div>","1","part3_final_choice","","dog_causal","","4","5","1"
"","","","","","html-keyboard-response","158","761953","0.0-153.0-0.0","B727FF0B207D4626BEFDCD7252B28773","019ce667-771e-740f-ba05-e0918766ef4a","019ce643-47c6-74a0-b3d2-7bf5651ded46","","null","
                        <div style=""font-family: Arial; margin-bottom: 20px;""><h3>Which image is more valuable?</h3></div>
                        <div class=""stimulus-container"" style=""display: flex; width: 1100px; justify-content: center; gap: 50px;"">
                            <img src=""images/causal_sequence/package_causal/package_causal_4.png"" class=""exp-image"">
                            <img src=""images/causal_sequence/package_causal/package_causal_6.png"" class=""exp-image"">
                        </div>","null","","","","","","",""
"","","","","","html-button-response","159","762597","0.0-153.0-1.0","B727FF0B207D4626BEFDCD7252B28773","019ce667-771e-740f-ba05-e0918766ef4a","019ce643-47c6-74a0-b3d2-7bf5651ded46","","642","
                        <div style=""font-family: Arial; margin-bottom: 20px;""><h3>Which image is more valuable?</h3></div>
                        <div class=""stimulus-container"" style=""display: flex; width: 1100px; justify-content: center; gap: 50px;"">
                            <img src=""images/causal_sequence/package_causal/package_causal_4.png"" class=""exp-image"">
                            <img src=""images/causal_sequence/package_causal/package_causal_6.png"" class=""exp-image"">
                        </div>","1","part3_final_choice","","package_causal","","5","6","1"
"","","","","","survey-text","160","785356","0.0-154.0","B727FF0B207D4626BEFDCD7252B28773","019ce667-771e-740f-ba05-e0918766ef4a","019ce643-47c6-74a0-b3d2-7bf5651ded46","","22758","","{""gender"":""Female"",""age"":""30"",""decision_strategy"":""what I remembered from part 2"",""consistency_check"":""same logic""}","demographics_and_strategy","","","","","",""
"","","","","","instructions","161","788461","0.0-155.0","B727FF0B207D4626BEFDCD7252B28773","019ce667-771e-740f-ba05-e0918766ef4a","019ce643-47c6-74a0-b3d2-7bf5651ded46","[{""page_index"":0,""viewing_time"":3104}]","3104","","","","","","","","",""
