"success","timeout","failed_images","failed_audio","failed_video","trial_type","trial_index","time_elapsed","internal_node_id","rt","view_history","stimulus","response","task","folder","image_index","valuable_image_index","reward_type","distance_from_x","v_index","n_index","sequence_type","chosen_valuable"
"true","false","[]","[]","[]","preload","0","35","0.0-0.0","","","","","","","","","","","","","",""
"true","","","","","fullscreen","1","2497","0.0-1.0","1454","","","","","","","","","","","","",""
"","","","","","instructions","2","3514","0.0-2.0","1016","[{""page_index"":0,""viewing_time"":1016}]","","","","","","","","","","","",""
"","","","","","html-keyboard-response","3","6522","0.0-3.0","null","","<div style=""background-color: white; width: 100vw; height: 100vh;""></div>","null","","","","","","","","","",""
"","","","","","html-keyboard-response","4","10529","0.0-4.0","null","","<div class=""stimulus-container""><img src=""images/causal_sequence/package_causal/package_causal_1.png"" class=""exp-image""></div>","null","","","","","","","","","",""
"","","","","","html-button-response","5","98506","0.0-5.0","87975","","<div class=""stimulus-container""><img src=""images/causal_sequence/package_causal/package_causal_1.png"" class=""exp-image""><div class=""question-area""><b>Is there a person?</b></div></div>","1","person_check","package_causal","1","","","","","","",""
"","","","","","html-keyboard-response","6","102519","0.0-6.0","null","","<div class=""stimulus-container""><img src=""images/causal_sequence/package_causal/package_causal_2.png"" class=""exp-image""></div>","null","","","","","","","","","",""
"","","","","","html-button-response","7","103114","0.0-7.0","593","","<div class=""stimulus-container""><img src=""images/causal_sequence/package_causal/package_causal_2.png"" class=""exp-image""><div class=""question-area""><b>Is there a person?</b></div></div>","1","person_check","package_causal","2","","","","","","",""
"","","","","","html-keyboard-response","8","107122","0.0-8.0","null","","<div class=""stimulus-container""><img src=""images/causal_sequence/package_causal/package_causal_3.png"" class=""exp-image""></div>","null","","","","","","","","","",""
"","","","","","html-button-response","9","107707","0.0-9.0","584","","<div class=""stimulus-container""><img src=""images/causal_sequence/package_causal/package_causal_3.png"" class=""exp-image""><div class=""question-area""><b>Is there a person?</b></div></div>","1","person_check","package_causal","3","","","","","","",""
"","","","","","html-keyboard-response","10","111719","0.0-10.0","null","","<div class=""stimulus-container""><img src=""images/causal_sequence/package_causal/package_causal_4.png"" class=""exp-image""></div>","null","","","","","","","","","",""
"","","","","","html-button-response","11","112259","0.0-11.0","539","","<div class=""stimulus-container""><img src=""images/causal_sequence/package_causal/package_causal_4.png"" class=""exp-image""><div class=""question-area""><b>Is there a person?</b></div></div>","1","person_check","package_causal","4","","","","","","",""
"","","","","","html-keyboard-response","12","116271","0.0-12.0","null","","<div class=""stimulus-container""><img src=""images/causal_sequence/package_causal/package_causal_5.png"" class=""exp-image""></div>","null","","","","","","","","","",""
"","","","","","html-button-response","13","116852","0.0-13.0","580","","<div class=""stimulus-container""><img src=""images/causal_sequence/package_causal/package_causal_5.png"" class=""exp-image""><div class=""question-area""><b>Is there a person?</b></div></div>","1","person_check","package_causal","5","","","","","","",""
"","","","","","html-keyboard-response","14","120859","0.0-14.0","null","","<div class=""stimulus-container""><img src=""images/causal_sequence/package_causal/package_causal_6.png"" class=""exp-image""></div>","null","","","","","","","","","",""
"","","","","","html-button-response","15","121363","0.0-15.0","503","","<div class=""stimulus-container""><img src=""images/causal_sequence/package_causal/package_causal_6.png"" class=""exp-image""><div class=""question-area""><b>Is there a person?</b></div></div>","1","person_check","package_causal","6","","","","","","",""
"","","","","","html-keyboard-response","16","125370","0.0-16.0","null","","<div class=""stimulus-container""><img src=""images/causal_sequence/package_causal/package_causal_7.png"" class=""exp-image""></div>","null","","","","","","","","","",""
"","","","","","html-button-response","17","125963","0.0-17.0","592","","<div class=""stimulus-container""><img src=""images/causal_sequence/package_causal/package_causal_7.png"" class=""exp-image""><div class=""question-area""><b>Is there a person?</b></div></div>","1","person_check","package_causal","7","","","","","","",""
"","","","","","html-keyboard-response","18","129970","0.0-18.0","null","","<div class=""stimulus-container""><img src=""images/causal_sequence/package_causal/package_causal_8.png"" class=""exp-image""></div>","null","","","","","","","","","",""
"","","","","","html-button-response","19","130254","0.0-19.0","284","","<div class=""stimulus-container""><img src=""images/causal_sequence/package_causal/package_causal_8.png"" class=""exp-image""><div class=""question-area""><b>Is there a person?</b></div></div>","1","person_check","package_causal","8","","","","","","",""
"","","","","","html-keyboard-response","20","134259","0.0-20.0","null","","<div class=""stimulus-container""><img src=""images/causal_sequence/package_causal/package_causal_9.png"" class=""exp-image""></div>","null","","","","","","","","","",""
"","","","","","html-button-response","21","135876","0.0-21.0","1617","","<div class=""stimulus-container""><img src=""images/causal_sequence/package_causal/package_causal_9.png"" class=""exp-image""><div class=""question-area""><b>Is there a person?</b></div></div>","1","person_check","package_causal","9","","","","","","",""
"","","","","","html-keyboard-response","22","139887","0.0-22.0","null","","<div class=""stimulus-container""><img src=""images/causal_sequence/package_causal/package_causal_ten.png"" class=""exp-image""></div>","null","","","","","","","","","",""
"","","","","","html-button-response","23","145263","0.0-23.0","5375","","<div class=""stimulus-container""><img src=""images/causal_sequence/package_causal/package_causal_ten.png"" class=""exp-image""><div class=""question-area""><b>Is there a person?</b></div></div>","1","person_check","package_causal","10","","","","","","",""
"","","","","","html-keyboard-response","24","148267","0.0-24.0","null","","<div style=""background-color: white; width: 100vw; height: 100vh;""></div>","null","","","","","","","","","",""
"","","","","","html-keyboard-response","25","152277","0.0-25.0","null","","<div class=""stimulus-container""><img src=""images/semantic_sequence/self_care_activities_semantic/self_care_activities_semantic_1.png"" class=""exp-image""></div>","null","","","","","","","","","",""
"","","","","","html-button-response","26","156509","0.0-26.0","4231","","<div class=""stimulus-container""><img src=""images/semantic_sequence/self_care_activities_semantic/self_care_activities_semantic_1.png"" class=""exp-image""><div class=""question-area""><b>Is there a person?</b></div></div>","1","person_check","self_care_activities_semantic","1","","","","","","",""
"","","","","","html-keyboard-response","27","160515","0.0-27.0","null","","<div class=""stimulus-container""><img src=""images/semantic_sequence/self_care_activities_semantic/self_care_activities_semantic_2.png"" class=""exp-image""></div>","null","","","","","","","","","",""
"","","","","","html-button-response","28","162669","0.0-28.0","2153","","<div class=""stimulus-container""><img src=""images/semantic_sequence/self_care_activities_semantic/self_care_activities_semantic_2.png"" class=""exp-image""><div class=""question-area""><b>Is there a person?</b></div></div>","1","person_check","self_care_activities_semantic","2","","","","","","",""
"","","","","","html-keyboard-response","29","166675","0.0-29.0","null","","<div class=""stimulus-container""><img src=""images/semantic_sequence/self_care_activities_semantic/self_care_activities_semantic_3.png"" class=""exp-image""></div>","null","","","","","","","","","",""
"","","","","","html-button-response","30","167503","0.0-30.0","827","","<div class=""stimulus-container""><img src=""images/semantic_sequence/self_care_activities_semantic/self_care_activities_semantic_3.png"" class=""exp-image""><div class=""question-area""><b>Is there a person?</b></div></div>","1","person_check","self_care_activities_semantic","3","","","","","","",""
"","","","","","html-keyboard-response","31","171506","0.0-31.0","null","","<div class=""stimulus-container""><img src=""images/semantic_sequence/self_care_activities_semantic/self_care_activities_semantic_4.png"" class=""exp-image""></div>","null","","","","","","","","","",""
"","","","","","html-button-response","32","172435","0.0-32.0","928","","<div class=""stimulus-container""><img src=""images/semantic_sequence/self_care_activities_semantic/self_care_activities_semantic_4.png"" class=""exp-image""><div class=""question-area""><b>Is there a person?</b></div></div>","1","person_check","self_care_activities_semantic","4","","","","","","",""
"","","","","","html-keyboard-response","33","176443","0.0-33.0","null","","<div class=""stimulus-container""><img src=""images/semantic_sequence/self_care_activities_semantic/self_care_activities_semantic_5.png"" class=""exp-image""></div>","null","","","","","","","","","",""
"","","","","","html-button-response","34","177149","0.0-34.0","705","","<div class=""stimulus-container""><img src=""images/semantic_sequence/self_care_activities_semantic/self_care_activities_semantic_5.png"" class=""exp-image""><div class=""question-area""><b>Is there a person?</b></div></div>","1","person_check","self_care_activities_semantic","5","","","","","","",""
"","","","","","html-keyboard-response","35","181155","0.0-35.0","null","","<div class=""stimulus-container""><img src=""images/semantic_sequence/self_care_activities_semantic/self_care_activities_semantic_6.png"" class=""exp-image""></div>","null","","","","","","","","","",""
"","","","","","html-button-response","36","181838","0.0-36.0","682","","<div class=""stimulus-container""><img src=""images/semantic_sequence/self_care_activities_semantic/self_care_activities_semantic_6.png"" class=""exp-image""><div class=""question-area""><b>Is there a person?</b></div></div>","1","person_check","self_care_activities_semantic","6","","","","","","",""
"","","","","","html-keyboard-response","37","185844","0.0-37.0","null","","<div class=""stimulus-container""><img src=""images/semantic_sequence/self_care_activities_semantic/self_care_activities_semantic_7.png"" class=""exp-image""></div>","null","","","","","","","","","",""
"","","","","","html-button-response","38","186406","0.0-38.0","562","","<div class=""stimulus-container""><img src=""images/semantic_sequence/self_care_activities_semantic/self_care_activities_semantic_7.png"" class=""exp-image""><div class=""question-area""><b>Is there a person?</b></div></div>","1","person_check","self_care_activities_semantic","7","","","","","","",""
"","","","","","html-keyboard-response","39","190413","0.0-39.0","null","","<div class=""stimulus-container""><img src=""images/semantic_sequence/self_care_activities_semantic/self_care_activities_semantic_8.png"" class=""exp-image""></div>","null","","","","","","","","","",""
"","","","","","html-button-response","40","191719","0.0-40.0","1304","","<div class=""stimulus-container""><img src=""images/semantic_sequence/self_care_activities_semantic/self_care_activities_semantic_8.png"" class=""exp-image""><div class=""question-area""><b>Is there a person?</b></div></div>","1","person_check","self_care_activities_semantic","8","","","","","","",""
"","","","","","html-keyboard-response","41","195723","0.0-41.0","null","","<div class=""stimulus-container""><img src=""images/semantic_sequence/self_care_activities_semantic/self_care_activities_semantic_9.png"" class=""exp-image""></div>","null","","","","","","","","","",""
"","","","","","html-button-response","42","200183","0.0-42.0","4460","","<div class=""stimulus-container""><img src=""images/semantic_sequence/self_care_activities_semantic/self_care_activities_semantic_9.png"" class=""exp-image""><div class=""question-area""><b>Is there a person?</b></div></div>","1","person_check","self_care_activities_semantic","9","","","","","","",""
"","","","","","html-keyboard-response","43","204187","0.0-43.0","null","","<div class=""stimulus-container""><img src=""images/semantic_sequence/self_care_activities_semantic/self_care_activities_semantic_ten.png"" class=""exp-image""></div>","null","","","","","","","","","",""
"","","","","","html-button-response","44","206830","0.0-44.0","2642","","<div class=""stimulus-container""><img src=""images/semantic_sequence/self_care_activities_semantic/self_care_activities_semantic_ten.png"" class=""exp-image""><div class=""question-area""><b>Is there a person?</b></div></div>","1","person_check","self_care_activities_semantic","10","","","","","","",""
"","","","","","html-keyboard-response","45","209835","0.0-45.0","null","","<div style=""background-color: white; width: 100vw; height: 100vh;""></div>","null","","","","","","","","","",""
"","","","","","html-keyboard-response","46","213844","0.0-46.0","null","","<div class=""stimulus-container""><img src=""images/causal_sequence/saving_a_cat_causal/saving_a_cat_causal_1.png"" class=""exp-image""></div>","null","","","","","","","","","",""
"","","","","","html-button-response","47","214834","0.0-47.0","990","","<div class=""stimulus-container""><img src=""images/causal_sequence/saving_a_cat_causal/saving_a_cat_causal_1.png"" class=""exp-image""><div class=""question-area""><b>Is there a person?</b></div></div>","1","person_check","saving_a_cat_causal","1","","","","","","",""
"","","","","","html-keyboard-response","48","218848","0.0-48.0","null","","<div class=""stimulus-container""><img src=""images/causal_sequence/saving_a_cat_causal/saving_a_cat_causal_2.png"" class=""exp-image""></div>","null","","","","","","","","","",""
"","","","","","html-button-response","49","219621","0.0-49.0","771","","<div class=""stimulus-container""><img src=""images/causal_sequence/saving_a_cat_causal/saving_a_cat_causal_2.png"" class=""exp-image""><div class=""question-area""><b>Is there a person?</b></div></div>","1","person_check","saving_a_cat_causal","2","","","","","","",""
"","","","","","html-keyboard-response","50","223630","0.0-50.0","null","","<div class=""stimulus-container""><img src=""images/causal_sequence/saving_a_cat_causal/saving_a_cat_causal_3.png"" class=""exp-image""></div>","null","","","","","","","","","",""
"","","","","","html-button-response","51","224378","0.0-51.0","746","","<div class=""stimulus-container""><img src=""images/causal_sequence/saving_a_cat_causal/saving_a_cat_causal_3.png"" class=""exp-image""><div class=""question-area""><b>Is there a person?</b></div></div>","1","person_check","saving_a_cat_causal","3","","","","","","",""
"","","","","","html-keyboard-response","52","228385","0.0-52.0","null","","<div class=""stimulus-container""><img src=""images/causal_sequence/saving_a_cat_causal/saving_a_cat_causal_4.png"" class=""exp-image""></div>","null","","","","","","","","","",""
"","","","","","html-button-response","53","232028","0.0-53.0","3641","","<div class=""stimulus-container""><img src=""images/causal_sequence/saving_a_cat_causal/saving_a_cat_causal_4.png"" class=""exp-image""><div class=""question-area""><b>Is there a person?</b></div></div>","1","person_check","saving_a_cat_causal","4","","","","","","",""
"","","","","","html-keyboard-response","54","236033","0.0-54.0","null","","<div class=""stimulus-container""><img src=""images/causal_sequence/saving_a_cat_causal/saving_a_cat_causal_5.png"" class=""exp-image""></div>","null","","","","","","","","","",""
"","","","","","html-button-response","55","236751","0.0-55.0","717","","<div class=""stimulus-container""><img src=""images/causal_sequence/saving_a_cat_causal/saving_a_cat_causal_5.png"" class=""exp-image""><div class=""question-area""><b>Is there a person?</b></div></div>","1","person_check","saving_a_cat_causal","5","","","","","","",""
"","","","","","html-keyboard-response","56","240758","0.0-56.0","null","","<div class=""stimulus-container""><img src=""images/causal_sequence/saving_a_cat_causal/saving_a_cat_causal_6.png"" class=""exp-image""></div>","null","","","","","","","","","",""
"","","","","","html-button-response","57","241796","0.0-57.0","1037","","<div class=""stimulus-container""><img src=""images/causal_sequence/saving_a_cat_causal/saving_a_cat_causal_6.png"" class=""exp-image""><div class=""question-area""><b>Is there a person?</b></div></div>","1","person_check","saving_a_cat_causal","6","","","","","","",""
"","","","","","html-keyboard-response","58","245802","0.0-58.0","null","","<div class=""stimulus-container""><img src=""images/causal_sequence/saving_a_cat_causal/saving_a_cat_causal_7.png"" class=""exp-image""></div>","null","","","","","","","","","",""
"","","","","","html-button-response","59","246422","0.0-59.0","620","","<div class=""stimulus-container""><img src=""images/causal_sequence/saving_a_cat_causal/saving_a_cat_causal_7.png"" class=""exp-image""><div class=""question-area""><b>Is there a person?</b></div></div>","1","person_check","saving_a_cat_causal","7","","","","","","",""
"","","","","","html-keyboard-response","60","250427","0.0-60.0","null","","<div class=""stimulus-container""><img src=""images/causal_sequence/saving_a_cat_causal/saving_a_cat_causal_8.png"" class=""exp-image""></div>","null","","","","","","","","","",""
"","","","","","html-button-response","61","251047","0.0-61.0","619","","<div class=""stimulus-container""><img src=""images/causal_sequence/saving_a_cat_causal/saving_a_cat_causal_8.png"" class=""exp-image""><div class=""question-area""><b>Is there a person?</b></div></div>","1","person_check","saving_a_cat_causal","8","","","","","","",""
"","","","","","html-keyboard-response","62","255054","0.0-62.0","null","","<div class=""stimulus-container""><img src=""images/causal_sequence/saving_a_cat_causal/saving_a_cat_causal_9.png"" class=""exp-image""></div>","null","","","","","","","","","",""
"","","","","","html-button-response","63","255575","0.0-63.0","520","","<div class=""stimulus-container""><img src=""images/causal_sequence/saving_a_cat_causal/saving_a_cat_causal_9.png"" class=""exp-image""><div class=""question-area""><b>Is there a person?</b></div></div>","1","person_check","saving_a_cat_causal","9","","","","","","",""
"","","","","","html-keyboard-response","64","259579","0.0-64.0","null","","<div class=""stimulus-container""><img src=""images/causal_sequence/saving_a_cat_causal/saving_a_cat_causal_ten.png"" class=""exp-image""></div>","null","","","","","","","","","",""
"","","","","","html-button-response","65","261915","0.0-65.0","2334","","<div class=""stimulus-container""><img src=""images/causal_sequence/saving_a_cat_causal/saving_a_cat_causal_ten.png"" class=""exp-image""><div class=""question-area""><b>Is there a person?</b></div></div>","1","person_check","saving_a_cat_causal","10","","","","","","",""
"","","","","","html-keyboard-response","66","264923","0.0-66.0","null","","<div style=""background-color: white; width: 100vw; height: 100vh;""></div>","null","","","","","","","","","",""
"","","","","","html-keyboard-response","67","268931","0.0-67.0","null","","<div class=""stimulus-container""><img src=""images/schematic_sequence/interview_scheme/interview_scheme_1.png"" class=""exp-image""></div>","null","","","","","","","","","",""
"","","","","","html-button-response","68","269450","0.0-68.0","518","","<div class=""stimulus-container""><img src=""images/schematic_sequence/interview_scheme/interview_scheme_1.png"" class=""exp-image""><div class=""question-area""><b>Is there a person?</b></div></div>","1","person_check","interview_scheme","1","","","","","","",""
"","","","","","html-keyboard-response","69","273460","0.0-69.0","null","","<div class=""stimulus-container""><img src=""images/schematic_sequence/interview_scheme/interview_scheme_2.png"" class=""exp-image""></div>","null","","","","","","","","","",""
"","","","","","html-button-response","70","273840","0.0-70.0","380","","<div class=""stimulus-container""><img src=""images/schematic_sequence/interview_scheme/interview_scheme_2.png"" class=""exp-image""><div class=""question-area""><b>Is there a person?</b></div></div>","1","person_check","interview_scheme","2","","","","","","",""
"","","","","","html-keyboard-response","71","277844","0.0-71.0","null","","<div class=""stimulus-container""><img src=""images/schematic_sequence/interview_scheme/interview_scheme_3.png"" class=""exp-image""></div>","null","","","","","","","","","",""
"","","","","","html-button-response","72","278365","0.0-72.0","521","","<div class=""stimulus-container""><img src=""images/schematic_sequence/interview_scheme/interview_scheme_3.png"" class=""exp-image""><div class=""question-area""><b>Is there a person?</b></div></div>","1","person_check","interview_scheme","3","","","","","","",""
"","","","","","html-keyboard-response","73","282372","0.0-73.0","null","","<div class=""stimulus-container""><img src=""images/schematic_sequence/interview_scheme/interview_scheme_4.png"" class=""exp-image""></div>","null","","","","","","","","","",""
"","","","","","html-button-response","74","282853","0.0-74.0","480","","<div class=""stimulus-container""><img src=""images/schematic_sequence/interview_scheme/interview_scheme_4.png"" class=""exp-image""><div class=""question-area""><b>Is there a person?</b></div></div>","1","person_check","interview_scheme","4","","","","","","",""
"","","","","","html-keyboard-response","75","286860","0.0-75.0","null","","<div class=""stimulus-container""><img src=""images/schematic_sequence/interview_scheme/interview_scheme_5.png"" class=""exp-image""></div>","null","","","","","","","","","",""
"","","","","","html-button-response","76","287462","0.0-76.0","600","","<div class=""stimulus-container""><img src=""images/schematic_sequence/interview_scheme/interview_scheme_5.png"" class=""exp-image""><div class=""question-area""><b>Is there a person?</b></div></div>","1","person_check","interview_scheme","5","","","","","","",""
"","","","","","html-keyboard-response","77","291469","0.0-77.0","null","","<div class=""stimulus-container""><img src=""images/schematic_sequence/interview_scheme/interview_scheme_6.png"" class=""exp-image""></div>","null","","","","","","","","","",""
"","","","","","html-button-response","78","292062","0.0-78.0","592","","<div class=""stimulus-container""><img src=""images/schematic_sequence/interview_scheme/interview_scheme_6.png"" class=""exp-image""><div class=""question-area""><b>Is there a person?</b></div></div>","1","person_check","interview_scheme","6","","","","","","",""
"","","","","","html-keyboard-response","79","296070","0.0-79.0","null","","<div class=""stimulus-container""><img src=""images/schematic_sequence/interview_scheme/interview_scheme_7.png"" class=""exp-image""></div>","null","","","","","","","","","",""
"","","","","","html-button-response","80","296947","0.0-80.0","876","","<div class=""stimulus-container""><img src=""images/schematic_sequence/interview_scheme/interview_scheme_7.png"" class=""exp-image""><div class=""question-area""><b>Is there a person?</b></div></div>","1","person_check","interview_scheme","7","","","","","","",""
"","","","","","html-keyboard-response","81","300957","0.0-81.0","null","","<div class=""stimulus-container""><img src=""images/schematic_sequence/interview_scheme/interview_scheme_8.png"" class=""exp-image""></div>","null","","","","","","","","","",""
"","","","","","html-button-response","82","301976","0.0-82.0","1018","","<div class=""stimulus-container""><img src=""images/schematic_sequence/interview_scheme/interview_scheme_8.png"" class=""exp-image""><div class=""question-area""><b>Is there a person?</b></div></div>","1","person_check","interview_scheme","8","","","","","","",""
"","","","","","html-keyboard-response","83","305980","0.0-83.0","null","","<div class=""stimulus-container""><img src=""images/schematic_sequence/interview_scheme/interview_scheme_9.png"" class=""exp-image""></div>","null","","","","","","","","","",""
"","","","","","html-button-response","84","306585","0.0-84.0","604","","<div class=""stimulus-container""><img src=""images/schematic_sequence/interview_scheme/interview_scheme_9.png"" class=""exp-image""><div class=""question-area""><b>Is there a person?</b></div></div>","1","person_check","interview_scheme","9","","","","","","",""
"","","","","","html-keyboard-response","85","310588","0.0-85.0","null","","<div class=""stimulus-container""><img src=""images/schematic_sequence/interview_scheme/interview_scheme_ten.png"" class=""exp-image""></div>","null","","","","","","","","","",""
"","","","","","html-button-response","86","315123","0.0-86.0","4534","","<div class=""stimulus-container""><img src=""images/schematic_sequence/interview_scheme/interview_scheme_ten.png"" class=""exp-image""><div class=""question-area""><b>Is there a person?</b></div></div>","1","person_check","interview_scheme","10","","","","","","",""
"","","","","","html-keyboard-response","87","318136","0.0-87.0","null","","<div style=""background-color: white; width: 100vw; height: 100vh;""></div>","null","","","","","","","","","",""
"","","","","","html-keyboard-response","88","322145","0.0-88.0","null","","<div class=""stimulus-container""><img src=""images/schematic_sequence/hotel_scheme/hotel_scheme_1.png"" class=""exp-image""></div>","null","","","","","","","","","",""
"","","","","","html-button-response","89","322909","0.0-89.0","763","","<div class=""stimulus-container""><img src=""images/schematic_sequence/hotel_scheme/hotel_scheme_1.png"" class=""exp-image""><div class=""question-area""><b>Is there a person?</b></div></div>","1","person_check","hotel_scheme","1","","","","","","",""
"","","","","","html-keyboard-response","90","326917","0.0-90.0","null","","<div class=""stimulus-container""><img src=""images/schematic_sequence/hotel_scheme/hotel_scheme_2.png"" class=""exp-image""></div>","null","","","","","","","","","",""
"","","","","","html-button-response","91","328222","0.0-91.0","1304","","<div class=""stimulus-container""><img src=""images/schematic_sequence/hotel_scheme/hotel_scheme_2.png"" class=""exp-image""><div class=""question-area""><b>Is there a person?</b></div></div>","1","person_check","hotel_scheme","2","","","","","","",""
"","","","","","html-keyboard-response","92","332230","0.0-92.0","null","","<div class=""stimulus-container""><img src=""images/schematic_sequence/hotel_scheme/hotel_scheme_3.png"" class=""exp-image""></div>","null","","","","","","","","","",""
"","","","","","html-button-response","93","334698","0.0-93.0","2468","","<div class=""stimulus-container""><img src=""images/schematic_sequence/hotel_scheme/hotel_scheme_3.png"" class=""exp-image""><div class=""question-area""><b>Is there a person?</b></div></div>","1","person_check","hotel_scheme","3","","","","","","",""
"","","","","","html-keyboard-response","94","338702","0.0-94.0","null","","<div class=""stimulus-container""><img src=""images/schematic_sequence/hotel_scheme/hotel_scheme_4.png"" class=""exp-image""></div>","null","","","","","","","","","",""
"","","","","","html-button-response","95","340196","0.0-95.0","1494","","<div class=""stimulus-container""><img src=""images/schematic_sequence/hotel_scheme/hotel_scheme_4.png"" class=""exp-image""><div class=""question-area""><b>Is there a person?</b></div></div>","1","person_check","hotel_scheme","4","","","","","","",""
"","","","","","html-keyboard-response","96","344206","0.0-96.0","null","","<div class=""stimulus-container""><img src=""images/schematic_sequence/hotel_scheme/hotel_scheme_5.png"" class=""exp-image""></div>","null","","","","","","","","","",""
"","","","","","html-button-response","97","344821","0.0-97.0","614","","<div class=""stimulus-container""><img src=""images/schematic_sequence/hotel_scheme/hotel_scheme_5.png"" class=""exp-image""><div class=""question-area""><b>Is there a person?</b></div></div>","1","person_check","hotel_scheme","5","","","","","","",""
"","","","","","html-keyboard-response","98","348829","0.0-98.0","null","","<div class=""stimulus-container""><img src=""images/schematic_sequence/hotel_scheme/hotel_scheme_6.png"" class=""exp-image""></div>","null","","","","","","","","","",""
"","","","","","html-button-response","99","349212","0.0-99.0","382","","<div class=""stimulus-container""><img src=""images/schematic_sequence/hotel_scheme/hotel_scheme_6.png"" class=""exp-image""><div class=""question-area""><b>Is there a person?</b></div></div>","1","person_check","hotel_scheme","6","","","","","","",""
"","","","","","html-keyboard-response","100","353226","0.0-100.0","null","","<div class=""stimulus-container""><img src=""images/schematic_sequence/hotel_scheme/hotel_scheme_7.png"" class=""exp-image""></div>","null","","","","","","","","","",""
"","","","","","html-button-response","101","354832","0.0-101.0","1605","","<div class=""stimulus-container""><img src=""images/schematic_sequence/hotel_scheme/hotel_scheme_7.png"" class=""exp-image""><div class=""question-area""><b>Is there a person?</b></div></div>","1","person_check","hotel_scheme","7","","","","","","",""
"","","","","","html-keyboard-response","102","358838","0.0-102.0","null","","<div class=""stimulus-container""><img src=""images/schematic_sequence/hotel_scheme/hotel_scheme_8.png"" class=""exp-image""></div>","null","","","","","","","","","",""
"","","","","","html-button-response","103","361857","0.0-103.0","3018","","<div class=""stimulus-container""><img src=""images/schematic_sequence/hotel_scheme/hotel_scheme_8.png"" class=""exp-image""><div class=""question-area""><b>Is there a person?</b></div></div>","1","person_check","hotel_scheme","8","","","","","","",""
"","","","","","html-keyboard-response","104","365865","0.0-104.0","null","","<div class=""stimulus-container""><img src=""images/schematic_sequence/hotel_scheme/hotel_scheme_9.png"" class=""exp-image""></div>","null","","","","","","","","","",""
"","","","","","html-button-response","105","368172","0.0-105.0","2307","","<div class=""stimulus-container""><img src=""images/schematic_sequence/hotel_scheme/hotel_scheme_9.png"" class=""exp-image""><div class=""question-area""><b>Is there a person?</b></div></div>","1","person_check","hotel_scheme","9","","","","","","",""
"","","","","","html-keyboard-response","106","372182","0.0-106.0","null","","<div class=""stimulus-container""><img src=""images/schematic_sequence/hotel_scheme/hotel_scheme_ten.png"" class=""exp-image""></div>","null","","","","","","","","","",""
"","","","","","html-button-response","107","372894","0.0-107.0","711","","<div class=""stimulus-container""><img src=""images/schematic_sequence/hotel_scheme/hotel_scheme_ten.png"" class=""exp-image""><div class=""question-area""><b>Is there a person?</b></div></div>","1","person_check","hotel_scheme","10","","","","","","",""
"","","","","","html-keyboard-response","108","375901","0.0-108.0","null","","<div style=""background-color: white; width: 100vw; height: 100vh;""></div>","null","","","","","","","","","",""
"","","","","","html-keyboard-response","109","379910","0.0-109.0","null","","<div class=""stimulus-container""><img src=""images/causal_sequence/the_performance_causal/the_performance_causal_1.png"" class=""exp-image""></div>","null","","","","","","","","","",""
"","","","","","html-button-response","110","380624","0.0-110.0","713","","<div class=""stimulus-container""><img src=""images/causal_sequence/the_performance_causal/the_performance_causal_1.png"" class=""exp-image""><div class=""question-area""><b>Is there a person?</b></div></div>","1","person_check","the_performance_causal","1","","","","","","",""
"","","","","","html-keyboard-response","111","384630","0.0-111.0","null","","<div class=""stimulus-container""><img src=""images/causal_sequence/the_performance_causal/the_performance_causal_2.png"" class=""exp-image""></div>","null","","","","","","","","","",""
"","","","","","html-button-response","112","385145","0.0-112.0","513","","<div class=""stimulus-container""><img src=""images/causal_sequence/the_performance_causal/the_performance_causal_2.png"" class=""exp-image""><div class=""question-area""><b>Is there a person?</b></div></div>","1","person_check","the_performance_causal","2","","","","","","",""
"","","","","","html-keyboard-response","113","389152","0.0-113.0","null","","<div class=""stimulus-container""><img src=""images/causal_sequence/the_performance_causal/the_performance_causal_3.png"" class=""exp-image""></div>","null","","","","","","","","","",""
"","","","","","html-button-response","114","395000","0.0-114.0","5848","","<div class=""stimulus-container""><img src=""images/causal_sequence/the_performance_causal/the_performance_causal_3.png"" class=""exp-image""><div class=""question-area""><b>Is there a person?</b></div></div>","1","person_check","the_performance_causal","3","","","","","","",""
"","","","","","html-keyboard-response","115","399009","0.0-115.0","null","","<div class=""stimulus-container""><img src=""images/causal_sequence/the_performance_causal/the_performance_causal_4.png"" class=""exp-image""></div>","null","","","","","","","","","",""
"","","","","","html-button-response","116","400450","0.0-116.0","1440","","<div class=""stimulus-container""><img src=""images/causal_sequence/the_performance_causal/the_performance_causal_4.png"" class=""exp-image""><div class=""question-area""><b>Is there a person?</b></div></div>","1","person_check","the_performance_causal","4","","","","","","",""
"","","","","","html-keyboard-response","117","404459","0.0-117.0","null","","<div class=""stimulus-container""><img src=""images/causal_sequence/the_performance_causal/the_performance_causal_5.png"" class=""exp-image""></div>","null","","","","","","","","","",""
"","","","","","html-button-response","118","406599","0.0-118.0","2140","","<div class=""stimulus-container""><img src=""images/causal_sequence/the_performance_causal/the_performance_causal_5.png"" class=""exp-image""><div class=""question-area""><b>Is there a person?</b></div></div>","1","person_check","the_performance_causal","5","","","","","","",""
"","","","","","html-keyboard-response","119","410608","0.0-119.0","null","","<div class=""stimulus-container""><img src=""images/causal_sequence/the_performance_causal/the_performance_causal_6.png"" class=""exp-image""></div>","null","","","","","","","","","",""
"","","","","","html-button-response","120","411735","0.0-120.0","1126","","<div class=""stimulus-container""><img src=""images/causal_sequence/the_performance_causal/the_performance_causal_6.png"" class=""exp-image""><div class=""question-area""><b>Is there a person?</b></div></div>","1","person_check","the_performance_causal","6","","","","","","",""
"","","","","","html-keyboard-response","121","415742","0.0-121.0","null","","<div class=""stimulus-container""><img src=""images/causal_sequence/the_performance_causal/the_performance_causal_7.png"" class=""exp-image""></div>","null","","","","","","","","","",""
"","","","","","html-button-response","122","416691","0.0-122.0","948","","<div class=""stimulus-container""><img src=""images/causal_sequence/the_performance_causal/the_performance_causal_7.png"" class=""exp-image""><div class=""question-area""><b>Is there a person?</b></div></div>","1","person_check","the_performance_causal","7","","","","","","",""
"","","","","","html-keyboard-response","123","420698","0.0-123.0","null","","<div class=""stimulus-container""><img src=""images/causal_sequence/the_performance_causal/the_performance_causal_8.png"" class=""exp-image""></div>","null","","","","","","","","","",""
"","","","","","html-button-response","124","421890","0.0-124.0","1191","","<div class=""stimulus-container""><img src=""images/causal_sequence/the_performance_causal/the_performance_causal_8.png"" class=""exp-image""><div class=""question-area""><b>Is there a person?</b></div></div>","1","person_check","the_performance_causal","8","","","","","","",""
"","","","","","html-keyboard-response","125","425898","0.0-125.0","null","","<div class=""stimulus-container""><img src=""images/causal_sequence/the_performance_causal/the_performance_causal_9.png"" class=""exp-image""></div>","null","","","","","","","","","",""
"","","","","","html-button-response","126","426919","0.0-126.0","1020","","<div class=""stimulus-container""><img src=""images/causal_sequence/the_performance_causal/the_performance_causal_9.png"" class=""exp-image""><div class=""question-area""><b>Is there a person?</b></div></div>","1","person_check","the_performance_causal","9","","","","","","",""
"","","","","","html-keyboard-response","127","430927","0.0-127.0","null","","<div class=""stimulus-container""><img src=""images/causal_sequence/the_performance_causal/the_performance_causal_ten.png"" class=""exp-image""></div>","null","","","","","","","","","",""
"","","","","","html-button-response","128","431456","0.0-128.0","528","","<div class=""stimulus-container""><img src=""images/causal_sequence/the_performance_causal/the_performance_causal_ten.png"" class=""exp-image""><div class=""question-area""><b>Is there a person?</b></div></div>","1","person_check","the_performance_causal","10","","","","","","",""
"","","","","","html-keyboard-response","129","434462","0.0-129.0","null","","<div style=""background-color: white; width: 100vw; height: 100vh;""></div>","null","","","","","","","","","",""
"","","","","","html-keyboard-response","130","438476","0.0-130.0","null","","<div class=""stimulus-container""><img src=""images/semantic_sequence/visiting_cities_semantic/visiting_cities_semantic_1.png"" class=""exp-image""></div>","null","","","","","","","","","",""
"","","","","","html-button-response","131","438837","0.0-131.0","360","","<div class=""stimulus-container""><img src=""images/semantic_sequence/visiting_cities_semantic/visiting_cities_semantic_1.png"" class=""exp-image""><div class=""question-area""><b>Is there a person?</b></div></div>","1","person_check","visiting_cities_semantic","1","","","","","","",""
"","","","","","html-keyboard-response","132","442839","0.0-132.0","null","","<div class=""stimulus-container""><img src=""images/semantic_sequence/visiting_cities_semantic/visiting_cities_semantic_2.png"" class=""exp-image""></div>","null","","","","","","","","","",""
"","","","","","html-button-response","133","445197","0.0-133.0","2357","","<div class=""stimulus-container""><img src=""images/semantic_sequence/visiting_cities_semantic/visiting_cities_semantic_2.png"" class=""exp-image""><div class=""question-area""><b>Is there a person?</b></div></div>","1","person_check","visiting_cities_semantic","2","","","","","","",""
"","","","","","html-keyboard-response","134","449208","0.0-134.0","null","","<div class=""stimulus-container""><img src=""images/semantic_sequence/visiting_cities_semantic/visiting_cities_semantic_3.png"" class=""exp-image""></div>","null","","","","","","","","","",""
"","","","","","html-button-response","135","452688","0.0-135.0","3479","","<div class=""stimulus-container""><img src=""images/semantic_sequence/visiting_cities_semantic/visiting_cities_semantic_3.png"" class=""exp-image""><div class=""question-area""><b>Is there a person?</b></div></div>","0","person_check","visiting_cities_semantic","3","","","","","","",""
"","","","","","html-keyboard-response","136","456699","0.0-136.0","null","","<div class=""stimulus-container""><img src=""images/semantic_sequence/visiting_cities_semantic/visiting_cities_semantic_4.png"" class=""exp-image""></div>","null","","","","","","","","","",""
"","","","","","html-button-response","137","457944","0.0-137.0","1244","","<div class=""stimulus-container""><img src=""images/semantic_sequence/visiting_cities_semantic/visiting_cities_semantic_4.png"" class=""exp-image""><div class=""question-area""><b>Is there a person?</b></div></div>","0","person_check","visiting_cities_semantic","4","","","","","","",""
"","","","","","html-keyboard-response","138","461952","0.0-138.0","null","","<div class=""stimulus-container""><img src=""images/semantic_sequence/visiting_cities_semantic/visiting_cities_semantic_5.png"" class=""exp-image""></div>","null","","","","","","","","","",""
"","","","","","html-button-response","139","462488","0.0-139.0","535","","<div class=""stimulus-container""><img src=""images/semantic_sequence/visiting_cities_semantic/visiting_cities_semantic_5.png"" class=""exp-image""><div class=""question-area""><b>Is there a person?</b></div></div>","0","person_check","visiting_cities_semantic","5","","","","","","",""
"","","","","","html-keyboard-response","140","466495","0.0-140.0","null","","<div class=""stimulus-container""><img src=""images/semantic_sequence/visiting_cities_semantic/visiting_cities_semantic_6.png"" class=""exp-image""></div>","null","","","","","","","","","",""
"","","","","","html-button-response","141","466960","0.0-141.0","465","","<div class=""stimulus-container""><img src=""images/semantic_sequence/visiting_cities_semantic/visiting_cities_semantic_6.png"" class=""exp-image""><div class=""question-area""><b>Is there a person?</b></div></div>","0","person_check","visiting_cities_semantic","6","","","","","","",""
"","","","","","html-keyboard-response","142","470971","0.0-142.0","null","","<div class=""stimulus-container""><img src=""images/semantic_sequence/visiting_cities_semantic/visiting_cities_semantic_7.png"" class=""exp-image""></div>","null","","","","","","","","","",""
"","","","","","html-button-response","143","471336","0.0-143.0","364","","<div class=""stimulus-container""><img src=""images/semantic_sequence/visiting_cities_semantic/visiting_cities_semantic_7.png"" class=""exp-image""><div class=""question-area""><b>Is there a person?</b></div></div>","0","person_check","visiting_cities_semantic","7","","","","","","",""
"","","","","","html-keyboard-response","144","475346","0.0-144.0","null","","<div class=""stimulus-container""><img src=""images/semantic_sequence/visiting_cities_semantic/visiting_cities_semantic_8.png"" class=""exp-image""></div>","null","","","","","","","","","",""
"","","","","","html-button-response","145","478744","0.0-145.0","3397","","<div class=""stimulus-container""><img src=""images/semantic_sequence/visiting_cities_semantic/visiting_cities_semantic_8.png"" class=""exp-image""><div class=""question-area""><b>Is there a person?</b></div></div>","0","person_check","visiting_cities_semantic","8","","","","","","",""
"","","","","","html-keyboard-response","146","482751","0.0-146.0","null","","<div class=""stimulus-container""><img src=""images/semantic_sequence/visiting_cities_semantic/visiting_cities_semantic_9.png"" class=""exp-image""></div>","null","","","","","","","","","",""
"","","","","","html-button-response","147","484137","0.0-147.0","1385","","<div class=""stimulus-container""><img src=""images/semantic_sequence/visiting_cities_semantic/visiting_cities_semantic_9.png"" class=""exp-image""><div class=""question-area""><b>Is there a person?</b></div></div>","0","person_check","visiting_cities_semantic","9","","","","","","",""
"","","","","","html-keyboard-response","148","488144","0.0-148.0","null","","<div class=""stimulus-container""><img src=""images/semantic_sequence/visiting_cities_semantic/visiting_cities_semantic_ten.png"" class=""exp-image""></div>","null","","","","","","","","","",""
"","","","","","html-button-response","149","488808","0.0-149.0","664","","<div class=""stimulus-container""><img src=""images/semantic_sequence/visiting_cities_semantic/visiting_cities_semantic_ten.png"" class=""exp-image""><div class=""question-area""><b>Is there a person?</b></div></div>","0","person_check","visiting_cities_semantic","10","","","","","","",""
"","","","","","html-keyboard-response","150","491815","0.0-150.0","null","","<div style=""background-color: white; width: 100vw; height: 100vh;""></div>","null","","","","","","","","","",""
"","","","","","html-keyboard-response","151","495824","0.0-151.0","null","","<div class=""stimulus-container""><img src=""images/causal_sequence/dog_causal/dog_causal_1.png"" class=""exp-image""></div>","null","","","","","","","","","",""
"","","","","","html-button-response","152","498225","0.0-152.0","2400","","<div class=""stimulus-container""><img src=""images/causal_sequence/dog_causal/dog_causal_1.png"" class=""exp-image""><div class=""question-area""><b>Is there a person?</b></div></div>","0","person_check","dog_causal","1","","","","","","",""
"","","","","","html-keyboard-response","153","502236","0.0-153.0","null","","<div class=""stimulus-container""><img src=""images/causal_sequence/dog_causal/dog_causal_2.png"" class=""exp-image""></div>","null","","","","","","","","","",""
"","","","","","html-button-response","154","504273","0.0-154.0","2036","","<div class=""stimulus-container""><img src=""images/causal_sequence/dog_causal/dog_causal_2.png"" class=""exp-image""><div class=""question-area""><b>Is there a person?</b></div></div>","0","person_check","dog_causal","2","","","","","","",""
"","","","","","html-keyboard-response","155","508279","0.0-155.0","null","","<div class=""stimulus-container""><img src=""images/causal_sequence/dog_causal/dog_causal_3.png"" class=""exp-image""></div>","null","","","","","","","","","",""
"","","","","","html-button-response","156","509905","0.0-156.0","1625","","<div class=""stimulus-container""><img src=""images/causal_sequence/dog_causal/dog_causal_3.png"" class=""exp-image""><div class=""question-area""><b>Is there a person?</b></div></div>","0","person_check","dog_causal","3","","","","","","",""
"","","","","","html-keyboard-response","157","513913","0.0-157.0","null","","<div class=""stimulus-container""><img src=""images/causal_sequence/dog_causal/dog_causal_4.png"" class=""exp-image""></div>","null","","","","","","","","","",""
"","","","","","html-button-response","158","515241","0.0-158.0","1327","","<div class=""stimulus-container""><img src=""images/causal_sequence/dog_causal/dog_causal_4.png"" class=""exp-image""><div class=""question-area""><b>Is there a person?</b></div></div>","0","person_check","dog_causal","4","","","","","","",""
"","","","","","html-keyboard-response","159","519253","0.0-159.0","null","","<div class=""stimulus-container""><img src=""images/causal_sequence/dog_causal/dog_causal_5.png"" class=""exp-image""></div>","null","","","","","","","","","",""
"","","","","","html-button-response","160","520809","0.0-160.0","1555","","<div class=""stimulus-container""><img src=""images/causal_sequence/dog_causal/dog_causal_5.png"" class=""exp-image""><div class=""question-area""><b>Is there a person?</b></div></div>","0","person_check","dog_causal","5","","","","","","",""
"","","","","","html-keyboard-response","161","524816","0.0-161.0","null","","<div class=""stimulus-container""><img src=""images/causal_sequence/dog_causal/dog_causal_6.png"" class=""exp-image""></div>","null","","","","","","","","","",""
"","","","","","html-button-response","162","527641","0.0-162.0","2824","","<div class=""stimulus-container""><img src=""images/causal_sequence/dog_causal/dog_causal_6.png"" class=""exp-image""><div class=""question-area""><b>Is there a person?</b></div></div>","0","person_check","dog_causal","6","","","","","","",""
"","","","","","html-keyboard-response","163","531648","0.0-163.0","null","","<div class=""stimulus-container""><img src=""images/causal_sequence/dog_causal/dog_causal_7.png"" class=""exp-image""></div>","null","","","","","","","","","",""
"","","","","","html-button-response","164","536265","0.0-164.0","4616","","<div class=""stimulus-container""><img src=""images/causal_sequence/dog_causal/dog_causal_7.png"" class=""exp-image""><div class=""question-area""><b>Is there a person?</b></div></div>","0","person_check","dog_causal","7","","","","","","",""
"","","","","","html-keyboard-response","165","540277","0.0-165.0","null","","<div class=""stimulus-container""><img src=""images/causal_sequence/dog_causal/dog_causal_8.png"" class=""exp-image""></div>","null","","","","","","","","","",""
"","","","","","html-button-response","166","541330","0.0-166.0","1052","","<div class=""stimulus-container""><img src=""images/causal_sequence/dog_causal/dog_causal_8.png"" class=""exp-image""><div class=""question-area""><b>Is there a person?</b></div></div>","0","person_check","dog_causal","8","","","","","","",""
"","","","","","html-keyboard-response","167","545337","0.0-167.0","null","","<div class=""stimulus-container""><img src=""images/causal_sequence/dog_causal/dog_causal_9.png"" class=""exp-image""></div>","null","","","","","","","","","",""
"","","","","","html-button-response","168","546389","0.0-168.0","1051","","<div class=""stimulus-container""><img src=""images/causal_sequence/dog_causal/dog_causal_9.png"" class=""exp-image""><div class=""question-area""><b>Is there a person?</b></div></div>","0","person_check","dog_causal","9","","","","","","",""
"","","","","","html-keyboard-response","169","550393","0.0-169.0","null","","<div class=""stimulus-container""><img src=""images/causal_sequence/dog_causal/dog_causal_ten.png"" class=""exp-image""></div>","null","","","","","","","","","",""
"","","","","","html-button-response","170","553201","0.0-170.0","2807","","<div class=""stimulus-container""><img src=""images/causal_sequence/dog_causal/dog_causal_ten.png"" class=""exp-image""><div class=""question-area""><b>Is there a person?</b></div></div>","0","person_check","dog_causal","10","","","","","","",""
"","","","","","html-keyboard-response","171","556213","0.0-171.0","null","","<div style=""background-color: white; width: 100vw; height: 100vh;""></div>","null","","","","","","","","","",""
"","","","","","html-keyboard-response","172","560221","0.0-172.0","null","","<div class=""stimulus-container""><img src=""images/semantic_sequence/physical_activity_semantic/physical_activity_semantic_1.png"" class=""exp-image""></div>","null","","","","","","","","","",""
"","","","","","html-button-response","173","561274","0.0-173.0","1052","","<div class=""stimulus-container""><img src=""images/semantic_sequence/physical_activity_semantic/physical_activity_semantic_1.png"" class=""exp-image""><div class=""question-area""><b>Is there a person?</b></div></div>","0","person_check","physical_activity_semantic","1","","","","","","",""
"","","","","","html-keyboard-response","174","565281","0.0-174.0","null","","<div class=""stimulus-container""><img src=""images/semantic_sequence/physical_activity_semantic/physical_activity_semantic_2.png"" class=""exp-image""></div>","null","","","","","","","","","",""
"","","","","","html-button-response","175","566650","0.0-175.0","1368","","<div class=""stimulus-container""><img src=""images/semantic_sequence/physical_activity_semantic/physical_activity_semantic_2.png"" class=""exp-image""><div class=""question-area""><b>Is there a person?</b></div></div>","0","person_check","physical_activity_semantic","2","","","","","","",""
"","","","","","html-keyboard-response","176","570657","0.0-176.0","null","","<div class=""stimulus-container""><img src=""images/semantic_sequence/physical_activity_semantic/physical_activity_semantic_3.png"" class=""exp-image""></div>","null","","","","","","","","","",""
"","","","","","html-button-response","177","570882","0.0-177.0","224","","<div class=""stimulus-container""><img src=""images/semantic_sequence/physical_activity_semantic/physical_activity_semantic_3.png"" class=""exp-image""><div class=""question-area""><b>Is there a person?</b></div></div>","0","person_check","physical_activity_semantic","3","","","","","","",""
"","","","","","html-keyboard-response","178","574888","0.0-178.0","null","","<div class=""stimulus-container""><img src=""images/semantic_sequence/physical_activity_semantic/physical_activity_semantic_4.png"" class=""exp-image""></div>","null","","","","","","","","","",""
"","","","","","html-button-response","179","575586","0.0-179.0","697","","<div class=""stimulus-container""><img src=""images/semantic_sequence/physical_activity_semantic/physical_activity_semantic_4.png"" class=""exp-image""><div class=""question-area""><b>Is there a person?</b></div></div>","0","person_check","physical_activity_semantic","4","","","","","","",""
"","","","","","html-keyboard-response","180","579593","0.0-180.0","null","","<div class=""stimulus-container""><img src=""images/semantic_sequence/physical_activity_semantic/physical_activity_semantic_5.png"" class=""exp-image""></div>","null","","","","","","","","","",""
"","","","","","html-button-response","181","581538","0.0-181.0","1944","","<div class=""stimulus-container""><img src=""images/semantic_sequence/physical_activity_semantic/physical_activity_semantic_5.png"" class=""exp-image""><div class=""question-area""><b>Is there a person?</b></div></div>","0","person_check","physical_activity_semantic","5","","","","","","",""
"","","","","","html-keyboard-response","182","585545","0.0-182.0","null","","<div class=""stimulus-container""><img src=""images/semantic_sequence/physical_activity_semantic/physical_activity_semantic_6.png"" class=""exp-image""></div>","null","","","","","","","","","",""
"","","","","","html-button-response","183","586130","0.0-183.0","584","","<div class=""stimulus-container""><img src=""images/semantic_sequence/physical_activity_semantic/physical_activity_semantic_6.png"" class=""exp-image""><div class=""question-area""><b>Is there a person?</b></div></div>","0","person_check","physical_activity_semantic","6","","","","","","",""
"","","","","","html-keyboard-response","184","590142","0.0-184.0","null","","<div class=""stimulus-container""><img src=""images/semantic_sequence/physical_activity_semantic/physical_activity_semantic_7.png"" class=""exp-image""></div>","null","","","","","","","","","",""
"","","","","","html-button-response","185","593419","0.0-185.0","3276","","<div class=""stimulus-container""><img src=""images/semantic_sequence/physical_activity_semantic/physical_activity_semantic_7.png"" class=""exp-image""><div class=""question-area""><b>Is there a person?</b></div></div>","0","person_check","physical_activity_semantic","7","","","","","","",""
"","","","","","html-keyboard-response","186","597426","0.0-186.0","null","","<div class=""stimulus-container""><img src=""images/semantic_sequence/physical_activity_semantic/physical_activity_semantic_8.png"" class=""exp-image""></div>","null","","","","","","","","","",""
"","","","","","html-button-response","187","602578","0.0-187.0","5151","","<div class=""stimulus-container""><img src=""images/semantic_sequence/physical_activity_semantic/physical_activity_semantic_8.png"" class=""exp-image""><div class=""question-area""><b>Is there a person?</b></div></div>","0","person_check","physical_activity_semantic","8","","","","","","",""
"","","","","","html-keyboard-response","188","606591","0.0-188.0","null","","<div class=""stimulus-container""><img src=""images/semantic_sequence/physical_activity_semantic/physical_activity_semantic_9.png"" class=""exp-image""></div>","null","","","","","","","","","",""
"","","","","","html-button-response","189","607386","0.0-189.0","795","","<div class=""stimulus-container""><img src=""images/semantic_sequence/physical_activity_semantic/physical_activity_semantic_9.png"" class=""exp-image""><div class=""question-area""><b>Is there a person?</b></div></div>","0","person_check","physical_activity_semantic","9","","","","","","",""
"","","","","","html-keyboard-response","190","611393","0.0-190.0","null","","<div class=""stimulus-container""><img src=""images/semantic_sequence/physical_activity_semantic/physical_activity_semantic_ten.png"" class=""exp-image""></div>","null","","","","","","","","","",""
"","","","","","html-button-response","191","612203","0.0-191.0","808","","<div class=""stimulus-container""><img src=""images/semantic_sequence/physical_activity_semantic/physical_activity_semantic_ten.png"" class=""exp-image""><div class=""question-area""><b>Is there a person?</b></div></div>","0","person_check","physical_activity_semantic","10","","","","","","",""
"","","","","","html-keyboard-response","192","615209","0.0-192.0","null","","<div style=""background-color: white; width: 100vw; height: 100vh;""></div>","null","","","","","","","","","",""
"","","","","","html-keyboard-response","193","619214","0.0-193.0","null","","<div class=""stimulus-container""><img src=""images/causal_sequence/museum_causal/museum_causal_1.png"" class=""exp-image""></div>","null","","","","","","","","","",""
"","","","","","html-button-response","194","620851","0.0-194.0","1635","","<div class=""stimulus-container""><img src=""images/causal_sequence/museum_causal/museum_causal_1.png"" class=""exp-image""><div class=""question-area""><b>Is there a person?</b></div></div>","0","person_check","museum_causal","1","","","","","","",""
"","","","","","html-keyboard-response","195","624863","0.0-195.0","null","","<div class=""stimulus-container""><img src=""images/causal_sequence/museum_causal/museum_causal_2.png"" class=""exp-image""></div>","null","","","","","","","","","",""
"","","","","","html-button-response","196","625627","0.0-196.0","763","","<div class=""stimulus-container""><img src=""images/causal_sequence/museum_causal/museum_causal_2.png"" class=""exp-image""><div class=""question-area""><b>Is there a person?</b></div></div>","0","person_check","museum_causal","2","","","","","","",""
"","","","","","html-keyboard-response","197","629635","0.0-197.0","null","","<div class=""stimulus-container""><img src=""images/causal_sequence/museum_causal/museum_causal_3.png"" class=""exp-image""></div>","null","","","","","","","","","",""
"","","","","","html-button-response","198","631699","0.0-198.0","2063","","<div class=""stimulus-container""><img src=""images/causal_sequence/museum_causal/museum_causal_3.png"" class=""exp-image""><div class=""question-area""><b>Is there a person?</b></div></div>","0","person_check","museum_causal","3","","","","","","",""
"","","","","","html-keyboard-response","199","635711","0.0-199.0","null","","<div class=""stimulus-container""><img src=""images/causal_sequence/museum_causal/museum_causal_4.png"" class=""exp-image""></div>","null","","","","","","","","","",""
"","","","","","html-button-response","200","638347","0.0-200.0","2635","","<div class=""stimulus-container""><img src=""images/causal_sequence/museum_causal/museum_causal_4.png"" class=""exp-image""><div class=""question-area""><b>Is there a person?</b></div></div>","0","person_check","museum_causal","4","","","","","","",""
"","","","","","html-keyboard-response","201","642354","0.0-201.0","null","","<div class=""stimulus-container""><img src=""images/causal_sequence/museum_causal/museum_causal_5.png"" class=""exp-image""></div>","null","","","","","","","","","",""
"","","","","","html-button-response","202","643027","0.0-202.0","672","","<div class=""stimulus-container""><img src=""images/causal_sequence/museum_causal/museum_causal_5.png"" class=""exp-image""><div class=""question-area""><b>Is there a person?</b></div></div>","0","person_check","museum_causal","5","","","","","","",""
"","","","","","html-keyboard-response","203","647031","0.0-203.0","null","","<div class=""stimulus-container""><img src=""images/causal_sequence/museum_causal/museum_causal_6.png"" class=""exp-image""></div>","null","","","","","","","","","",""
"","","","","","html-button-response","204","648603","0.0-204.0","1571","","<div class=""stimulus-container""><img src=""images/causal_sequence/museum_causal/museum_causal_6.png"" class=""exp-image""><div class=""question-area""><b>Is there a person?</b></div></div>","0","person_check","museum_causal","6","","","","","","",""
"","","","","","html-keyboard-response","205","652614","0.0-205.0","null","","<div class=""stimulus-container""><img src=""images/causal_sequence/museum_causal/museum_causal_7.png"" class=""exp-image""></div>","null","","","","","","","","","",""
"","","","","","html-button-response","206","653051","0.0-206.0","436","","<div class=""stimulus-container""><img src=""images/causal_sequence/museum_causal/museum_causal_7.png"" class=""exp-image""><div class=""question-area""><b>Is there a person?</b></div></div>","0","person_check","museum_causal","7","","","","","","",""
"","","","","","html-keyboard-response","207","657063","0.0-207.0","null","","<div class=""stimulus-container""><img src=""images/causal_sequence/museum_causal/museum_causal_8.png"" class=""exp-image""></div>","null","","","","","","","","","",""
"","","","","","html-button-response","208","657867","0.0-208.0","803","","<div class=""stimulus-container""><img src=""images/causal_sequence/museum_causal/museum_causal_8.png"" class=""exp-image""><div class=""question-area""><b>Is there a person?</b></div></div>","0","person_check","museum_causal","8","","","","","","",""
"","","","","","html-keyboard-response","209","661879","0.0-209.0","null","","<div class=""stimulus-container""><img src=""images/causal_sequence/museum_causal/museum_causal_9.png"" class=""exp-image""></div>","null","","","","","","","","","",""
"","","","","","html-button-response","210","663587","0.0-210.0","1707","","<div class=""stimulus-container""><img src=""images/causal_sequence/museum_causal/museum_causal_9.png"" class=""exp-image""><div class=""question-area""><b>Is there a person?</b></div></div>","0","person_check","museum_causal","9","","","","","","",""
"","","","","","html-keyboard-response","211","667594","0.0-211.0","null","","<div class=""stimulus-container""><img src=""images/causal_sequence/museum_causal/museum_causal_ten.png"" class=""exp-image""></div>","null","","","","","","","","","",""
"","","","","","html-button-response","212","668468","0.0-212.0","872","","<div class=""stimulus-container""><img src=""images/causal_sequence/museum_causal/museum_causal_ten.png"" class=""exp-image""><div class=""question-area""><b>Is there a person?</b></div></div>","0","person_check","museum_causal","10","","","","","","",""
"","","","","","html-keyboard-response","213","671471","0.0-213.0","null","","<div style=""background-color: white; width: 100vw; height: 100vh;""></div>","null","","","","","","","","","",""
"","","","","","html-keyboard-response","214","675474","0.0-214.0","null","","<div class=""stimulus-container""><img src=""images/schematic_sequence/supermarket_scheme/supermarket_scheme_1.png"" class=""exp-image""></div>","null","","","","","","","","","",""
"","","","","","html-button-response","215","677300","0.0-215.0","1824","","<div class=""stimulus-container""><img src=""images/schematic_sequence/supermarket_scheme/supermarket_scheme_1.png"" class=""exp-image""><div class=""question-area""><b>Is there a person?</b></div></div>","0","person_check","supermarket_scheme","1","","","","","","",""
"","","","","","html-keyboard-response","216","681309","0.0-216.0","null","","<div class=""stimulus-container""><img src=""images/schematic_sequence/supermarket_scheme/supermarket_scheme_2.png"" class=""exp-image""></div>","null","","","","","","","","","",""
"","","","","","html-button-response","217","681996","0.0-217.0","686","","<div class=""stimulus-container""><img src=""images/schematic_sequence/supermarket_scheme/supermarket_scheme_2.png"" class=""exp-image""><div class=""question-area""><b>Is there a person?</b></div></div>","0","person_check","supermarket_scheme","2","","","","","","",""
"","","","","","html-keyboard-response","218","686003","0.0-218.0","null","","<div class=""stimulus-container""><img src=""images/schematic_sequence/supermarket_scheme/supermarket_scheme_3.png"" class=""exp-image""></div>","null","","","","","","","","","",""
"","","","","","html-button-response","219","686764","0.0-219.0","760","","<div class=""stimulus-container""><img src=""images/schematic_sequence/supermarket_scheme/supermarket_scheme_3.png"" class=""exp-image""><div class=""question-area""><b>Is there a person?</b></div></div>","0","person_check","supermarket_scheme","3","","","","","","",""
"","","","","","html-keyboard-response","220","690775","0.0-220.0","null","","<div class=""stimulus-container""><img src=""images/schematic_sequence/supermarket_scheme/supermarket_scheme_4.png"" class=""exp-image""></div>","null","","","","","","","","","",""
"","","","","","html-button-response","221","691052","0.0-221.0","277","","<div class=""stimulus-container""><img src=""images/schematic_sequence/supermarket_scheme/supermarket_scheme_4.png"" class=""exp-image""><div class=""question-area""><b>Is there a person?</b></div></div>","0","person_check","supermarket_scheme","4","","","","","","",""
"","","","","","html-keyboard-response","222","695064","0.0-222.0","null","","<div class=""stimulus-container""><img src=""images/schematic_sequence/supermarket_scheme/supermarket_scheme_5.png"" class=""exp-image""></div>","null","","","","","","","","","",""
"","","","","","html-button-response","223","699700","0.0-223.0","4635","","<div class=""stimulus-container""><img src=""images/schematic_sequence/supermarket_scheme/supermarket_scheme_5.png"" class=""exp-image""><div class=""question-area""><b>Is there a person?</b></div></div>","0","person_check","supermarket_scheme","5","","","","","","",""
"","","","","","html-keyboard-response","224","703711","0.0-224.0","null","","<div class=""stimulus-container""><img src=""images/schematic_sequence/supermarket_scheme/supermarket_scheme_6.png"" class=""exp-image""></div>","null","","","","","","","","","",""
"","","","","","html-button-response","225","706748","0.0-225.0","3036","","<div class=""stimulus-container""><img src=""images/schematic_sequence/supermarket_scheme/supermarket_scheme_6.png"" class=""exp-image""><div class=""question-area""><b>Is there a person?</b></div></div>","0","person_check","supermarket_scheme","6","","","","","","",""
"","","","","","html-keyboard-response","226","710755","0.0-226.0","null","","<div class=""stimulus-container""><img src=""images/schematic_sequence/supermarket_scheme/supermarket_scheme_7.png"" class=""exp-image""></div>","null","","","","","","","","","",""
"","","","","","html-button-response","227","713788","0.0-227.0","3032","","<div class=""stimulus-container""><img src=""images/schematic_sequence/supermarket_scheme/supermarket_scheme_7.png"" class=""exp-image""><div class=""question-area""><b>Is there a person?</b></div></div>","0","person_check","supermarket_scheme","7","","","","","","",""
"","","","","","html-keyboard-response","228","717795","0.0-228.0","null","","<div class=""stimulus-container""><img src=""images/schematic_sequence/supermarket_scheme/supermarket_scheme_8.png"" class=""exp-image""></div>","null","","","","","","","","","",""
"","","","","","html-button-response","229","719444","0.0-229.0","1648","","<div class=""stimulus-container""><img src=""images/schematic_sequence/supermarket_scheme/supermarket_scheme_8.png"" class=""exp-image""><div class=""question-area""><b>Is there a person?</b></div></div>","0","person_check","supermarket_scheme","8","","","","","","",""
"","","","","","html-keyboard-response","230","723451","0.0-230.0","null","","<div class=""stimulus-container""><img src=""images/schematic_sequence/supermarket_scheme/supermarket_scheme_9.png"" class=""exp-image""></div>","null","","","","","","","","","",""
"","","","","","html-button-response","231","725829","0.0-231.0","2376","","<div class=""stimulus-container""><img src=""images/schematic_sequence/supermarket_scheme/supermarket_scheme_9.png"" class=""exp-image""><div class=""question-area""><b>Is there a person?</b></div></div>","0","person_check","supermarket_scheme","9","","","","","","",""
"","","","","","html-keyboard-response","232","729838","0.0-232.0","null","","<div class=""stimulus-container""><img src=""images/schematic_sequence/supermarket_scheme/supermarket_scheme_ten.png"" class=""exp-image""></div>","null","","","","","","","","","",""
"","","","","","html-button-response","233","730477","0.0-233.0","638","","<div class=""stimulus-container""><img src=""images/schematic_sequence/supermarket_scheme/supermarket_scheme_ten.png"" class=""exp-image""><div class=""question-area""><b>Is there a person?</b></div></div>","0","person_check","supermarket_scheme","10","","","","","","",""
"","","","","","html-keyboard-response","234","733484","0.0-234.0","null","","<div style=""background-color: white; width: 100vw; height: 100vh;""></div>","null","","","","","","","","","",""
"","","","","","html-keyboard-response","235","737496","0.0-235.0","null","","<div class=""stimulus-container""><img src=""images/semantic_sequence/maintaining_a_car_semantic/maintaining_a_car_semantic_1.png"" class=""exp-image""></div>","null","","","","","","","","","",""
"","","","","","html-button-response","236","737741","0.0-236.0","243","","<div class=""stimulus-container""><img src=""images/semantic_sequence/maintaining_a_car_semantic/maintaining_a_car_semantic_1.png"" class=""exp-image""><div class=""question-area""><b>Is there a person?</b></div></div>","0","person_check","maintaining_a_car_semantic","1","","","","","","",""
"","","","","","html-keyboard-response","237","741748","0.0-237.0","null","","<div class=""stimulus-container""><img src=""images/semantic_sequence/maintaining_a_car_semantic/maintaining_a_car_semantic_2.png"" class=""exp-image""></div>","null","","","","","","","","","",""
"","","","","","html-button-response","238","742373","0.0-238.0","624","","<div class=""stimulus-container""><img src=""images/semantic_sequence/maintaining_a_car_semantic/maintaining_a_car_semantic_2.png"" class=""exp-image""><div class=""question-area""><b>Is there a person?</b></div></div>","0","person_check","maintaining_a_car_semantic","2","","","","","","",""
"","","","","","html-keyboard-response","239","746379","0.0-239.0","null","","<div class=""stimulus-container""><img src=""images/semantic_sequence/maintaining_a_car_semantic/maintaining_a_car_semantic_3.png"" class=""exp-image""></div>","null","","","","","","","","","",""
"","","","","","html-button-response","240","746717","0.0-240.0","337","","<div class=""stimulus-container""><img src=""images/semantic_sequence/maintaining_a_car_semantic/maintaining_a_car_semantic_3.png"" class=""exp-image""><div class=""question-area""><b>Is there a person?</b></div></div>","0","person_check","maintaining_a_car_semantic","3","","","","","","",""
"","","","","","html-keyboard-response","241","750729","0.0-241.0","null","","<div class=""stimulus-container""><img src=""images/semantic_sequence/maintaining_a_car_semantic/maintaining_a_car_semantic_4.png"" class=""exp-image""></div>","null","","","","","","","","","",""
"","","","","","html-button-response","242","751645","0.0-242.0","915","","<div class=""stimulus-container""><img src=""images/semantic_sequence/maintaining_a_car_semantic/maintaining_a_car_semantic_4.png"" class=""exp-image""><div class=""question-area""><b>Is there a person?</b></div></div>","0","person_check","maintaining_a_car_semantic","4","","","","","","",""
"","","","","","html-keyboard-response","243","755652","0.0-243.0","null","","<div class=""stimulus-container""><img src=""images/semantic_sequence/maintaining_a_car_semantic/maintaining_a_car_semantic_5.png"" class=""exp-image""></div>","null","","","","","","","","","",""
"","","","","","html-button-response","244","756309","0.0-244.0","656","","<div class=""stimulus-container""><img src=""images/semantic_sequence/maintaining_a_car_semantic/maintaining_a_car_semantic_5.png"" class=""exp-image""><div class=""question-area""><b>Is there a person?</b></div></div>","0","person_check","maintaining_a_car_semantic","5","","","","","","",""
"","","","","","html-keyboard-response","245","760316","0.0-245.0","null","","<div class=""stimulus-container""><img src=""images/semantic_sequence/maintaining_a_car_semantic/maintaining_a_car_semantic_6.png"" class=""exp-image""></div>","null","","","","","","","","","",""
"","","","","","html-button-response","246","762429","0.0-246.0","2112","","<div class=""stimulus-container""><img src=""images/semantic_sequence/maintaining_a_car_semantic/maintaining_a_car_semantic_6.png"" class=""exp-image""><div class=""question-area""><b>Is there a person?</b></div></div>","0","person_check","maintaining_a_car_semantic","6","","","","","","",""
"","","","","","html-keyboard-response","247","766436","0.0-247.0","null","","<div class=""stimulus-container""><img src=""images/semantic_sequence/maintaining_a_car_semantic/maintaining_a_car_semantic_7.png"" class=""exp-image""></div>","null","","","","","","","","","",""
"","","","","","html-button-response","248","767221","0.0-248.0","784","","<div class=""stimulus-container""><img src=""images/semantic_sequence/maintaining_a_car_semantic/maintaining_a_car_semantic_7.png"" class=""exp-image""><div class=""question-area""><b>Is there a person?</b></div></div>","0","person_check","maintaining_a_car_semantic","7","","","","","","",""
"","","","","","html-keyboard-response","249","771231","0.0-249.0","null","","<div class=""stimulus-container""><img src=""images/semantic_sequence/maintaining_a_car_semantic/maintaining_a_car_semantic_8.png"" class=""exp-image""></div>","null","","","","","","","","","",""
"","","","","","html-button-response","250","771837","0.0-250.0","605","","<div class=""stimulus-container""><img src=""images/semantic_sequence/maintaining_a_car_semantic/maintaining_a_car_semantic_8.png"" class=""exp-image""><div class=""question-area""><b>Is there a person?</b></div></div>","0","person_check","maintaining_a_car_semantic","8","","","","","","",""
"","","","","","html-keyboard-response","251","775844","0.0-251.0","null","","<div class=""stimulus-container""><img src=""images/semantic_sequence/maintaining_a_car_semantic/maintaining_a_car_semantic_9.png"" class=""exp-image""></div>","null","","","","","","","","","",""
"","","","","","html-button-response","252","776645","0.0-252.0","800","","<div class=""stimulus-container""><img src=""images/semantic_sequence/maintaining_a_car_semantic/maintaining_a_car_semantic_9.png"" class=""exp-image""><div class=""question-area""><b>Is there a person?</b></div></div>","0","person_check","maintaining_a_car_semantic","9","","","","","","",""
"","","","","","html-keyboard-response","253","780652","0.0-253.0","null","","<div class=""stimulus-container""><img src=""images/semantic_sequence/maintaining_a_car_semantic/maintaining_a_car_semantic_ten.png"" class=""exp-image""></div>","null","","","","","","","","","",""
"","","","","","html-button-response","254","781653","0.0-254.0","1001","","<div class=""stimulus-container""><img src=""images/semantic_sequence/maintaining_a_car_semantic/maintaining_a_car_semantic_ten.png"" class=""exp-image""><div class=""question-area""><b>Is there a person?</b></div></div>","0","person_check","maintaining_a_car_semantic","10","","","","","","",""
"","","","","","html-keyboard-response","255","784660","0.0-255.0","null","","<div style=""background-color: white; width: 100vw; height: 100vh;""></div>","null","","","","","","","","","",""
"","","","","","html-keyboard-response","256","788669","0.0-256.0","null","","<div class=""stimulus-container""><img src=""images/semantic_sequence/housework_semantic/housework_semantic_1.png"" class=""exp-image""></div>","null","","","","","","","","","",""
"","","","","","html-button-response","257","790133","0.0-257.0","1463","","<div class=""stimulus-container""><img src=""images/semantic_sequence/housework_semantic/housework_semantic_1.png"" class=""exp-image""><div class=""question-area""><b>Is there a person?</b></div></div>","0","person_check","housework_semantic","1","","","","","","",""
"","","","","","html-keyboard-response","258","794140","0.0-258.0","null","","<div class=""stimulus-container""><img src=""images/semantic_sequence/housework_semantic/housework_semantic_2.png"" class=""exp-image""></div>","null","","","","","","","","","",""
"","","","","","html-button-response","259","794702","0.0-259.0","561","","<div class=""stimulus-container""><img src=""images/semantic_sequence/housework_semantic/housework_semantic_2.png"" class=""exp-image""><div class=""question-area""><b>Is there a person?</b></div></div>","0","person_check","housework_semantic","2","","","","","","",""
"","","","","","html-keyboard-response","260","798708","0.0-260.0","null","","<div class=""stimulus-container""><img src=""images/semantic_sequence/housework_semantic/housework_semantic_3.png"" class=""exp-image""></div>","null","","","","","","","","","",""
"","","","","","html-button-response","261","799774","0.0-261.0","1065","","<div class=""stimulus-container""><img src=""images/semantic_sequence/housework_semantic/housework_semantic_3.png"" class=""exp-image""><div class=""question-area""><b>Is there a person?</b></div></div>","0","person_check","housework_semantic","3","","","","","","",""
"","","","","","html-keyboard-response","262","803784","0.0-262.0","null","","<div class=""stimulus-container""><img src=""images/semantic_sequence/housework_semantic/housework_semantic_4.png"" class=""exp-image""></div>","null","","","","","","","","","",""
"","","","","","html-button-response","263","804590","0.0-263.0","805","","<div class=""stimulus-container""><img src=""images/semantic_sequence/housework_semantic/housework_semantic_4.png"" class=""exp-image""><div class=""question-area""><b>Is there a person?</b></div></div>","0","person_check","housework_semantic","4","","","","","","",""
"","","","","","html-keyboard-response","264","808596","0.0-264.0","null","","<div class=""stimulus-container""><img src=""images/semantic_sequence/housework_semantic/housework_semantic_5.png"" class=""exp-image""></div>","null","","","","","","","","","",""
"","","","","","html-button-response","265","809814","0.0-265.0","1216","","<div class=""stimulus-container""><img src=""images/semantic_sequence/housework_semantic/housework_semantic_5.png"" class=""exp-image""><div class=""question-area""><b>Is there a person?</b></div></div>","0","person_check","housework_semantic","5","","","","","","",""
"","","","","","html-keyboard-response","266","813824","0.0-266.0","null","","<div class=""stimulus-container""><img src=""images/semantic_sequence/housework_semantic/housework_semantic_6.png"" class=""exp-image""></div>","null","","","","","","","","","",""
"","","","","","html-button-response","267","814278","0.0-267.0","453","","<div class=""stimulus-container""><img src=""images/semantic_sequence/housework_semantic/housework_semantic_6.png"" class=""exp-image""><div class=""question-area""><b>Is there a person?</b></div></div>","0","person_check","housework_semantic","6","","","","","","",""
"","","","","","html-keyboard-response","268","818289","0.0-268.0","null","","<div class=""stimulus-container""><img src=""images/semantic_sequence/housework_semantic/housework_semantic_7.png"" class=""exp-image""></div>","null","","","","","","","","","",""
"","","","","","html-button-response","269","818766","0.0-269.0","476","","<div class=""stimulus-container""><img src=""images/semantic_sequence/housework_semantic/housework_semantic_7.png"" class=""exp-image""><div class=""question-area""><b>Is there a person?</b></div></div>","0","person_check","housework_semantic","7","","","","","","",""
"","","","","","html-keyboard-response","270","822773","0.0-270.0","null","","<div class=""stimulus-container""><img src=""images/semantic_sequence/housework_semantic/housework_semantic_8.png"" class=""exp-image""></div>","null","","","","","","","","","",""
"","","","","","html-button-response","271","823214","0.0-271.0","440","","<div class=""stimulus-container""><img src=""images/semantic_sequence/housework_semantic/housework_semantic_8.png"" class=""exp-image""><div class=""question-area""><b>Is there a person?</b></div></div>","0","person_check","housework_semantic","8","","","","","","",""
"","","","","","html-keyboard-response","272","827226","0.0-272.0","null","","<div class=""stimulus-container""><img src=""images/semantic_sequence/housework_semantic/housework_semantic_9.png"" class=""exp-image""></div>","null","","","","","","","","","",""
"","","","","","html-button-response","273","829750","0.0-273.0","2523","","<div class=""stimulus-container""><img src=""images/semantic_sequence/housework_semantic/housework_semantic_9.png"" class=""exp-image""><div class=""question-area""><b>Is there a person?</b></div></div>","0","person_check","housework_semantic","9","","","","","","",""
"","","","","","html-keyboard-response","274","833757","0.0-274.0","null","","<div class=""stimulus-container""><img src=""images/semantic_sequence/housework_semantic/housework_semantic_ten.png"" class=""exp-image""></div>","null","","","","","","","","","",""
"","","","","","html-button-response","275","834454","0.0-275.0","696","","<div class=""stimulus-container""><img src=""images/semantic_sequence/housework_semantic/housework_semantic_ten.png"" class=""exp-image""><div class=""question-area""><b>Is there a person?</b></div></div>","0","person_check","housework_semantic","10","","","","","","",""
"","","","","","html-keyboard-response","276","837466","0.0-276.0","null","","<div style=""background-color: white; width: 100vw; height: 100vh;""></div>","null","","","","","","","","","",""
"","","","","","html-keyboard-response","277","841469","0.0-277.0","null","","<div class=""stimulus-container""><img src=""images/causal_sequence/coin_causal/coin_causal_1.png"" class=""exp-image""></div>","null","","","","","","","","","",""
"","","","","","html-button-response","278","842127","0.0-278.0","656","","<div class=""stimulus-container""><img src=""images/causal_sequence/coin_causal/coin_causal_1.png"" class=""exp-image""><div class=""question-area""><b>Is there a person?</b></div></div>","0","person_check","coin_causal","1","","","","","","",""
"","","","","","html-keyboard-response","279","846133","0.0-279.0","null","","<div class=""stimulus-container""><img src=""images/causal_sequence/coin_causal/coin_causal_2.png"" class=""exp-image""></div>","null","","","","","","","","","",""
"","","","","","html-button-response","280","846726","0.0-280.0","592","","<div class=""stimulus-container""><img src=""images/causal_sequence/coin_causal/coin_causal_2.png"" class=""exp-image""><div class=""question-area""><b>Is there a person?</b></div></div>","0","person_check","coin_causal","2","","","","","","",""
"","","","","","html-keyboard-response","281","850734","0.0-281.0","null","","<div class=""stimulus-container""><img src=""images/causal_sequence/coin_causal/coin_causal_3.png"" class=""exp-image""></div>","null","","","","","","","","","",""
"","","","","","html-button-response","282","851351","0.0-282.0","616","","<div class=""stimulus-container""><img src=""images/causal_sequence/coin_causal/coin_causal_3.png"" class=""exp-image""><div class=""question-area""><b>Is there a person?</b></div></div>","0","person_check","coin_causal","3","","","","","","",""
"","","","","","html-keyboard-response","283","855358","0.0-283.0","null","","<div class=""stimulus-container""><img src=""images/causal_sequence/coin_causal/coin_causal_4.png"" class=""exp-image""></div>","null","","","","","","","","","",""
"","","","","","html-button-response","284","857711","0.0-284.0","2352","","<div class=""stimulus-container""><img src=""images/causal_sequence/coin_causal/coin_causal_4.png"" class=""exp-image""><div class=""question-area""><b>Is there a person?</b></div></div>","0","person_check","coin_causal","4","","","","","","",""
"","","","","","html-keyboard-response","285","861718","0.0-285.0","null","","<div class=""stimulus-container""><img src=""images/causal_sequence/coin_causal/coin_causal_5.png"" class=""exp-image""></div>","null","","","","","","","","","",""
"","","","","","html-button-response","286","863647","0.0-286.0","1928","","<div class=""stimulus-container""><img src=""images/causal_sequence/coin_causal/coin_causal_5.png"" class=""exp-image""><div class=""question-area""><b>Is there a person?</b></div></div>","0","person_check","coin_causal","5","","","","","","",""
"","","","","","html-keyboard-response","287","867654","0.0-287.0","null","","<div class=""stimulus-container""><img src=""images/causal_sequence/coin_causal/coin_causal_6.png"" class=""exp-image""></div>","null","","","","","","","","","",""
"","","","","","html-button-response","288","870391","0.0-288.0","2737","","<div class=""stimulus-container""><img src=""images/causal_sequence/coin_causal/coin_causal_6.png"" class=""exp-image""><div class=""question-area""><b>Is there a person?</b></div></div>","0","person_check","coin_causal","6","","","","","","",""
"","","","","","html-keyboard-response","289","874398","0.0-289.0","null","","<div class=""stimulus-container""><img src=""images/causal_sequence/coin_causal/coin_causal_7.png"" class=""exp-image""></div>","null","","","","","","","","","",""
"","","","","","html-button-response","290","874791","0.0-290.0","392","","<div class=""stimulus-container""><img src=""images/causal_sequence/coin_causal/coin_causal_7.png"" class=""exp-image""><div class=""question-area""><b>Is there a person?</b></div></div>","0","person_check","coin_causal","7","","","","","","",""
"","","","","","html-keyboard-response","291","878798","0.0-291.0","null","","<div class=""stimulus-container""><img src=""images/causal_sequence/coin_causal/coin_causal_8.png"" class=""exp-image""></div>","null","","","","","","","","","",""
"","","","","","html-button-response","292","881055","0.0-292.0","2256","","<div class=""stimulus-container""><img src=""images/causal_sequence/coin_causal/coin_causal_8.png"" class=""exp-image""><div class=""question-area""><b>Is there a person?</b></div></div>","0","person_check","coin_causal","8","","","","","","",""
"","","","","","html-keyboard-response","293","885061","0.0-293.0","null","","<div class=""stimulus-container""><img src=""images/causal_sequence/coin_causal/coin_causal_9.png"" class=""exp-image""></div>","null","","","","","","","","","",""
"","","","","","html-button-response","294","885687","0.0-294.0","625","","<div class=""stimulus-container""><img src=""images/causal_sequence/coin_causal/coin_causal_9.png"" class=""exp-image""><div class=""question-area""><b>Is there a person?</b></div></div>","0","person_check","coin_causal","9","","","","","","",""
"","","","","","html-keyboard-response","295","889696","0.0-295.0","null","","<div class=""stimulus-container""><img src=""images/causal_sequence/coin_causal/coin_causal_ten.png"" class=""exp-image""></div>","null","","","","","","","","","",""
"","","","","","html-button-response","296","890247","0.0-296.0","550","","<div class=""stimulus-container""><img src=""images/causal_sequence/coin_causal/coin_causal_ten.png"" class=""exp-image""><div class=""question-area""><b>Is there a person?</b></div></div>","0","person_check","coin_causal","10","","","","","","",""
"","","","","","html-keyboard-response","297","893259","0.0-297.0","null","","<div style=""background-color: white; width: 100vw; height: 100vh;""></div>","null","","","","","","","","","",""
"","","","","","html-keyboard-response","298","897263","0.0-298.0","null","","<div class=""stimulus-container""><img src=""images/schematic_sequence/dinner_party_scheme/dinner_party_scheme_1.png"" class=""exp-image""></div>","null","","","","","","","","","",""
"","","","","","html-button-response","299","898303","0.0-299.0","1039","","<div class=""stimulus-container""><img src=""images/schematic_sequence/dinner_party_scheme/dinner_party_scheme_1.png"" class=""exp-image""><div class=""question-area""><b>Is there a person?</b></div></div>","0","person_check","dinner_party_scheme","1","","","","","","",""
"","","","","","html-keyboard-response","300","902312","0.0-300.0","null","","<div class=""stimulus-container""><img src=""images/schematic_sequence/dinner_party_scheme/dinner_party_scheme_2.png"" class=""exp-image""></div>","null","","","","","","","","","",""
"","","","","","html-button-response","301","904704","0.0-301.0","2390","","<div class=""stimulus-container""><img src=""images/schematic_sequence/dinner_party_scheme/dinner_party_scheme_2.png"" class=""exp-image""><div class=""question-area""><b>Is there a person?</b></div></div>","0","person_check","dinner_party_scheme","2","","","","","","",""
"","","","","","html-keyboard-response","302","908713","0.0-302.0","null","","<div class=""stimulus-container""><img src=""images/schematic_sequence/dinner_party_scheme/dinner_party_scheme_3.png"" class=""exp-image""></div>","null","","","","","","","","","",""
"","","","","","html-button-response","303","911256","0.0-303.0","2542","","<div class=""stimulus-container""><img src=""images/schematic_sequence/dinner_party_scheme/dinner_party_scheme_3.png"" class=""exp-image""><div class=""question-area""><b>Is there a person?</b></div></div>","0","person_check","dinner_party_scheme","3","","","","","","",""
"","","","","","html-keyboard-response","304","915262","0.0-304.0","null","","<div class=""stimulus-container""><img src=""images/schematic_sequence/dinner_party_scheme/dinner_party_scheme_4.png"" class=""exp-image""></div>","null","","","","","","","","","",""
"","","","","","html-button-response","305","918960","0.0-305.0","3696","","<div class=""stimulus-container""><img src=""images/schematic_sequence/dinner_party_scheme/dinner_party_scheme_4.png"" class=""exp-image""><div class=""question-area""><b>Is there a person?</b></div></div>","0","person_check","dinner_party_scheme","4","","","","","","",""
"","","","","","html-keyboard-response","306","922963","0.0-306.0","null","","<div class=""stimulus-container""><img src=""images/schematic_sequence/dinner_party_scheme/dinner_party_scheme_5.png"" class=""exp-image""></div>","null","","","","","","","","","",""
"","","","","","html-button-response","307","924408","0.0-307.0","1444","","<div class=""stimulus-container""><img src=""images/schematic_sequence/dinner_party_scheme/dinner_party_scheme_5.png"" class=""exp-image""><div class=""question-area""><b>Is there a person?</b></div></div>","1","person_check","dinner_party_scheme","5","","","","","","",""
"","","","","","html-keyboard-response","308","928416","0.0-308.0","null","","<div class=""stimulus-container""><img src=""images/schematic_sequence/dinner_party_scheme/dinner_party_scheme_6.png"" class=""exp-image""></div>","null","","","","","","","","","",""
"","","","","","html-button-response","309","931832","0.0-309.0","3415","","<div class=""stimulus-container""><img src=""images/schematic_sequence/dinner_party_scheme/dinner_party_scheme_6.png"" class=""exp-image""><div class=""question-area""><b>Is there a person?</b></div></div>","1","person_check","dinner_party_scheme","6","","","","","","",""
"","","","","","html-keyboard-response","310","935837","0.0-310.0","null","","<div class=""stimulus-container""><img src=""images/schematic_sequence/dinner_party_scheme/dinner_party_scheme_7.png"" class=""exp-image""></div>","null","","","","","","","","","",""
"","","","","","html-button-response","311","936912","0.0-311.0","1074","","<div class=""stimulus-container""><img src=""images/schematic_sequence/dinner_party_scheme/dinner_party_scheme_7.png"" class=""exp-image""><div class=""question-area""><b>Is there a person?</b></div></div>","1","person_check","dinner_party_scheme","7","","","","","","",""
"","","","","","html-keyboard-response","312","940919","0.0-312.0","null","","<div class=""stimulus-container""><img src=""images/schematic_sequence/dinner_party_scheme/dinner_party_scheme_8.png"" class=""exp-image""></div>","null","","","","","","","","","",""
"","","","","","html-button-response","313","947088","0.0-313.0","6168","","<div class=""stimulus-container""><img src=""images/schematic_sequence/dinner_party_scheme/dinner_party_scheme_8.png"" class=""exp-image""><div class=""question-area""><b>Is there a person?</b></div></div>","1","person_check","dinner_party_scheme","8","","","","","","",""
"","","","","","html-keyboard-response","314","951098","0.0-314.0","null","","<div class=""stimulus-container""><img src=""images/schematic_sequence/dinner_party_scheme/dinner_party_scheme_9.png"" class=""exp-image""></div>","null","","","","","","","","","",""
"","","","","","html-button-response","315","951792","0.0-315.0","693","","<div class=""stimulus-container""><img src=""images/schematic_sequence/dinner_party_scheme/dinner_party_scheme_9.png"" class=""exp-image""><div class=""question-area""><b>Is there a person?</b></div></div>","1","person_check","dinner_party_scheme","9","","","","","","",""
"","","","","","html-keyboard-response","316","955800","0.0-316.0","null","","<div class=""stimulus-container""><img src=""images/schematic_sequence/dinner_party_scheme/dinner_party_scheme_ten.png"" class=""exp-image""></div>","null","","","","","","","","","",""
"","","","","","html-button-response","317","956297","0.0-317.0","496","","<div class=""stimulus-container""><img src=""images/schematic_sequence/dinner_party_scheme/dinner_party_scheme_ten.png"" class=""exp-image""><div class=""question-area""><b>Is there a person?</b></div></div>","1","person_check","dinner_party_scheme","10","","","","","","",""
"","","","","","html-keyboard-response","318","959305","0.0-318.0","null","","<div style=""background-color: white; width: 100vw; height: 100vh;""></div>","null","","","","","","","","","",""
"","","","","","html-keyboard-response","319","963312","0.0-319.0","null","","<div class=""stimulus-container""><img src=""images/schematic_sequence/restaurant_scheme/restaurant_scheme_1.png"" class=""exp-image""></div>","null","","","","","","","","","",""
"","","","","","html-button-response","320","964096","0.0-320.0","784","","<div class=""stimulus-container""><img src=""images/schematic_sequence/restaurant_scheme/restaurant_scheme_1.png"" class=""exp-image""><div class=""question-area""><b>Is there a person?</b></div></div>","1","person_check","restaurant_scheme","1","","","","","","",""
"","","","","","html-keyboard-response","321","968103","0.0-321.0","null","","<div class=""stimulus-container""><img src=""images/schematic_sequence/restaurant_scheme/restaurant_scheme_2.png"" class=""exp-image""></div>","null","","","","","","","","","",""
"","","","","","html-button-response","322","969440","0.0-322.0","1336","","<div class=""stimulus-container""><img src=""images/schematic_sequence/restaurant_scheme/restaurant_scheme_2.png"" class=""exp-image""><div class=""question-area""><b>Is there a person?</b></div></div>","1","person_check","restaurant_scheme","2","","","","","","",""
"","","","","","html-keyboard-response","323","973450","0.0-323.0","null","","<div class=""stimulus-container""><img src=""images/schematic_sequence/restaurant_scheme/restaurant_scheme_3.png"" class=""exp-image""></div>","null","","","","","","","","","",""
"","","","","","html-button-response","324","973993","0.0-324.0","541","","<div class=""stimulus-container""><img src=""images/schematic_sequence/restaurant_scheme/restaurant_scheme_3.png"" class=""exp-image""><div class=""question-area""><b>Is there a person?</b></div></div>","1","person_check","restaurant_scheme","3","","","","","","",""
"","","","","","html-keyboard-response","325","978000","0.0-325.0","null","","<div class=""stimulus-container""><img src=""images/schematic_sequence/restaurant_scheme/restaurant_scheme_4.png"" class=""exp-image""></div>","null","","","","","","","","","",""
"","","","","","html-button-response","326","978609","0.0-326.0","608","","<div class=""stimulus-container""><img src=""images/schematic_sequence/restaurant_scheme/restaurant_scheme_4.png"" class=""exp-image""><div class=""question-area""><b>Is there a person?</b></div></div>","1","person_check","restaurant_scheme","4","","","","","","",""
"","","","","","html-keyboard-response","327","982615","0.0-327.0","null","","<div class=""stimulus-container""><img src=""images/schematic_sequence/restaurant_scheme/restaurant_scheme_5.png"" class=""exp-image""></div>","null","","","","","","","","","",""
"","","","","","html-button-response","328","983073","0.0-328.0","456","","<div class=""stimulus-container""><img src=""images/schematic_sequence/restaurant_scheme/restaurant_scheme_5.png"" class=""exp-image""><div class=""question-area""><b>Is there a person?</b></div></div>","1","person_check","restaurant_scheme","5","","","","","","",""
"","","","","","html-keyboard-response","329","987085","0.0-329.0","null","","<div class=""stimulus-container""><img src=""images/schematic_sequence/restaurant_scheme/restaurant_scheme_6.png"" class=""exp-image""></div>","null","","","","","","","","","",""
"","","","","","html-button-response","330","987833","0.0-330.0","748","","<div class=""stimulus-container""><img src=""images/schematic_sequence/restaurant_scheme/restaurant_scheme_6.png"" class=""exp-image""><div class=""question-area""><b>Is there a person?</b></div></div>","1","person_check","restaurant_scheme","6","","","","","","",""
"","","","","","html-keyboard-response","331","991840","0.0-331.0","null","","<div class=""stimulus-container""><img src=""images/schematic_sequence/restaurant_scheme/restaurant_scheme_7.png"" class=""exp-image""></div>","null","","","","","","","","","",""
"","","","","","html-button-response","332","994025","0.0-332.0","2184","","<div class=""stimulus-container""><img src=""images/schematic_sequence/restaurant_scheme/restaurant_scheme_7.png"" class=""exp-image""><div class=""question-area""><b>Is there a person?</b></div></div>","1","person_check","restaurant_scheme","7","","","","","","",""
"","","","","","html-keyboard-response","333","998032","0.0-333.0","null","","<div class=""stimulus-container""><img src=""images/schematic_sequence/restaurant_scheme/restaurant_scheme_8.png"" class=""exp-image""></div>","null","","","","","","","","","",""
"","","","","","html-button-response","334","998610","0.0-334.0","577","","<div class=""stimulus-container""><img src=""images/schematic_sequence/restaurant_scheme/restaurant_scheme_8.png"" class=""exp-image""><div class=""question-area""><b>Is there a person?</b></div></div>","1","person_check","restaurant_scheme","8","","","","","","",""
"","","","","","html-keyboard-response","335","1002616","0.0-335.0","null","","<div class=""stimulus-container""><img src=""images/schematic_sequence/restaurant_scheme/restaurant_scheme_9.png"" class=""exp-image""></div>","null","","","","","","","","","",""
