"success","timeout","failed_images","failed_audio","failed_video","trial_type","trial_index","time_elapsed","internal_node_id","subject_id","study_id","session_id","view_history","rt","stimulus","response","task","image_index","folder","sequence_type","valuable_image_index","reward_type","chosen_image_index","target_X","correct_choice"
"true","false","[]","[]","[]","preload","0","14144","0.0-0.0","17793421981E4569B11DD4ABAC233FDA","019cf0d6-a642-7c56-afca-8167ec02f385","019cf037-5203-781a-b900-108ccb1cab86","","","","","","","","","","","","",""
"","","","","","instructions","1","18517","0.0-1.0","17793421981E4569B11DD4ABAC233FDA","019cf0d6-a642-7c56-afca-8167ec02f385","019cf037-5203-781a-b900-108ccb1cab86","[{""page_index"":0,""viewing_time"":4372}]","4372","","","","","","","","","","",""
"","","","","","instructions","2","25207","0.0-2.0","17793421981E4569B11DD4ABAC233FDA","019cf0d6-a642-7c56-afca-8167ec02f385","019cf037-5203-781a-b900-108ccb1cab86","[{""page_index"":0,""viewing_time"":6689}]","6689","","","","","","","","","","",""
"true","","","","","fullscreen","3","27873","0.0-3.0","17793421981E4569B11DD4ABAC233FDA","019cf0d6-a642-7c56-afca-8167ec02f385","019cf037-5203-781a-b900-108ccb1cab86","","1664","","","","","","","","","","",""
"","","","","","instructions","4","36991","0.0-4.0","17793421981E4569B11DD4ABAC233FDA","019cf0d6-a642-7c56-afca-8167ec02f385","019cf037-5203-781a-b900-108ccb1cab86","[{""page_index"":0,""viewing_time"":9117}]","9118","","","","","","","","","","",""
"","","","","","instructions","5","47373","0.0-5.0","17793421981E4569B11DD4ABAC233FDA","019cf0d6-a642-7c56-afca-8167ec02f385","019cf037-5203-781a-b900-108ccb1cab86","[{""page_index"":0,""viewing_time"":10381}]","10382","","","","","","","","","","",""
"","","","","","html-keyboard-response","6","51377","0.0-6.0","17793421981E4569B11DD4ABAC233FDA","019cf0d6-a642-7c56-afca-8167ec02f385","019cf037-5203-781a-b900-108ccb1cab86","","null","
                <div class=""stimulus-container"">
                    <img src=""images/instructions/movie_1.png"" class=""exp-image"">
                    <div class=""question-area""></div> 
                </div>","null","","","","","","","","",""
"","","","","","html-button-response","7","53109","0.0-7.0","17793421981E4569B11DD4ABAC233FDA","019cf0d6-a642-7c56-afca-8167ec02f385","019cf037-5203-781a-b900-108ccb1cab86","","1729","
                <div class=""stimulus-container"">
                    <img src=""images/instructions/movie_1.png"" class=""exp-image"">
                    <div class=""question-area"">
                        <p style=""font-size: 20px; font-weight: bold; margin: 0;"">Was there a person in this image?</p>
                    </div>
                </div>","0","example_question","1","","","","","","",""
"","","","","","html-keyboard-response","8","57112","0.0-8.0","17793421981E4569B11DD4ABAC233FDA","019cf0d6-a642-7c56-afca-8167ec02f385","019cf037-5203-781a-b900-108ccb1cab86","","null","
                <div class=""stimulus-container"">
                    <img src=""images/instructions/movie_2.png"" class=""exp-image"">
                    <div class=""question-area""></div> 
                </div>","null","","","","","","","","",""
"","","","","","html-button-response","9","58207","0.0-9.0","17793421981E4569B11DD4ABAC233FDA","019cf0d6-a642-7c56-afca-8167ec02f385","019cf037-5203-781a-b900-108ccb1cab86","","1093","
                <div class=""stimulus-container"">
                    <img src=""images/instructions/movie_2.png"" class=""exp-image"">
                    <div class=""question-area"">
                        <p style=""font-size: 20px; font-weight: bold; margin: 0;"">Was there a person in this image?</p>
                    </div>
                </div>","0","example_question","2","","","","","","",""
"","","","","","html-keyboard-response","10","62210","0.0-10.0","17793421981E4569B11DD4ABAC233FDA","019cf0d6-a642-7c56-afca-8167ec02f385","019cf037-5203-781a-b900-108ccb1cab86","","null","
                <div class=""stimulus-container"">
                    <img src=""images/instructions/movie_3.png"" class=""exp-image"">
                    <div class=""question-area""></div> 
                </div>","null","","","","","","","","",""
"","","","","","html-button-response","11","62621","0.0-11.0","17793421981E4569B11DD4ABAC233FDA","019cf0d6-a642-7c56-afca-8167ec02f385","019cf037-5203-781a-b900-108ccb1cab86","","408","
                <div class=""stimulus-container"">
                    <img src=""images/instructions/movie_3.png"" class=""exp-image"">
                    <div class=""question-area"">
                        <p style=""font-size: 20px; font-weight: bold; margin: 0;"">Was there a person in this image?</p>
                    </div>
                </div>","0","example_question","3","","","","","","",""
"","","","","","html-keyboard-response","12","66623","0.0-12.0","17793421981E4569B11DD4ABAC233FDA","019cf0d6-a642-7c56-afca-8167ec02f385","019cf037-5203-781a-b900-108ccb1cab86","","null","
                <div class=""stimulus-container"">
                    <img src=""images/instructions/movie_4.png"" class=""exp-image"">
                    <div class=""question-area""></div> 
                </div>","null","","","","","","","","",""
"","","","","","html-button-response","13","67076","0.0-13.0","17793421981E4569B11DD4ABAC233FDA","019cf0d6-a642-7c56-afca-8167ec02f385","019cf037-5203-781a-b900-108ccb1cab86","","450","
                <div class=""stimulus-container"">
                    <img src=""images/instructions/movie_4.png"" class=""exp-image"">
                    <div class=""question-area"">
                        <p style=""font-size: 20px; font-weight: bold; margin: 0;"">Was there a person in this image?</p>
                    </div>
                </div>","0","example_question","4","","","","","","",""
"","","","","","instructions","14","69255","0.0-14.0","17793421981E4569B11DD4ABAC233FDA","019cf0d6-a642-7c56-afca-8167ec02f385","019cf037-5203-781a-b900-108ccb1cab86","[{""page_index"":0,""viewing_time"":2177}]","2178","","","","","","","","","","",""
"","","","","","instructions","15","74783","0.0-15.0","17793421981E4569B11DD4ABAC233FDA","019cf0d6-a642-7c56-afca-8167ec02f385","019cf037-5203-781a-b900-108ccb1cab86","[{""page_index"":0,""viewing_time"":5526}]","5527","","","","","","","","","","",""
"","","","","","html-keyboard-response","16","75785","0.0-16.0","17793421981E4569B11DD4ABAC233FDA","019cf0d6-a642-7c56-afca-8167ec02f385","019cf037-5203-781a-b900-108ccb1cab86","","null","<div style=""background-color: white; width: 100vw; height: 100vh;""></div>","null","","","","","","","","",""
"","","","","","html-keyboard-response","17","80786","0.0-17.0","17793421981E4569B11DD4ABAC233FDA","019cf0d6-a642-7c56-afca-8167ec02f385","019cf037-5203-781a-b900-108ccb1cab86","","null","
                <div class=""stimulus-container"">
                    <img src=""images/schematic_sequence/supermarket_scheme/supermarket_scheme_1.png"" class=""exp-image"">
                    <div class=""question-area""></div> 
                </div>","null","","","","","","","","",""
"","","","","","html-button-response","18","81578","0.0-18.0","17793421981E4569B11DD4ABAC233FDA","019cf0d6-a642-7c56-afca-8167ec02f385","019cf037-5203-781a-b900-108ccb1cab86","","788","
                <div class=""stimulus-container"">
                    <img src=""images/schematic_sequence/supermarket_scheme/supermarket_scheme_1.png"" class=""exp-image"">
                    <div class=""question-area"">
                        <p style=""font-size: 20px; font-weight: bold; margin: 0;"">Is there a person in this image?</p>
                    </div>
                </div>","1","main_experiment_trial","1","supermarket_scheme","schematic_sequence","","","","",""
"","","","","","html-keyboard-response","19","86580","0.0-19.0","17793421981E4569B11DD4ABAC233FDA","019cf0d6-a642-7c56-afca-8167ec02f385","019cf037-5203-781a-b900-108ccb1cab86","","null","
                <div class=""stimulus-container"">
                    <img src=""images/schematic_sequence/supermarket_scheme/supermarket_scheme_2.png"" class=""exp-image"">
                    <div class=""question-area""></div> 
                </div>","null","","","","","","","","",""
"","","","","","html-button-response","20","87046","0.0-20.0","17793421981E4569B11DD4ABAC233FDA","019cf0d6-a642-7c56-afca-8167ec02f385","019cf037-5203-781a-b900-108ccb1cab86","","463","
                <div class=""stimulus-container"">
                    <img src=""images/schematic_sequence/supermarket_scheme/supermarket_scheme_2.png"" class=""exp-image"">
                    <div class=""question-area"">
                        <p style=""font-size: 20px; font-weight: bold; margin: 0;"">Is there a person in this image?</p>
                    </div>
                </div>","1","main_experiment_trial","2","supermarket_scheme","schematic_sequence","","","","",""
"","","","","","html-keyboard-response","21","92048","0.0-21.0","17793421981E4569B11DD4ABAC233FDA","019cf0d6-a642-7c56-afca-8167ec02f385","019cf037-5203-781a-b900-108ccb1cab86","","null","
                <div class=""stimulus-container"">
                    <img src=""images/schematic_sequence/supermarket_scheme/supermarket_scheme_3.png"" class=""exp-image"">
                    <div class=""question-area""></div> 
                </div>","null","","","","","","","","",""
"","","","","","html-button-response","22","92584","0.0-22.0","17793421981E4569B11DD4ABAC233FDA","019cf0d6-a642-7c56-afca-8167ec02f385","019cf037-5203-781a-b900-108ccb1cab86","","534","
                <div class=""stimulus-container"">
                    <img src=""images/schematic_sequence/supermarket_scheme/supermarket_scheme_3.png"" class=""exp-image"">
                    <div class=""question-area"">
                        <p style=""font-size: 20px; font-weight: bold; margin: 0;"">Is there a person in this image?</p>
                    </div>
                </div>","1","main_experiment_trial","3","supermarket_scheme","schematic_sequence","","","","",""
"","","","","","html-keyboard-response","23","97587","0.0-23.0","17793421981E4569B11DD4ABAC233FDA","019cf0d6-a642-7c56-afca-8167ec02f385","019cf037-5203-781a-b900-108ccb1cab86","","null","
                <div class=""stimulus-container"">
                    <img src=""images/schematic_sequence/supermarket_scheme/supermarket_scheme_4.png"" class=""exp-image"">
                    <div class=""question-area""></div> 
                </div>","null","","","","","","","","",""
"","","","","","html-button-response","24","98065","0.0-24.0","17793421981E4569B11DD4ABAC233FDA","019cf0d6-a642-7c56-afca-8167ec02f385","019cf037-5203-781a-b900-108ccb1cab86","","475","
                <div class=""stimulus-container"">
                    <img src=""images/schematic_sequence/supermarket_scheme/supermarket_scheme_4.png"" class=""exp-image"">
                    <div class=""question-area"">
                        <p style=""font-size: 20px; font-weight: bold; margin: 0;"">Is there a person in this image?</p>
                    </div>
                </div>","0","main_experiment_trial","4","supermarket_scheme","schematic_sequence","","","","",""
"","","","","","html-keyboard-response","25","103067","0.0-25.0","17793421981E4569B11DD4ABAC233FDA","019cf0d6-a642-7c56-afca-8167ec02f385","019cf037-5203-781a-b900-108ccb1cab86","","null","
                <div class=""stimulus-container"">
                    <img src=""images/schematic_sequence/supermarket_scheme/supermarket_scheme_5.png"" class=""exp-image"">
                    <div class=""question-area""></div> 
                </div>","null","","","","","","","","",""
"","","","","","html-button-response","26","103427","0.0-26.0","17793421981E4569B11DD4ABAC233FDA","019cf0d6-a642-7c56-afca-8167ec02f385","019cf037-5203-781a-b900-108ccb1cab86","","357","
                <div class=""stimulus-container"">
                    <img src=""images/schematic_sequence/supermarket_scheme/supermarket_scheme_5.png"" class=""exp-image"">
                    <div class=""question-area"">
                        <p style=""font-size: 20px; font-weight: bold; margin: 0;"">Is there a person in this image?</p>
                    </div>
                </div>","1","main_experiment_trial","5","supermarket_scheme","schematic_sequence","","","","",""
"","","","","","html-keyboard-response","27","108429","0.0-27.0","17793421981E4569B11DD4ABAC233FDA","019cf0d6-a642-7c56-afca-8167ec02f385","019cf037-5203-781a-b900-108ccb1cab86","","null","
                <div class=""stimulus-container"">
                    <img src=""images/schematic_sequence/supermarket_scheme/supermarket_scheme_6.png"" class=""exp-image"">
                    <div class=""question-area""></div> 
                </div>","null","","","","","","","","",""
"","","","","","html-button-response","28","108975","0.0-28.0","17793421981E4569B11DD4ABAC233FDA","019cf0d6-a642-7c56-afca-8167ec02f385","019cf037-5203-781a-b900-108ccb1cab86","","544","
                <div class=""stimulus-container"">
                    <img src=""images/schematic_sequence/supermarket_scheme/supermarket_scheme_6.png"" class=""exp-image"">
                    <div class=""question-area"">
                        <p style=""font-size: 20px; font-weight: bold; margin: 0;"">Is there a person in this image?</p>
                    </div>
                </div>","0","main_experiment_trial","6","supermarket_scheme","schematic_sequence","","","","",""
"","","","","","html-keyboard-response","29","113978","0.0-29.0","17793421981E4569B11DD4ABAC233FDA","019cf0d6-a642-7c56-afca-8167ec02f385","019cf037-5203-781a-b900-108ccb1cab86","","null","
                <div class=""stimulus-container"">
                    <img src=""images/schematic_sequence/supermarket_scheme/supermarket_scheme_7.png"" class=""exp-image"">
                    <div class=""question-area""></div> 
                </div>","null","","","","","","","","",""
"","","","","","html-button-response","30","114377","0.0-30.0","17793421981E4569B11DD4ABAC233FDA","019cf0d6-a642-7c56-afca-8167ec02f385","019cf037-5203-781a-b900-108ccb1cab86","","397","
                <div class=""stimulus-container"">
                    <img src=""images/schematic_sequence/supermarket_scheme/supermarket_scheme_7.png"" class=""exp-image"">
                    <div class=""question-area"">
                        <p style=""font-size: 20px; font-weight: bold; margin: 0;"">Is there a person in this image?</p>
                    </div>
                </div>","0","main_experiment_trial","7","supermarket_scheme","schematic_sequence","","","","",""
"","","","","","html-keyboard-response","31","119380","0.0-31.0","17793421981E4569B11DD4ABAC233FDA","019cf0d6-a642-7c56-afca-8167ec02f385","019cf037-5203-781a-b900-108ccb1cab86","","null","
                <div class=""stimulus-container"">
                    <img src=""images/schematic_sequence/supermarket_scheme/supermarket_scheme_8.png"" class=""exp-image"">
                    <div class=""question-area""></div> 
                </div>","null","","","","","","","","",""
"","","","","","html-button-response","32","120496","0.0-32.0","17793421981E4569B11DD4ABAC233FDA","019cf0d6-a642-7c56-afca-8167ec02f385","019cf037-5203-781a-b900-108ccb1cab86","","1115","
                <div class=""stimulus-container"">
                    <img src=""images/schematic_sequence/supermarket_scheme/supermarket_scheme_8.png"" class=""exp-image"">
                    <div class=""question-area"">
                        <p style=""font-size: 20px; font-weight: bold; margin: 0;"">Is there a person in this image?</p>
                    </div>
                </div>","0","main_experiment_trial","8","supermarket_scheme","schematic_sequence","","","","",""
"","","","","","html-keyboard-response","33","125499","0.0-33.0","17793421981E4569B11DD4ABAC233FDA","019cf0d6-a642-7c56-afca-8167ec02f385","019cf037-5203-781a-b900-108ccb1cab86","","null","
                <div class=""stimulus-container"">
                    <img src=""images/schematic_sequence/supermarket_scheme/supermarket_scheme_9.png"" class=""exp-image"">
                    <div class=""question-area""></div> 
                </div>","null","","","","","","","","",""
"","","","","","html-button-response","34","126083","0.0-34.0","17793421981E4569B11DD4ABAC233FDA","019cf0d6-a642-7c56-afca-8167ec02f385","019cf037-5203-781a-b900-108ccb1cab86","","583","
                <div class=""stimulus-container"">
                    <img src=""images/schematic_sequence/supermarket_scheme/supermarket_scheme_9.png"" class=""exp-image"">
                    <div class=""question-area"">
                        <p style=""font-size: 20px; font-weight: bold; margin: 0;"">Is there a person in this image?</p>
                    </div>
                </div>","0","main_experiment_trial","9","supermarket_scheme","schematic_sequence","","","","",""
"","","","","","html-keyboard-response","35","131086","0.0-35.0","17793421981E4569B11DD4ABAC233FDA","019cf0d6-a642-7c56-afca-8167ec02f385","019cf037-5203-781a-b900-108ccb1cab86","","null","
                <div class=""stimulus-container"">
                    <img src=""images/schematic_sequence/supermarket_scheme/supermarket_scheme_ten.png"" class=""exp-image"">
                    <div class=""question-area""></div> 
                </div>","null","","","","","","","","",""
"","","","","","html-button-response","36","131680","0.0-36.0","17793421981E4569B11DD4ABAC233FDA","019cf0d6-a642-7c56-afca-8167ec02f385","019cf037-5203-781a-b900-108ccb1cab86","","591","
                <div class=""stimulus-container"">
                    <img src=""images/schematic_sequence/supermarket_scheme/supermarket_scheme_ten.png"" class=""exp-image"">
                    <div class=""question-area"">
                        <p style=""font-size: 20px; font-weight: bold; margin: 0;"">Is there a person in this image?</p>
                    </div>
                </div>","1","main_experiment_trial","ten","supermarket_scheme","schematic_sequence","","","","",""
"","","","","","html-keyboard-response","37","132681","0.0-37.0","17793421981E4569B11DD4ABAC233FDA","019cf0d6-a642-7c56-afca-8167ec02f385","019cf037-5203-781a-b900-108ccb1cab86","","null","<div style=""background-color: white; width: 100vw; height: 100vh;""></div>","null","","","","","","","","",""
"","","","","","html-keyboard-response","38","137683","0.0-38.0","17793421981E4569B11DD4ABAC233FDA","019cf0d6-a642-7c56-afca-8167ec02f385","019cf037-5203-781a-b900-108ccb1cab86","","null","
                <div class=""stimulus-container"">
                    <img src=""images/causal_sequence/coin_causal/coin_causal_1.png"" class=""exp-image"">
                    <div class=""question-area""></div> 
                </div>","null","","","","","","","","",""
"","","","","","html-button-response","39","139288","0.0-39.0","17793421981E4569B11DD4ABAC233FDA","019cf0d6-a642-7c56-afca-8167ec02f385","019cf037-5203-781a-b900-108ccb1cab86","","1602","
                <div class=""stimulus-container"">
                    <img src=""images/causal_sequence/coin_causal/coin_causal_1.png"" class=""exp-image"">
                    <div class=""question-area"">
                        <p style=""font-size: 20px; font-weight: bold; margin: 0;"">Is there a person in this image?</p>
                    </div>
                </div>","0","main_experiment_trial","1","coin_causal","causal_sequence","","","","",""
"","","","","","html-keyboard-response","40","144290","0.0-40.0","17793421981E4569B11DD4ABAC233FDA","019cf0d6-a642-7c56-afca-8167ec02f385","019cf037-5203-781a-b900-108ccb1cab86","","null","
                <div class=""stimulus-container"">
                    <img src=""images/causal_sequence/coin_causal/coin_causal_2.png"" class=""exp-image"">
                    <div class=""question-area""></div> 
                </div>","null","","","","","","","","",""
"","","","","","html-button-response","41","145407","0.0-41.0","17793421981E4569B11DD4ABAC233FDA","019cf0d6-a642-7c56-afca-8167ec02f385","019cf037-5203-781a-b900-108ccb1cab86","","1114","
                <div class=""stimulus-container"">
                    <img src=""images/causal_sequence/coin_causal/coin_causal_2.png"" class=""exp-image"">
                    <div class=""question-area"">
                        <p style=""font-size: 20px; font-weight: bold; margin: 0;"">Is there a person in this image?</p>
                    </div>
                </div>","0","main_experiment_trial","2","coin_causal","causal_sequence","","","","",""
"","","","","","html-keyboard-response","42","150410","0.0-42.0","17793421981E4569B11DD4ABAC233FDA","019cf0d6-a642-7c56-afca-8167ec02f385","019cf037-5203-781a-b900-108ccb1cab86","","null","
                <div class=""stimulus-container"">
                    <img src=""images/causal_sequence/coin_causal/coin_causal_3.png"" class=""exp-image"">
                    <div class=""question-area""></div> 
                </div>","null","","","","","","","","",""
"","","","","","html-button-response","43","153413","0.0-43.0","17793421981E4569B11DD4ABAC233FDA","019cf0d6-a642-7c56-afca-8167ec02f385","019cf037-5203-781a-b900-108ccb1cab86","","null","
                <div class=""stimulus-container"">
                    <img src=""images/causal_sequence/coin_causal/coin_causal_3.png"" class=""exp-image"">
                    <div class=""question-area"">
                        <p style=""font-size: 20px; font-weight: bold; margin: 0;"">Is there a person in this image?</p>
                    </div>
                </div>","null","main_experiment_trial","3","coin_causal","causal_sequence","","","","",""
"","","","","","html-keyboard-response","44","158415","0.0-44.0","17793421981E4569B11DD4ABAC233FDA","019cf0d6-a642-7c56-afca-8167ec02f385","019cf037-5203-781a-b900-108ccb1cab86","","null","
                <div class=""stimulus-container"">
                    <img src=""images/causal_sequence/coin_causal/coin_causal_4.png"" class=""exp-image"">
                    <div class=""question-area""></div> 
                </div>","null","","","","","","","","",""
"","","","","","html-button-response","45","160308","0.0-45.0","17793421981E4569B11DD4ABAC233FDA","019cf0d6-a642-7c56-afca-8167ec02f385","019cf037-5203-781a-b900-108ccb1cab86","","1891","
                <div class=""stimulus-container"">
                    <img src=""images/causal_sequence/coin_causal/coin_causal_4.png"" class=""exp-image"">
                    <div class=""question-area"">
                        <p style=""font-size: 20px; font-weight: bold; margin: 0;"">Is there a person in this image?</p>
                    </div>
                </div>","0","main_experiment_trial","4","coin_causal","causal_sequence","","","","",""
"","","","","","html-keyboard-response","46","165311","0.0-46.0","17793421981E4569B11DD4ABAC233FDA","019cf0d6-a642-7c56-afca-8167ec02f385","019cf037-5203-781a-b900-108ccb1cab86","","null","
                <div class=""stimulus-container"">
                    <img src=""images/causal_sequence/coin_causal/coin_causal_5.png"" class=""exp-image"">
                    <div class=""question-area""></div> 
                </div>","null","","","","","","","","",""
"","","","","","html-button-response","47","165997","0.0-47.0","17793421981E4569B11DD4ABAC233FDA","019cf0d6-a642-7c56-afca-8167ec02f385","019cf037-5203-781a-b900-108ccb1cab86","","684","
                <div class=""stimulus-container"">
                    <img src=""images/causal_sequence/coin_causal/coin_causal_5.png"" class=""exp-image"">
                    <div class=""question-area"">
                        <p style=""font-size: 20px; font-weight: bold; margin: 0;"">Is there a person in this image?</p>
                    </div>
                </div>","0","main_experiment_trial","5","coin_causal","causal_sequence","","","","",""
"","","","","","html-keyboard-response","48","170999","0.0-48.0","17793421981E4569B11DD4ABAC233FDA","019cf0d6-a642-7c56-afca-8167ec02f385","019cf037-5203-781a-b900-108ccb1cab86","","null","
                <div class=""stimulus-container"">
                    <img src=""images/causal_sequence/coin_causal/coin_causal_6.png"" class=""exp-image"">
                    <div class=""question-area""></div> 
                </div>","null","","","","","","","","",""
"","","","","","html-button-response","49","171453","0.0-49.0","17793421981E4569B11DD4ABAC233FDA","019cf0d6-a642-7c56-afca-8167ec02f385","019cf037-5203-781a-b900-108ccb1cab86","","452","
                <div class=""stimulus-container"">
                    <img src=""images/causal_sequence/coin_causal/coin_causal_6.png"" class=""exp-image"">
                    <div class=""question-area"">
                        <p style=""font-size: 20px; font-weight: bold; margin: 0;"">Is there a person in this image?</p>
                    </div>
                </div>","0","main_experiment_trial","6","coin_causal","causal_sequence","","","","",""
"","","","","","html-keyboard-response","50","176456","0.0-50.0","17793421981E4569B11DD4ABAC233FDA","019cf0d6-a642-7c56-afca-8167ec02f385","019cf037-5203-781a-b900-108ccb1cab86","","null","
                <div class=""stimulus-container"">
                    <img src=""images/causal_sequence/coin_causal/coin_causal_7.png"" class=""exp-image"">
                    <div class=""question-area""></div> 
                </div>","null","","","","","","","","",""
"","","","","","html-button-response","51","177359","0.0-51.0","17793421981E4569B11DD4ABAC233FDA","019cf0d6-a642-7c56-afca-8167ec02f385","019cf037-5203-781a-b900-108ccb1cab86","","901","
                <div class=""stimulus-container"">
                    <img src=""images/causal_sequence/coin_causal/coin_causal_7.png"" class=""exp-image"">
                    <div class=""question-area"">
                        <p style=""font-size: 20px; font-weight: bold; margin: 0;"">Is there a person in this image?</p>
                    </div>
                </div>","1","main_experiment_trial","7","coin_causal","causal_sequence","","","","",""
"","","","","","html-keyboard-response","52","182362","0.0-52.0","17793421981E4569B11DD4ABAC233FDA","019cf0d6-a642-7c56-afca-8167ec02f385","019cf037-5203-781a-b900-108ccb1cab86","","null","
                <div class=""stimulus-container"">
                    <img src=""images/causal_sequence/coin_causal/coin_causal_8.png"" class=""exp-image"">
                    <div class=""question-area""></div> 
                </div>","null","","","","","","","","",""
"","","","","","html-button-response","53","182984","0.0-53.0","17793421981E4569B11DD4ABAC233FDA","019cf0d6-a642-7c56-afca-8167ec02f385","019cf037-5203-781a-b900-108ccb1cab86","","620","
                <div class=""stimulus-container"">
                    <img src=""images/causal_sequence/coin_causal/coin_causal_8.png"" class=""exp-image"">
                    <div class=""question-area"">
                        <p style=""font-size: 20px; font-weight: bold; margin: 0;"">Is there a person in this image?</p>
                    </div>
                </div>","0","main_experiment_trial","8","coin_causal","causal_sequence","","","","",""
"","","","","","html-keyboard-response","54","187987","0.0-54.0","17793421981E4569B11DD4ABAC233FDA","019cf0d6-a642-7c56-afca-8167ec02f385","019cf037-5203-781a-b900-108ccb1cab86","","null","
                <div class=""stimulus-container"">
                    <img src=""images/causal_sequence/coin_causal/coin_causal_9.png"" class=""exp-image"">
                    <div class=""question-area""></div> 
                </div>","null","","","","","","","","",""
"","","","","","html-button-response","55","188602","0.0-55.0","17793421981E4569B11DD4ABAC233FDA","019cf0d6-a642-7c56-afca-8167ec02f385","019cf037-5203-781a-b900-108ccb1cab86","","612","
                <div class=""stimulus-container"">
                    <img src=""images/causal_sequence/coin_causal/coin_causal_9.png"" class=""exp-image"">
                    <div class=""question-area"">
                        <p style=""font-size: 20px; font-weight: bold; margin: 0;"">Is there a person in this image?</p>
                    </div>
                </div>","0","main_experiment_trial","9","coin_causal","causal_sequence","","","","",""
"","","","","","html-keyboard-response","56","193604","0.0-56.0","17793421981E4569B11DD4ABAC233FDA","019cf0d6-a642-7c56-afca-8167ec02f385","019cf037-5203-781a-b900-108ccb1cab86","","null","
                <div class=""stimulus-container"">
                    <img src=""images/causal_sequence/coin_causal/coin_causal_ten.png"" class=""exp-image"">
                    <div class=""question-area""></div> 
                </div>","null","","","","","","","","",""
"","","","","","html-button-response","57","194141","0.0-57.0","17793421981E4569B11DD4ABAC233FDA","019cf0d6-a642-7c56-afca-8167ec02f385","019cf037-5203-781a-b900-108ccb1cab86","","534","
                <div class=""stimulus-container"">
                    <img src=""images/causal_sequence/coin_causal/coin_causal_ten.png"" class=""exp-image"">
                    <div class=""question-area"">
                        <p style=""font-size: 20px; font-weight: bold; margin: 0;"">Is there a person in this image?</p>
                    </div>
                </div>","0","main_experiment_trial","ten","coin_causal","causal_sequence","","","","",""
"","","","","","html-keyboard-response","58","195143","0.0-58.0","17793421981E4569B11DD4ABAC233FDA","019cf0d6-a642-7c56-afca-8167ec02f385","019cf037-5203-781a-b900-108ccb1cab86","","null","<div style=""background-color: white; width: 100vw; height: 100vh;""></div>","null","","","","","","","","",""
"","","","","","html-keyboard-response","59","200145","0.0-59.0","17793421981E4569B11DD4ABAC233FDA","019cf0d6-a642-7c56-afca-8167ec02f385","019cf037-5203-781a-b900-108ccb1cab86","","null","
                <div class=""stimulus-container"">
                    <img src=""images/causal_sequence/package_causal/package_causal_1.png"" class=""exp-image"">
                    <div class=""question-area""></div> 
                </div>","null","","","","","","","","",""
"","","","","","html-button-response","60","200614","0.0-60.0","17793421981E4569B11DD4ABAC233FDA","019cf0d6-a642-7c56-afca-8167ec02f385","019cf037-5203-781a-b900-108ccb1cab86","","467","
                <div class=""stimulus-container"">
                    <img src=""images/causal_sequence/package_causal/package_causal_1.png"" class=""exp-image"">
                    <div class=""question-area"">
                        <p style=""font-size: 20px; font-weight: bold; margin: 0;"">Is there a person in this image?</p>
                    </div>
                </div>","0","main_experiment_trial","1","package_causal","causal_sequence","","","","",""
"","","","","","html-keyboard-response","61","205616","0.0-61.0","17793421981E4569B11DD4ABAC233FDA","019cf0d6-a642-7c56-afca-8167ec02f385","019cf037-5203-781a-b900-108ccb1cab86","","null","
                <div class=""stimulus-container"">
                    <img src=""images/causal_sequence/package_causal/package_causal_2.png"" class=""exp-image"">
                    <div class=""question-area""></div> 
                </div>","null","","","","","","","","",""
"","","","","","html-button-response","62","206112","0.0-62.0","17793421981E4569B11DD4ABAC233FDA","019cf0d6-a642-7c56-afca-8167ec02f385","019cf037-5203-781a-b900-108ccb1cab86","","493","
                <div class=""stimulus-container"">
                    <img src=""images/causal_sequence/package_causal/package_causal_2.png"" class=""exp-image"">
                    <div class=""question-area"">
                        <p style=""font-size: 20px; font-weight: bold; margin: 0;"">Is there a person in this image?</p>
                    </div>
                </div>","0","main_experiment_trial","2","package_causal","causal_sequence","","","","",""
"","","","","","html-keyboard-response","63","211114","0.0-63.0","17793421981E4569B11DD4ABAC233FDA","019cf0d6-a642-7c56-afca-8167ec02f385","019cf037-5203-781a-b900-108ccb1cab86","","null","
                <div class=""stimulus-container"">
                    <img src=""images/causal_sequence/package_causal/package_causal_3.png"" class=""exp-image"">
                    <div class=""question-area""></div> 
                </div>","null","","","","","","","","",""
"","","","","","html-button-response","64","211574","0.0-64.0","17793421981E4569B11DD4ABAC233FDA","019cf0d6-a642-7c56-afca-8167ec02f385","019cf037-5203-781a-b900-108ccb1cab86","","457","
                <div class=""stimulus-container"">
                    <img src=""images/causal_sequence/package_causal/package_causal_3.png"" class=""exp-image"">
                    <div class=""question-area"">
                        <p style=""font-size: 20px; font-weight: bold; margin: 0;"">Is there a person in this image?</p>
                    </div>
                </div>","0","main_experiment_trial","3","package_causal","causal_sequence","","","","",""
"","","","","","html-keyboard-response","65","216577","0.0-65.0","17793421981E4569B11DD4ABAC233FDA","019cf0d6-a642-7c56-afca-8167ec02f385","019cf037-5203-781a-b900-108ccb1cab86","","null","
                <div class=""stimulus-container"">
                    <img src=""images/causal_sequence/package_causal/package_causal_4.png"" class=""exp-image"">
                    <div class=""question-area""></div> 
                </div>","null","","","","","","","","",""
"","","","","","html-button-response","66","217554","0.0-66.0","17793421981E4569B11DD4ABAC233FDA","019cf0d6-a642-7c56-afca-8167ec02f385","019cf037-5203-781a-b900-108ccb1cab86","","975","
                <div class=""stimulus-container"">
                    <img src=""images/causal_sequence/package_causal/package_causal_4.png"" class=""exp-image"">
                    <div class=""question-area"">
                        <p style=""font-size: 20px; font-weight: bold; margin: 0;"">Is there a person in this image?</p>
                    </div>
                </div>","1","main_experiment_trial","4","package_causal","causal_sequence","","","","",""
"","","","","","html-keyboard-response","67","222557","0.0-67.0","17793421981E4569B11DD4ABAC233FDA","019cf0d6-a642-7c56-afca-8167ec02f385","019cf037-5203-781a-b900-108ccb1cab86","","null","
                <div class=""stimulus-container"">
                    <img src=""images/causal_sequence/package_causal/package_causal_5.png"" class=""exp-image"">
                    <div class=""question-area""></div> 
                </div>","null","","","","","","","","",""
"","","","","","html-button-response","68","222964","0.0-68.0","17793421981E4569B11DD4ABAC233FDA","019cf0d6-a642-7c56-afca-8167ec02f385","019cf037-5203-781a-b900-108ccb1cab86","","405","
                <div class=""stimulus-container"">
                    <img src=""images/causal_sequence/package_causal/package_causal_5.png"" class=""exp-image"">
                    <div class=""question-area"">
                        <p style=""font-size: 20px; font-weight: bold; margin: 0;"">Is there a person in this image?</p>
                    </div>
                </div>","0","main_experiment_trial","5","package_causal","causal_sequence","","","","",""
"","","","","","html-keyboard-response","69","227967","0.0-69.0","17793421981E4569B11DD4ABAC233FDA","019cf0d6-a642-7c56-afca-8167ec02f385","019cf037-5203-781a-b900-108ccb1cab86","","null","
                <div class=""stimulus-container"">
                    <img src=""images/causal_sequence/package_causal/package_causal_6.png"" class=""exp-image"">
                    <div class=""question-area""></div> 
                </div>","null","","","","","","","","",""
"","","","","","html-button-response","70","229270","0.0-70.0","17793421981E4569B11DD4ABAC233FDA","019cf0d6-a642-7c56-afca-8167ec02f385","019cf037-5203-781a-b900-108ccb1cab86","","1301","
                <div class=""stimulus-container"">
                    <img src=""images/causal_sequence/package_causal/package_causal_6.png"" class=""exp-image"">
                    <div class=""question-area"">
                        <p style=""font-size: 20px; font-weight: bold; margin: 0;"">Is there a person in this image?</p>
                    </div>
                </div>","0","main_experiment_trial","6","package_causal","causal_sequence","","","","",""
"","","","","","html-keyboard-response","71","234273","0.0-71.0","17793421981E4569B11DD4ABAC233FDA","019cf0d6-a642-7c56-afca-8167ec02f385","019cf037-5203-781a-b900-108ccb1cab86","","null","
                <div class=""stimulus-container"">
                    <img src=""images/causal_sequence/package_causal/package_causal_7.png"" class=""exp-image"">
                    <div class=""question-area""></div> 
                </div>","null","","","","","","","","",""
"","","","","","html-button-response","72","235245","0.0-72.0","17793421981E4569B11DD4ABAC233FDA","019cf0d6-a642-7c56-afca-8167ec02f385","019cf037-5203-781a-b900-108ccb1cab86","","970","
                <div class=""stimulus-container"">
                    <img src=""images/causal_sequence/package_causal/package_causal_7.png"" class=""exp-image"">
                    <div class=""question-area"">
                        <p style=""font-size: 20px; font-weight: bold; margin: 0;"">Is there a person in this image?</p>
                    </div>
                </div>","0","main_experiment_trial","7","package_causal","causal_sequence","","","","",""
"","","","","","html-keyboard-response","73","240248","0.0-73.0","17793421981E4569B11DD4ABAC233FDA","019cf0d6-a642-7c56-afca-8167ec02f385","019cf037-5203-781a-b900-108ccb1cab86","","null","
                <div class=""stimulus-container"">
                    <img src=""images/causal_sequence/package_causal/package_causal_8.png"" class=""exp-image"">
                    <div class=""question-area""></div> 
                </div>","null","","","","","","","","",""
"","","","","","html-button-response","74","241236","0.0-74.0","17793421981E4569B11DD4ABAC233FDA","019cf0d6-a642-7c56-afca-8167ec02f385","019cf037-5203-781a-b900-108ccb1cab86","","986","
                <div class=""stimulus-container"">
                    <img src=""images/causal_sequence/package_causal/package_causal_8.png"" class=""exp-image"">
                    <div class=""question-area"">
                        <p style=""font-size: 20px; font-weight: bold; margin: 0;"">Is there a person in this image?</p>
                    </div>
                </div>","0","main_experiment_trial","8","package_causal","causal_sequence","","","","",""
"","","","","","html-keyboard-response","75","246239","0.0-75.0","17793421981E4569B11DD4ABAC233FDA","019cf0d6-a642-7c56-afca-8167ec02f385","019cf037-5203-781a-b900-108ccb1cab86","","null","
                <div class=""stimulus-container"">
                    <img src=""images/causal_sequence/package_causal/package_causal_9.png"" class=""exp-image"">
                    <div class=""question-area""></div> 
                </div>","null","","","","","","","","",""
"","","","","","html-button-response","76","246871","0.0-76.0","17793421981E4569B11DD4ABAC233FDA","019cf0d6-a642-7c56-afca-8167ec02f385","019cf037-5203-781a-b900-108ccb1cab86","","630","
                <div class=""stimulus-container"">
                    <img src=""images/causal_sequence/package_causal/package_causal_9.png"" class=""exp-image"">
                    <div class=""question-area"">
                        <p style=""font-size: 20px; font-weight: bold; margin: 0;"">Is there a person in this image?</p>
                    </div>
                </div>","0","main_experiment_trial","9","package_causal","causal_sequence","","","","",""
"","","","","","html-keyboard-response","77","251874","0.0-77.0","17793421981E4569B11DD4ABAC233FDA","019cf0d6-a642-7c56-afca-8167ec02f385","019cf037-5203-781a-b900-108ccb1cab86","","null","
                <div class=""stimulus-container"">
                    <img src=""images/causal_sequence/package_causal/package_causal_ten.png"" class=""exp-image"">
                    <div class=""question-area""></div> 
                </div>","null","","","","","","","","",""
"","","","","","html-button-response","78","253001","0.0-78.0","17793421981E4569B11DD4ABAC233FDA","019cf0d6-a642-7c56-afca-8167ec02f385","019cf037-5203-781a-b900-108ccb1cab86","","1125","
                <div class=""stimulus-container"">
                    <img src=""images/causal_sequence/package_causal/package_causal_ten.png"" class=""exp-image"">
                    <div class=""question-area"">
                        <p style=""font-size: 20px; font-weight: bold; margin: 0;"">Is there a person in this image?</p>
                    </div>
                </div>","0","main_experiment_trial","ten","package_causal","causal_sequence","","","","",""
"","","","","","html-keyboard-response","79","254003","0.0-79.0","17793421981E4569B11DD4ABAC233FDA","019cf0d6-a642-7c56-afca-8167ec02f385","019cf037-5203-781a-b900-108ccb1cab86","","null","<div style=""background-color: white; width: 100vw; height: 100vh;""></div>","null","","","","","","","","",""
"","","","","","html-keyboard-response","80","259004","0.0-80.0","17793421981E4569B11DD4ABAC233FDA","019cf0d6-a642-7c56-afca-8167ec02f385","019cf037-5203-781a-b900-108ccb1cab86","","null","
                <div class=""stimulus-container"">
                    <img src=""images/causal_sequence/saving_a_cat_causal/saving_a_cat_causal_1.png"" class=""exp-image"">
                    <div class=""question-area""></div> 
                </div>","null","","","","","","","","",""
"","","","","","html-button-response","81","259655","0.0-81.0","17793421981E4569B11DD4ABAC233FDA","019cf0d6-a642-7c56-afca-8167ec02f385","019cf037-5203-781a-b900-108ccb1cab86","","649","
                <div class=""stimulus-container"">
                    <img src=""images/causal_sequence/saving_a_cat_causal/saving_a_cat_causal_1.png"" class=""exp-image"">
                    <div class=""question-area"">
                        <p style=""font-size: 20px; font-weight: bold; margin: 0;"">Is there a person in this image?</p>
                    </div>
                </div>","0","main_experiment_trial","1","saving_a_cat_causal","causal_sequence","","","","",""
"","","","","","html-keyboard-response","82","264657","0.0-82.0","17793421981E4569B11DD4ABAC233FDA","019cf0d6-a642-7c56-afca-8167ec02f385","019cf037-5203-781a-b900-108ccb1cab86","","null","
                <div class=""stimulus-container"">
                    <img src=""images/causal_sequence/saving_a_cat_causal/saving_a_cat_causal_2.png"" class=""exp-image"">
                    <div class=""question-area""></div> 
                </div>","null","","","","","","","","",""
"","","","","","html-button-response","83","265924","0.0-83.0","17793421981E4569B11DD4ABAC233FDA","019cf0d6-a642-7c56-afca-8167ec02f385","019cf037-5203-781a-b900-108ccb1cab86","","1264","
                <div class=""stimulus-container"">
                    <img src=""images/causal_sequence/saving_a_cat_causal/saving_a_cat_causal_2.png"" class=""exp-image"">
                    <div class=""question-area"">
                        <p style=""font-size: 20px; font-weight: bold; margin: 0;"">Is there a person in this image?</p>
                    </div>
                </div>","1","main_experiment_trial","2","saving_a_cat_causal","causal_sequence","","","","",""
"","","","","","html-keyboard-response","84","270926","0.0-84.0","17793421981E4569B11DD4ABAC233FDA","019cf0d6-a642-7c56-afca-8167ec02f385","019cf037-5203-781a-b900-108ccb1cab86","","null","
                <div class=""stimulus-container"">
                    <img src=""images/causal_sequence/saving_a_cat_causal/saving_a_cat_causal_3.png"" class=""exp-image"">
                    <div class=""question-area""></div> 
                </div>","null","","","","","","","","",""
"","","","","","html-button-response","85","271699","0.0-85.0","17793421981E4569B11DD4ABAC233FDA","019cf0d6-a642-7c56-afca-8167ec02f385","019cf037-5203-781a-b900-108ccb1cab86","","771","
                <div class=""stimulus-container"">
                    <img src=""images/causal_sequence/saving_a_cat_causal/saving_a_cat_causal_3.png"" class=""exp-image"">
                    <div class=""question-area"">
                        <p style=""font-size: 20px; font-weight: bold; margin: 0;"">Is there a person in this image?</p>
                    </div>
                </div>","1","main_experiment_trial","3","saving_a_cat_causal","causal_sequence","","","","",""
"","","","","","html-keyboard-response","86","276701","0.0-86.0","17793421981E4569B11DD4ABAC233FDA","019cf0d6-a642-7c56-afca-8167ec02f385","019cf037-5203-781a-b900-108ccb1cab86","","null","
                <div class=""stimulus-container"">
                    <img src=""images/causal_sequence/saving_a_cat_causal/saving_a_cat_causal_4.png"" class=""exp-image"">
                    <div class=""question-area""></div> 
                </div>","null","","","","","","","","",""
"","","","","","html-button-response","87","277591","0.0-87.0","17793421981E4569B11DD4ABAC233FDA","019cf0d6-a642-7c56-afca-8167ec02f385","019cf037-5203-781a-b900-108ccb1cab86","","887","
                <div class=""stimulus-container"">
                    <img src=""images/causal_sequence/saving_a_cat_causal/saving_a_cat_causal_4.png"" class=""exp-image"">
                    <div class=""question-area"">
                        <p style=""font-size: 20px; font-weight: bold; margin: 0;"">Is there a person in this image?</p>
                    </div>
                </div>","0","main_experiment_trial","4","saving_a_cat_causal","causal_sequence","","","","",""
"","","","","","html-keyboard-response","88","282594","0.0-88.0","17793421981E4569B11DD4ABAC233FDA","019cf0d6-a642-7c56-afca-8167ec02f385","019cf037-5203-781a-b900-108ccb1cab86","","null","
                <div class=""stimulus-container"">
                    <img src=""images/causal_sequence/saving_a_cat_causal/saving_a_cat_causal_5.png"" class=""exp-image"">
                    <div class=""question-area""></div> 
                </div>","null","","","","","","","","",""
"","","","","","html-button-response","89","283097","0.0-89.0","17793421981E4569B11DD4ABAC233FDA","019cf0d6-a642-7c56-afca-8167ec02f385","019cf037-5203-781a-b900-108ccb1cab86","","501","
                <div class=""stimulus-container"">
                    <img src=""images/causal_sequence/saving_a_cat_causal/saving_a_cat_causal_5.png"" class=""exp-image"">
                    <div class=""question-area"">
                        <p style=""font-size: 20px; font-weight: bold; margin: 0;"">Is there a person in this image?</p>
                    </div>
                </div>","0","main_experiment_trial","5","saving_a_cat_causal","causal_sequence","","","","",""
"","","","","","html-keyboard-response","90","288098","0.0-90.0","17793421981E4569B11DD4ABAC233FDA","019cf0d6-a642-7c56-afca-8167ec02f385","019cf037-5203-781a-b900-108ccb1cab86","","null","
                <div class=""stimulus-container"">
                    <img src=""images/causal_sequence/saving_a_cat_causal/saving_a_cat_causal_6.png"" class=""exp-image"">
                    <div class=""question-area""></div> 
                </div>","null","","","","","","","","",""
"","","","","","html-button-response","91","289585","0.0-91.0","17793421981E4569B11DD4ABAC233FDA","019cf0d6-a642-7c56-afca-8167ec02f385","019cf037-5203-781a-b900-108ccb1cab86","","1484","
                <div class=""stimulus-container"">
                    <img src=""images/causal_sequence/saving_a_cat_causal/saving_a_cat_causal_6.png"" class=""exp-image"">
                    <div class=""question-area"">
                        <p style=""font-size: 20px; font-weight: bold; margin: 0;"">Is there a person in this image?</p>
                    </div>
                </div>","0","main_experiment_trial","6","saving_a_cat_causal","causal_sequence","","","","",""
"","","","","","html-keyboard-response","92","294588","0.0-92.0","17793421981E4569B11DD4ABAC233FDA","019cf0d6-a642-7c56-afca-8167ec02f385","019cf037-5203-781a-b900-108ccb1cab86","","null","
                <div class=""stimulus-container"">
                    <img src=""images/causal_sequence/saving_a_cat_causal/saving_a_cat_causal_7.png"" class=""exp-image"">
                    <div class=""question-area""></div> 
                </div>","null","","","","","","","","",""
"","","","","","html-button-response","93","296188","0.0-93.0","17793421981E4569B11DD4ABAC233FDA","019cf0d6-a642-7c56-afca-8167ec02f385","019cf037-5203-781a-b900-108ccb1cab86","","1598","
                <div class=""stimulus-container"">
                    <img src=""images/causal_sequence/saving_a_cat_causal/saving_a_cat_causal_7.png"" class=""exp-image"">
                    <div class=""question-area"">
                        <p style=""font-size: 20px; font-weight: bold; margin: 0;"">Is there a person in this image?</p>
                    </div>
                </div>","0","main_experiment_trial","7","saving_a_cat_causal","causal_sequence","","","","",""
"","","","","","html-keyboard-response","94","301191","0.0-94.0","17793421981E4569B11DD4ABAC233FDA","019cf0d6-a642-7c56-afca-8167ec02f385","019cf037-5203-781a-b900-108ccb1cab86","","null","
                <div class=""stimulus-container"">
                    <img src=""images/causal_sequence/saving_a_cat_causal/saving_a_cat_causal_8.png"" class=""exp-image"">
                    <div class=""question-area""></div> 
                </div>","null","","","","","","","","",""
"","","","","","html-button-response","95","301348","0.0-95.0","17793421981E4569B11DD4ABAC233FDA","019cf0d6-a642-7c56-afca-8167ec02f385","019cf037-5203-781a-b900-108ccb1cab86","","156","
                <div class=""stimulus-container"">
                    <img src=""images/causal_sequence/saving_a_cat_causal/saving_a_cat_causal_8.png"" class=""exp-image"">
                    <div class=""question-area"">
                        <p style=""font-size: 20px; font-weight: bold; margin: 0;"">Is there a person in this image?</p>
                    </div>
                </div>","0","main_experiment_trial","8","saving_a_cat_causal","causal_sequence","","","","",""
"","","","","","html-keyboard-response","96","306350","0.0-96.0","17793421981E4569B11DD4ABAC233FDA","019cf0d6-a642-7c56-afca-8167ec02f385","019cf037-5203-781a-b900-108ccb1cab86","","null","
                <div class=""stimulus-container"">
                    <img src=""images/causal_sequence/saving_a_cat_causal/saving_a_cat_causal_9.png"" class=""exp-image"">
                    <div class=""question-area""></div> 
                </div>","null","","","","","","","","",""
"","","","","","html-button-response","97","306840","0.0-97.0","17793421981E4569B11DD4ABAC233FDA","019cf0d6-a642-7c56-afca-8167ec02f385","019cf037-5203-781a-b900-108ccb1cab86","","488","
                <div class=""stimulus-container"">
                    <img src=""images/causal_sequence/saving_a_cat_causal/saving_a_cat_causal_9.png"" class=""exp-image"">
                    <div class=""question-area"">
                        <p style=""font-size: 20px; font-weight: bold; margin: 0;"">Is there a person in this image?</p>
                    </div>
                </div>","0","main_experiment_trial","9","saving_a_cat_causal","causal_sequence","","","","",""
"","","","","","html-keyboard-response","98","311842","0.0-98.0","17793421981E4569B11DD4ABAC233FDA","019cf0d6-a642-7c56-afca-8167ec02f385","019cf037-5203-781a-b900-108ccb1cab86","","null","
                <div class=""stimulus-container"">
                    <img src=""images/causal_sequence/saving_a_cat_causal/saving_a_cat_causal_ten.png"" class=""exp-image"">
                    <div class=""question-area""></div> 
                </div>","null","","","","","","","","",""
"","","","","","html-button-response","99","311863","0.0-99.0","17793421981E4569B11DD4ABAC233FDA","019cf0d6-a642-7c56-afca-8167ec02f385","019cf037-5203-781a-b900-108ccb1cab86","","18","
                <div class=""stimulus-container"">
                    <img src=""images/causal_sequence/saving_a_cat_causal/saving_a_cat_causal_ten.png"" class=""exp-image"">
                    <div class=""question-area"">
                        <p style=""font-size: 20px; font-weight: bold; margin: 0;"">Is there a person in this image?</p>
                    </div>
                </div>","0","main_experiment_trial","ten","saving_a_cat_causal","causal_sequence","","","","",""
"","","","","","html-keyboard-response","100","312864","0.0-100.0","17793421981E4569B11DD4ABAC233FDA","019cf0d6-a642-7c56-afca-8167ec02f385","019cf037-5203-781a-b900-108ccb1cab86","","null","<div style=""background-color: white; width: 100vw; height: 100vh;""></div>","null","","","","","","","","",""
"","","","","","html-keyboard-response","101","317866","0.0-101.0","17793421981E4569B11DD4ABAC233FDA","019cf0d6-a642-7c56-afca-8167ec02f385","019cf037-5203-781a-b900-108ccb1cab86","","null","
                <div class=""stimulus-container"">
                    <img src=""images/causal_sequence/the_performance_causal/the_performance_causal_1.png"" class=""exp-image"">
                    <div class=""question-area""></div> 
                </div>","null","","","","","","","","",""
"","","","","","html-button-response","102","318312","0.0-102.0","17793421981E4569B11DD4ABAC233FDA","019cf0d6-a642-7c56-afca-8167ec02f385","019cf037-5203-781a-b900-108ccb1cab86","","444","
                <div class=""stimulus-container"">
                    <img src=""images/causal_sequence/the_performance_causal/the_performance_causal_1.png"" class=""exp-image"">
                    <div class=""question-area"">
                        <p style=""font-size: 20px; font-weight: bold; margin: 0;"">Is there a person in this image?</p>
                    </div>
                </div>","0","main_experiment_trial","1","the_performance_causal","causal_sequence","","","","",""
"","","","","","html-keyboard-response","103","323314","0.0-103.0","17793421981E4569B11DD4ABAC233FDA","019cf0d6-a642-7c56-afca-8167ec02f385","019cf037-5203-781a-b900-108ccb1cab86","","null","
                <div class=""stimulus-container"">
                    <img src=""images/causal_sequence/the_performance_causal/the_performance_causal_2.png"" class=""exp-image"">
                    <div class=""question-area""></div> 
                </div>","null","","","","","","","","",""
"","","","","","html-button-response","104","323820","0.0-104.0","17793421981E4569B11DD4ABAC233FDA","019cf0d6-a642-7c56-afca-8167ec02f385","019cf037-5203-781a-b900-108ccb1cab86","","504","
                <div class=""stimulus-container"">
                    <img src=""images/causal_sequence/the_performance_causal/the_performance_causal_2.png"" class=""exp-image"">
                    <div class=""question-area"">
                        <p style=""font-size: 20px; font-weight: bold; margin: 0;"">Is there a person in this image?</p>
                    </div>
                </div>","0","main_experiment_trial","2","the_performance_causal","causal_sequence","","","","",""
"","","","","","html-keyboard-response","105","328823","0.0-105.0","17793421981E4569B11DD4ABAC233FDA","019cf0d6-a642-7c56-afca-8167ec02f385","019cf037-5203-781a-b900-108ccb1cab86","","null","
                <div class=""stimulus-container"">
                    <img src=""images/causal_sequence/the_performance_causal/the_performance_causal_3.png"" class=""exp-image"">
                    <div class=""question-area""></div> 
                </div>","null","","","","","","","","",""
"","","","","","html-button-response","106","330039","0.0-106.0","17793421981E4569B11DD4ABAC233FDA","019cf0d6-a642-7c56-afca-8167ec02f385","019cf037-5203-781a-b900-108ccb1cab86","","1213","
                <div class=""stimulus-container"">
                    <img src=""images/causal_sequence/the_performance_causal/the_performance_causal_3.png"" class=""exp-image"">
                    <div class=""question-area"">
                        <p style=""font-size: 20px; font-weight: bold; margin: 0;"">Is there a person in this image?</p>
                    </div>
                </div>","0","main_experiment_trial","3","the_performance_causal","causal_sequence","","","","",""
"","","","","","html-keyboard-response","107","335041","0.0-107.0","17793421981E4569B11DD4ABAC233FDA","019cf0d6-a642-7c56-afca-8167ec02f385","019cf037-5203-781a-b900-108ccb1cab86","","null","
                <div class=""stimulus-container"">
                    <img src=""images/causal_sequence/the_performance_causal/the_performance_causal_4.png"" class=""exp-image"">
                    <div class=""question-area""></div> 
                </div>","null","","","","","","","","",""
"","","","","","html-button-response","108","335666","0.0-108.0","17793421981E4569B11DD4ABAC233FDA","019cf0d6-a642-7c56-afca-8167ec02f385","019cf037-5203-781a-b900-108ccb1cab86","","622","
                <div class=""stimulus-container"">
                    <img src=""images/causal_sequence/the_performance_causal/the_performance_causal_4.png"" class=""exp-image"">
                    <div class=""question-area"">
                        <p style=""font-size: 20px; font-weight: bold; margin: 0;"">Is there a person in this image?</p>
                    </div>
                </div>","0","main_experiment_trial","4","the_performance_causal","causal_sequence","","","","",""
"","","","","","html-keyboard-response","109","340669","0.0-109.0","17793421981E4569B11DD4ABAC233FDA","019cf0d6-a642-7c56-afca-8167ec02f385","019cf037-5203-781a-b900-108ccb1cab86","","null","
                <div class=""stimulus-container"">
                    <img src=""images/causal_sequence/the_performance_causal/the_performance_causal_5.png"" class=""exp-image"">
                    <div class=""question-area""></div> 
                </div>","null","","","","","","","","",""
"","","","","","html-button-response","110","341706","0.0-110.0","17793421981E4569B11DD4ABAC233FDA","019cf0d6-a642-7c56-afca-8167ec02f385","019cf037-5203-781a-b900-108ccb1cab86","","1035","
                <div class=""stimulus-container"">
                    <img src=""images/causal_sequence/the_performance_causal/the_performance_causal_5.png"" class=""exp-image"">
                    <div class=""question-area"">
                        <p style=""font-size: 20px; font-weight: bold; margin: 0;"">Is there a person in this image?</p>
                    </div>
                </div>","0","main_experiment_trial","5","the_performance_causal","causal_sequence","","","","",""
"","","","","","html-keyboard-response","111","346708","0.0-111.0","17793421981E4569B11DD4ABAC233FDA","019cf0d6-a642-7c56-afca-8167ec02f385","019cf037-5203-781a-b900-108ccb1cab86","","null","
                <div class=""stimulus-container"">
                    <img src=""images/causal_sequence/the_performance_causal/the_performance_causal_6.png"" class=""exp-image"">
                    <div class=""question-area""></div> 
                </div>","null","","","","","","","","",""
"","","","","","html-button-response","112","347115","0.0-112.0","17793421981E4569B11DD4ABAC233FDA","019cf0d6-a642-7c56-afca-8167ec02f385","019cf037-5203-781a-b900-108ccb1cab86","","405","
                <div class=""stimulus-container"">
                    <img src=""images/causal_sequence/the_performance_causal/the_performance_causal_6.png"" class=""exp-image"">
                    <div class=""question-area"">
                        <p style=""font-size: 20px; font-weight: bold; margin: 0;"">Is there a person in this image?</p>
                    </div>
                </div>","0","main_experiment_trial","6","the_performance_causal","causal_sequence","","","","",""
"","","","","","html-keyboard-response","113","352117","0.0-113.0","17793421981E4569B11DD4ABAC233FDA","019cf0d6-a642-7c56-afca-8167ec02f385","019cf037-5203-781a-b900-108ccb1cab86","","null","
                <div class=""stimulus-container"">
                    <img src=""images/causal_sequence/the_performance_causal/the_performance_causal_7.png"" class=""exp-image"">
                    <div class=""question-area""></div> 
                </div>","null","","","","","","","","",""
"","","","","","html-button-response","114","352801","0.0-114.0","17793421981E4569B11DD4ABAC233FDA","019cf0d6-a642-7c56-afca-8167ec02f385","019cf037-5203-781a-b900-108ccb1cab86","","682","
                <div class=""stimulus-container"">
                    <img src=""images/causal_sequence/the_performance_causal/the_performance_causal_7.png"" class=""exp-image"">
                    <div class=""question-area"">
                        <p style=""font-size: 20px; font-weight: bold; margin: 0;"">Is there a person in this image?</p>
                    </div>
                </div>","0","main_experiment_trial","7","the_performance_causal","causal_sequence","","","","",""
"","","","","","html-keyboard-response","115","357804","0.0-115.0","17793421981E4569B11DD4ABAC233FDA","019cf0d6-a642-7c56-afca-8167ec02f385","019cf037-5203-781a-b900-108ccb1cab86","","null","
                <div class=""stimulus-container"">
                    <img src=""images/causal_sequence/the_performance_causal/the_performance_causal_8.png"" class=""exp-image"">
                    <div class=""question-area""></div> 
                </div>","null","","","","","","","","",""
"","","","","","html-button-response","116","358371","0.0-116.0","17793421981E4569B11DD4ABAC233FDA","019cf0d6-a642-7c56-afca-8167ec02f385","019cf037-5203-781a-b900-108ccb1cab86","","564","
                <div class=""stimulus-container"">
                    <img src=""images/causal_sequence/the_performance_causal/the_performance_causal_8.png"" class=""exp-image"">
                    <div class=""question-area"">
                        <p style=""font-size: 20px; font-weight: bold; margin: 0;"">Is there a person in this image?</p>
                    </div>
                </div>","0","main_experiment_trial","8","the_performance_causal","causal_sequence","","","","",""
"","","","","","html-keyboard-response","117","363374","0.0-117.0","17793421981E4569B11DD4ABAC233FDA","019cf0d6-a642-7c56-afca-8167ec02f385","019cf037-5203-781a-b900-108ccb1cab86","","null","
                <div class=""stimulus-container"">
                    <img src=""images/causal_sequence/the_performance_causal/the_performance_causal_9.png"" class=""exp-image"">
                    <div class=""question-area""></div> 
                </div>","null","","","","","","","","",""
"","","","","","html-button-response","118","364009","0.0-118.0","17793421981E4569B11DD4ABAC233FDA","019cf0d6-a642-7c56-afca-8167ec02f385","019cf037-5203-781a-b900-108ccb1cab86","","633","
                <div class=""stimulus-container"">
                    <img src=""images/causal_sequence/the_performance_causal/the_performance_causal_9.png"" class=""exp-image"">
                    <div class=""question-area"">
                        <p style=""font-size: 20px; font-weight: bold; margin: 0;"">Is there a person in this image?</p>
                    </div>
                </div>","0","main_experiment_trial","9","the_performance_causal","causal_sequence","","","","",""
"","","","","","html-keyboard-response","119","369011","0.0-119.0","17793421981E4569B11DD4ABAC233FDA","019cf0d6-a642-7c56-afca-8167ec02f385","019cf037-5203-781a-b900-108ccb1cab86","","null","
                <div class=""stimulus-container"">
                    <img src=""images/causal_sequence/the_performance_causal/the_performance_causal_ten.png"" class=""exp-image"">
                    <div class=""question-area""></div> 
                </div>","null","","","","","","","","",""
"","","","","","html-button-response","120","369861","0.0-120.0","17793421981E4569B11DD4ABAC233FDA","019cf0d6-a642-7c56-afca-8167ec02f385","019cf037-5203-781a-b900-108ccb1cab86","","848","
                <div class=""stimulus-container"">
                    <img src=""images/causal_sequence/the_performance_causal/the_performance_causal_ten.png"" class=""exp-image"">
                    <div class=""question-area"">
                        <p style=""font-size: 20px; font-weight: bold; margin: 0;"">Is there a person in this image?</p>
                    </div>
                </div>","0","main_experiment_trial","ten","the_performance_causal","causal_sequence","","","","",""
"","","","","","html-keyboard-response","121","370863","0.0-121.0","17793421981E4569B11DD4ABAC233FDA","019cf0d6-a642-7c56-afca-8167ec02f385","019cf037-5203-781a-b900-108ccb1cab86","","null","<div style=""background-color: white; width: 100vw; height: 100vh;""></div>","null","","","","","","","","",""
"","","","","","html-keyboard-response","122","375865","0.0-122.0","17793421981E4569B11DD4ABAC233FDA","019cf0d6-a642-7c56-afca-8167ec02f385","019cf037-5203-781a-b900-108ccb1cab86","","null","
                <div class=""stimulus-container"">
                    <img src=""images/schematic_sequence/hotel_scheme/hotel_scheme_1.png"" class=""exp-image"">
                    <div class=""question-area""></div> 
                </div>","null","","","","","","","","",""
"","","","","","html-button-response","123","376690","0.0-123.0","17793421981E4569B11DD4ABAC233FDA","019cf0d6-a642-7c56-afca-8167ec02f385","019cf037-5203-781a-b900-108ccb1cab86","","823","
                <div class=""stimulus-container"">
                    <img src=""images/schematic_sequence/hotel_scheme/hotel_scheme_1.png"" class=""exp-image"">
                    <div class=""question-area"">
                        <p style=""font-size: 20px; font-weight: bold; margin: 0;"">Is there a person in this image?</p>
                    </div>
                </div>","1","main_experiment_trial","1","hotel_scheme","schematic_sequence","","","","",""
"","","","","","html-keyboard-response","124","381693","0.0-124.0","17793421981E4569B11DD4ABAC233FDA","019cf0d6-a642-7c56-afca-8167ec02f385","019cf037-5203-781a-b900-108ccb1cab86","","null","
                <div class=""stimulus-container"">
                    <img src=""images/schematic_sequence/hotel_scheme/hotel_scheme_2.png"" class=""exp-image"">
                    <div class=""question-area""></div> 
                </div>","null","","","","","","","","",""
"","","","","","html-button-response","125","381921","0.0-125.0","17793421981E4569B11DD4ABAC233FDA","019cf0d6-a642-7c56-afca-8167ec02f385","019cf037-5203-781a-b900-108ccb1cab86","","225","
                <div class=""stimulus-container"">
                    <img src=""images/schematic_sequence/hotel_scheme/hotel_scheme_2.png"" class=""exp-image"">
                    <div class=""question-area"">
                        <p style=""font-size: 20px; font-weight: bold; margin: 0;"">Is there a person in this image?</p>
                    </div>
                </div>","0","main_experiment_trial","2","hotel_scheme","schematic_sequence","","","","",""
"","","","","","html-keyboard-response","126","386923","0.0-126.0","17793421981E4569B11DD4ABAC233FDA","019cf0d6-a642-7c56-afca-8167ec02f385","019cf037-5203-781a-b900-108ccb1cab86","","null","
                <div class=""stimulus-container"">
                    <img src=""images/schematic_sequence/hotel_scheme/hotel_scheme_3.png"" class=""exp-image"">
                    <div class=""question-area""></div> 
                </div>","null","","","","","","","","",""
"","","","","","html-button-response","127","387430","0.0-127.0","17793421981E4569B11DD4ABAC233FDA","019cf0d6-a642-7c56-afca-8167ec02f385","019cf037-5203-781a-b900-108ccb1cab86","","505","
                <div class=""stimulus-container"">
                    <img src=""images/schematic_sequence/hotel_scheme/hotel_scheme_3.png"" class=""exp-image"">
                    <div class=""question-area"">
                        <p style=""font-size: 20px; font-weight: bold; margin: 0;"">Is there a person in this image?</p>
                    </div>
                </div>","0","main_experiment_trial","3","hotel_scheme","schematic_sequence","","","","",""
"","","","","","html-keyboard-response","128","392433","0.0-128.0","17793421981E4569B11DD4ABAC233FDA","019cf0d6-a642-7c56-afca-8167ec02f385","019cf037-5203-781a-b900-108ccb1cab86","","null","
                <div class=""stimulus-container"">
                    <img src=""images/schematic_sequence/hotel_scheme/hotel_scheme_4.png"" class=""exp-image"">
                    <div class=""question-area""></div> 
                </div>","null","","","","","","","","",""
"","","","","","html-button-response","129","393557","0.0-129.0","17793421981E4569B11DD4ABAC233FDA","019cf0d6-a642-7c56-afca-8167ec02f385","019cf037-5203-781a-b900-108ccb1cab86","","1122","
                <div class=""stimulus-container"">
                    <img src=""images/schematic_sequence/hotel_scheme/hotel_scheme_4.png"" class=""exp-image"">
                    <div class=""question-area"">
                        <p style=""font-size: 20px; font-weight: bold; margin: 0;"">Is there a person in this image?</p>
                    </div>
                </div>","1","main_experiment_trial","4","hotel_scheme","schematic_sequence","","","","",""
"","","","","","html-keyboard-response","130","398560","0.0-130.0","17793421981E4569B11DD4ABAC233FDA","019cf0d6-a642-7c56-afca-8167ec02f385","019cf037-5203-781a-b900-108ccb1cab86","","null","
                <div class=""stimulus-container"">
                    <img src=""images/schematic_sequence/hotel_scheme/hotel_scheme_5.png"" class=""exp-image"">
                    <div class=""question-area""></div> 
                </div>","null","","","","","","","","",""
"","","","","","html-button-response","131","399246","0.0-131.0","17793421981E4569B11DD4ABAC233FDA","019cf0d6-a642-7c56-afca-8167ec02f385","019cf037-5203-781a-b900-108ccb1cab86","","684","
                <div class=""stimulus-container"">
                    <img src=""images/schematic_sequence/hotel_scheme/hotel_scheme_5.png"" class=""exp-image"">
                    <div class=""question-area"">
                        <p style=""font-size: 20px; font-weight: bold; margin: 0;"">Is there a person in this image?</p>
                    </div>
                </div>","0","main_experiment_trial","5","hotel_scheme","schematic_sequence","","","","",""
"","","","","","html-keyboard-response","132","404249","0.0-132.0","17793421981E4569B11DD4ABAC233FDA","019cf0d6-a642-7c56-afca-8167ec02f385","019cf037-5203-781a-b900-108ccb1cab86","","null","
                <div class=""stimulus-container"">
                    <img src=""images/schematic_sequence/hotel_scheme/hotel_scheme_6.png"" class=""exp-image"">
                    <div class=""question-area""></div> 
                </div>","null","","","","","","","","",""
"","","","","","html-button-response","133","405612","0.0-133.0","17793421981E4569B11DD4ABAC233FDA","019cf0d6-a642-7c56-afca-8167ec02f385","019cf037-5203-781a-b900-108ccb1cab86","","1360","
                <div class=""stimulus-container"">
                    <img src=""images/schematic_sequence/hotel_scheme/hotel_scheme_6.png"" class=""exp-image"">
                    <div class=""question-area"">
                        <p style=""font-size: 20px; font-weight: bold; margin: 0;"">Is there a person in this image?</p>
                    </div>
                </div>","0","main_experiment_trial","6","hotel_scheme","schematic_sequence","","","","",""
"","","","","","html-keyboard-response","134","410614","0.0-134.0","17793421981E4569B11DD4ABAC233FDA","019cf0d6-a642-7c56-afca-8167ec02f385","019cf037-5203-781a-b900-108ccb1cab86","","null","
                <div class=""stimulus-container"">
                    <img src=""images/schematic_sequence/hotel_scheme/hotel_scheme_7.png"" class=""exp-image"">
                    <div class=""question-area""></div> 
                </div>","null","","","","","","","","",""
"","","","","","html-button-response","135","411751","0.0-135.0","17793421981E4569B11DD4ABAC233FDA","019cf0d6-a642-7c56-afca-8167ec02f385","019cf037-5203-781a-b900-108ccb1cab86","","1135","
                <div class=""stimulus-container"">
                    <img src=""images/schematic_sequence/hotel_scheme/hotel_scheme_7.png"" class=""exp-image"">
                    <div class=""question-area"">
                        <p style=""font-size: 20px; font-weight: bold; margin: 0;"">Is there a person in this image?</p>
                    </div>
                </div>","0","main_experiment_trial","7","hotel_scheme","schematic_sequence","","","","",""
"","","","","","html-keyboard-response","136","416753","0.0-136.0","17793421981E4569B11DD4ABAC233FDA","019cf0d6-a642-7c56-afca-8167ec02f385","019cf037-5203-781a-b900-108ccb1cab86","","null","
                <div class=""stimulus-container"">
                    <img src=""images/schematic_sequence/hotel_scheme/hotel_scheme_8.png"" class=""exp-image"">
                    <div class=""question-area""></div> 
                </div>","null","","","","","","","","",""
"","","","","","html-button-response","137","417474","0.0-137.0","17793421981E4569B11DD4ABAC233FDA","019cf0d6-a642-7c56-afca-8167ec02f385","019cf037-5203-781a-b900-108ccb1cab86","","718","
                <div class=""stimulus-container"">
                    <img src=""images/schematic_sequence/hotel_scheme/hotel_scheme_8.png"" class=""exp-image"">
                    <div class=""question-area"">
                        <p style=""font-size: 20px; font-weight: bold; margin: 0;"">Is there a person in this image?</p>
                    </div>
                </div>","0","main_experiment_trial","8","hotel_scheme","schematic_sequence","","","","",""
"","","","","","html-keyboard-response","138","422476","0.0-138.0","17793421981E4569B11DD4ABAC233FDA","019cf0d6-a642-7c56-afca-8167ec02f385","019cf037-5203-781a-b900-108ccb1cab86","","null","
                <div class=""stimulus-container"">
                    <img src=""images/schematic_sequence/hotel_scheme/hotel_scheme_9.png"" class=""exp-image"">
                    <div class=""question-area""></div> 
                </div>","null","","","","","","","","",""
"","","","","","html-button-response","139","422766","0.0-139.0","17793421981E4569B11DD4ABAC233FDA","019cf0d6-a642-7c56-afca-8167ec02f385","019cf037-5203-781a-b900-108ccb1cab86","","287","
                <div class=""stimulus-container"">
                    <img src=""images/schematic_sequence/hotel_scheme/hotel_scheme_9.png"" class=""exp-image"">
                    <div class=""question-area"">
                        <p style=""font-size: 20px; font-weight: bold; margin: 0;"">Is there a person in this image?</p>
                    </div>
                </div>","0","main_experiment_trial","9","hotel_scheme","schematic_sequence","","","","",""
"","","","","","html-keyboard-response","140","427768","0.0-140.0","17793421981E4569B11DD4ABAC233FDA","019cf0d6-a642-7c56-afca-8167ec02f385","019cf037-5203-781a-b900-108ccb1cab86","","null","
                <div class=""stimulus-container"">
                    <img src=""images/schematic_sequence/hotel_scheme/hotel_scheme_ten.png"" class=""exp-image"">
                    <div class=""question-area""></div> 
                </div>","null","","","","","","","","",""
"","","","","","html-button-response","141","428335","0.0-141.0","17793421981E4569B11DD4ABAC233FDA","019cf0d6-a642-7c56-afca-8167ec02f385","019cf037-5203-781a-b900-108ccb1cab86","","564","
                <div class=""stimulus-container"">
                    <img src=""images/schematic_sequence/hotel_scheme/hotel_scheme_ten.png"" class=""exp-image"">
                    <div class=""question-area"">
                        <p style=""font-size: 20px; font-weight: bold; margin: 0;"">Is there a person in this image?</p>
                    </div>
                </div>","0","main_experiment_trial","ten","hotel_scheme","schematic_sequence","","","","",""
"","","","","","html-keyboard-response","142","429337","0.0-142.0","17793421981E4569B11DD4ABAC233FDA","019cf0d6-a642-7c56-afca-8167ec02f385","019cf037-5203-781a-b900-108ccb1cab86","","null","<div style=""background-color: white; width: 100vw; height: 100vh;""></div>","null","","","","","","","","",""
"","","","","","html-keyboard-response","143","434338","0.0-143.0","17793421981E4569B11DD4ABAC233FDA","019cf0d6-a642-7c56-afca-8167ec02f385","019cf037-5203-781a-b900-108ccb1cab86","","null","
                <div class=""stimulus-container"">
                    <img src=""images/causal_sequence/museum_causal/museum_causal_1.png"" class=""exp-image"">
                    <div class=""question-area""></div> 
                </div>","null","","","","","","","","",""
"","","","","","html-button-response","144","434692","0.0-144.0","17793421981E4569B11DD4ABAC233FDA","019cf0d6-a642-7c56-afca-8167ec02f385","019cf037-5203-781a-b900-108ccb1cab86","","351","
                <div class=""stimulus-container"">
                    <img src=""images/causal_sequence/museum_causal/museum_causal_1.png"" class=""exp-image"">
                    <div class=""question-area"">
                        <p style=""font-size: 20px; font-weight: bold; margin: 0;"">Is there a person in this image?</p>
                    </div>
                </div>","0","main_experiment_trial","1","museum_causal","causal_sequence","","","","",""
"","","","","","html-keyboard-response","145","439695","0.0-145.0","17793421981E4569B11DD4ABAC233FDA","019cf0d6-a642-7c56-afca-8167ec02f385","019cf037-5203-781a-b900-108ccb1cab86","","null","
                <div class=""stimulus-container"">
                    <img src=""images/causal_sequence/museum_causal/museum_causal_2.png"" class=""exp-image"">
                    <div class=""question-area""></div> 
                </div>","null","","","","","","","","",""
"","","","","","html-button-response","146","442697","0.0-146.0","17793421981E4569B11DD4ABAC233FDA","019cf0d6-a642-7c56-afca-8167ec02f385","019cf037-5203-781a-b900-108ccb1cab86","","null","
                <div class=""stimulus-container"">
                    <img src=""images/causal_sequence/museum_causal/museum_causal_2.png"" class=""exp-image"">
                    <div class=""question-area"">
                        <p style=""font-size: 20px; font-weight: bold; margin: 0;"">Is there a person in this image?</p>
                    </div>
                </div>","null","main_experiment_trial","2","museum_causal","causal_sequence","","","","",""
"","","","","","html-keyboard-response","147","447699","0.0-147.0","17793421981E4569B11DD4ABAC233FDA","019cf0d6-a642-7c56-afca-8167ec02f385","019cf037-5203-781a-b900-108ccb1cab86","","null","
                <div class=""stimulus-container"">
                    <img src=""images/causal_sequence/museum_causal/museum_causal_3.png"" class=""exp-image"">
                    <div class=""question-area""></div> 
                </div>","null","","","","","","","","",""
"","","","","","html-button-response","148","448291","0.0-148.0","17793421981E4569B11DD4ABAC233FDA","019cf0d6-a642-7c56-afca-8167ec02f385","019cf037-5203-781a-b900-108ccb1cab86","","590","
                <div class=""stimulus-container"">
                    <img src=""images/causal_sequence/museum_causal/museum_causal_3.png"" class=""exp-image"">
                    <div class=""question-area"">
                        <p style=""font-size: 20px; font-weight: bold; margin: 0;"">Is there a person in this image?</p>
                    </div>
                </div>","0","main_experiment_trial","3","museum_causal","causal_sequence","","","","",""
"","","","","","html-keyboard-response","149","453293","0.0-149.0","17793421981E4569B11DD4ABAC233FDA","019cf0d6-a642-7c56-afca-8167ec02f385","019cf037-5203-781a-b900-108ccb1cab86","","null","
                <div class=""stimulus-container"">
                    <img src=""images/causal_sequence/museum_causal/museum_causal_4.png"" class=""exp-image"">
                    <div class=""question-area""></div> 
                </div>","null","","","","","","","","",""
"","","","","","html-button-response","150","453938","0.0-150.0","17793421981E4569B11DD4ABAC233FDA","019cf0d6-a642-7c56-afca-8167ec02f385","019cf037-5203-781a-b900-108ccb1cab86","","642","
                <div class=""stimulus-container"">
                    <img src=""images/causal_sequence/museum_causal/museum_causal_4.png"" class=""exp-image"">
                    <div class=""question-area"">
                        <p style=""font-size: 20px; font-weight: bold; margin: 0;"">Is there a person in this image?</p>
                    </div>
                </div>","1","main_experiment_trial","4","museum_causal","causal_sequence","","","","",""
"","","","","","html-keyboard-response","151","458940","0.0-151.0","17793421981E4569B11DD4ABAC233FDA","019cf0d6-a642-7c56-afca-8167ec02f385","019cf037-5203-781a-b900-108ccb1cab86","","null","
                <div class=""stimulus-container"">
                    <img src=""images/causal_sequence/museum_causal/museum_causal_5.png"" class=""exp-image"">
                    <div class=""question-area""></div> 
                </div>","null","","","","","","","","",""
"","","","","","html-button-response","152","459553","0.0-152.0","17793421981E4569B11DD4ABAC233FDA","019cf0d6-a642-7c56-afca-8167ec02f385","019cf037-5203-781a-b900-108ccb1cab86","","611","
                <div class=""stimulus-container"">
                    <img src=""images/causal_sequence/museum_causal/museum_causal_5.png"" class=""exp-image"">
                    <div class=""question-area"">
                        <p style=""font-size: 20px; font-weight: bold; margin: 0;"">Is there a person in this image?</p>
                    </div>
                </div>","0","main_experiment_trial","5","museum_causal","causal_sequence","","","","",""
"","","","","","html-keyboard-response","153","464556","0.0-153.0","17793421981E4569B11DD4ABAC233FDA","019cf0d6-a642-7c56-afca-8167ec02f385","019cf037-5203-781a-b900-108ccb1cab86","","null","
                <div class=""stimulus-container"">
                    <img src=""images/causal_sequence/museum_causal/museum_causal_6.png"" class=""exp-image"">
                    <div class=""question-area""></div> 
                </div>","null","","","","","","","","",""
"","","","","","html-button-response","154","465051","0.0-154.0","17793421981E4569B11DD4ABAC233FDA","019cf0d6-a642-7c56-afca-8167ec02f385","019cf037-5203-781a-b900-108ccb1cab86","","493","
                <div class=""stimulus-container"">
                    <img src=""images/causal_sequence/museum_causal/museum_causal_6.png"" class=""exp-image"">
                    <div class=""question-area"">
                        <p style=""font-size: 20px; font-weight: bold; margin: 0;"">Is there a person in this image?</p>
                    </div>
                </div>","0","main_experiment_trial","6","museum_causal","causal_sequence","","","","",""
"","","","","","html-keyboard-response","155","470054","0.0-155.0","17793421981E4569B11DD4ABAC233FDA","019cf0d6-a642-7c56-afca-8167ec02f385","019cf037-5203-781a-b900-108ccb1cab86","","null","
                <div class=""stimulus-container"">
                    <img src=""images/causal_sequence/museum_causal/museum_causal_7.png"" class=""exp-image"">
                    <div class=""question-area""></div> 
                </div>","null","","","","","","","","",""
"","","","","","html-button-response","156","471635","0.0-156.0","17793421981E4569B11DD4ABAC233FDA","019cf0d6-a642-7c56-afca-8167ec02f385","019cf037-5203-781a-b900-108ccb1cab86","","1578","
                <div class=""stimulus-container"">
                    <img src=""images/causal_sequence/museum_causal/museum_causal_7.png"" class=""exp-image"">
                    <div class=""question-area"">
                        <p style=""font-size: 20px; font-weight: bold; margin: 0;"">Is there a person in this image?</p>
                    </div>
                </div>","1","main_experiment_trial","7","museum_causal","causal_sequence","","","","",""
"","","","","","html-keyboard-response","157","476637","0.0-157.0","17793421981E4569B11DD4ABAC233FDA","019cf0d6-a642-7c56-afca-8167ec02f385","019cf037-5203-781a-b900-108ccb1cab86","","null","
                <div class=""stimulus-container"">
                    <img src=""images/causal_sequence/museum_causal/museum_causal_8.png"" class=""exp-image"">
                    <div class=""question-area""></div> 
                </div>","null","","","","","","","","",""
"","","","","","html-button-response","158","477784","0.0-158.0","17793421981E4569B11DD4ABAC233FDA","019cf0d6-a642-7c56-afca-8167ec02f385","019cf037-5203-781a-b900-108ccb1cab86","","1145","
                <div class=""stimulus-container"">
                    <img src=""images/causal_sequence/museum_causal/museum_causal_8.png"" class=""exp-image"">
                    <div class=""question-area"">
                        <p style=""font-size: 20px; font-weight: bold; margin: 0;"">Is there a person in this image?</p>
                    </div>
                </div>","0","main_experiment_trial","8","museum_causal","causal_sequence","","","","",""
"","","","","","html-keyboard-response","159","482786","0.0-159.0","17793421981E4569B11DD4ABAC233FDA","019cf0d6-a642-7c56-afca-8167ec02f385","019cf037-5203-781a-b900-108ccb1cab86","","null","
                <div class=""stimulus-container"">
                    <img src=""images/causal_sequence/museum_causal/museum_causal_9.png"" class=""exp-image"">
                    <div class=""question-area""></div> 
                </div>","null","","","","","","","","",""
"","","","","","html-button-response","160","483495","0.0-160.0","17793421981E4569B11DD4ABAC233FDA","019cf0d6-a642-7c56-afca-8167ec02f385","019cf037-5203-781a-b900-108ccb1cab86","","708","
                <div class=""stimulus-container"">
                    <img src=""images/causal_sequence/museum_causal/museum_causal_9.png"" class=""exp-image"">
                    <div class=""question-area"">
                        <p style=""font-size: 20px; font-weight: bold; margin: 0;"">Is there a person in this image?</p>
                    </div>
                </div>","1","main_experiment_trial","9","museum_causal","causal_sequence","","","","",""
"","","","","","html-keyboard-response","161","488497","0.0-161.0","17793421981E4569B11DD4ABAC233FDA","019cf0d6-a642-7c56-afca-8167ec02f385","019cf037-5203-781a-b900-108ccb1cab86","","null","
                <div class=""stimulus-container"">
                    <img src=""images/causal_sequence/museum_causal/museum_causal_ten.png"" class=""exp-image"">
                    <div class=""question-area""></div> 
                </div>","null","","","","","","","","",""
"","","","","","html-button-response","162","489191","0.0-162.0","17793421981E4569B11DD4ABAC233FDA","019cf0d6-a642-7c56-afca-8167ec02f385","019cf037-5203-781a-b900-108ccb1cab86","","692","
                <div class=""stimulus-container"">
                    <img src=""images/causal_sequence/museum_causal/museum_causal_ten.png"" class=""exp-image"">
                    <div class=""question-area"">
                        <p style=""font-size: 20px; font-weight: bold; margin: 0;"">Is there a person in this image?</p>
                    </div>
                </div>","0","main_experiment_trial","ten","museum_causal","causal_sequence","","","","",""
"","","","","","html-keyboard-response","163","490192","0.0-163.0","17793421981E4569B11DD4ABAC233FDA","019cf0d6-a642-7c56-afca-8167ec02f385","019cf037-5203-781a-b900-108ccb1cab86","","null","<div style=""background-color: white; width: 100vw; height: 100vh;""></div>","null","","","","","","","","",""
"","","","","","html-keyboard-response","164","495193","0.0-164.0","17793421981E4569B11DD4ABAC233FDA","019cf0d6-a642-7c56-afca-8167ec02f385","019cf037-5203-781a-b900-108ccb1cab86","","null","
                <div class=""stimulus-container"">
                    <img src=""images/schematic_sequence/restaurant_scheme/restaurant_scheme_1.png"" class=""exp-image"">
                    <div class=""question-area""></div> 
                </div>","null","","","","","","","","",""
"","","","","","html-button-response","165","495205","0.0-165.0","17793421981E4569B11DD4ABAC233FDA","019cf0d6-a642-7c56-afca-8167ec02f385","019cf037-5203-781a-b900-108ccb1cab86","","10","
                <div class=""stimulus-container"">
                    <img src=""images/schematic_sequence/restaurant_scheme/restaurant_scheme_1.png"" class=""exp-image"">
                    <div class=""question-area"">
                        <p style=""font-size: 20px; font-weight: bold; margin: 0;"">Is there a person in this image?</p>
                    </div>
                </div>","0","main_experiment_trial","1","restaurant_scheme","schematic_sequence","","","","",""
"","","","","","html-keyboard-response","166","500206","0.0-166.0","17793421981E4569B11DD4ABAC233FDA","019cf0d6-a642-7c56-afca-8167ec02f385","019cf037-5203-781a-b900-108ccb1cab86","","null","
                <div class=""stimulus-container"">
                    <img src=""images/schematic_sequence/restaurant_scheme/restaurant_scheme_2.png"" class=""exp-image"">
                    <div class=""question-area""></div> 
                </div>","null","","","","","","","","",""
"","","","","","html-button-response","167","501140","0.0-167.0","17793421981E4569B11DD4ABAC233FDA","019cf0d6-a642-7c56-afca-8167ec02f385","019cf037-5203-781a-b900-108ccb1cab86","","932","
                <div class=""stimulus-container"">
                    <img src=""images/schematic_sequence/restaurant_scheme/restaurant_scheme_2.png"" class=""exp-image"">
                    <div class=""question-area"">
                        <p style=""font-size: 20px; font-weight: bold; margin: 0;"">Is there a person in this image?</p>
                    </div>
                </div>","1","main_experiment_trial","2","restaurant_scheme","schematic_sequence","","","","",""
"","","","","","html-keyboard-response","168","506142","0.0-168.0","17793421981E4569B11DD4ABAC233FDA","019cf0d6-a642-7c56-afca-8167ec02f385","019cf037-5203-781a-b900-108ccb1cab86","","null","
                <div class=""stimulus-container"">
                    <img src=""images/schematic_sequence/restaurant_scheme/restaurant_scheme_3.png"" class=""exp-image"">
                    <div class=""question-area""></div> 
                </div>","null","","","","","","","","",""
"","","","","","html-button-response","169","507566","0.0-169.0","17793421981E4569B11DD4ABAC233FDA","019cf0d6-a642-7c56-afca-8167ec02f385","019cf037-5203-781a-b900-108ccb1cab86","","1422","
                <div class=""stimulus-container"">
                    <img src=""images/schematic_sequence/restaurant_scheme/restaurant_scheme_3.png"" class=""exp-image"">
                    <div class=""question-area"">
                        <p style=""font-size: 20px; font-weight: bold; margin: 0;"">Is there a person in this image?</p>
                    </div>
                </div>","1","main_experiment_trial","3","restaurant_scheme","schematic_sequence","","","","",""
"","","","","","html-keyboard-response","170","512568","0.0-170.0","17793421981E4569B11DD4ABAC233FDA","019cf0d6-a642-7c56-afca-8167ec02f385","019cf037-5203-781a-b900-108ccb1cab86","","null","
                <div class=""stimulus-container"">
                    <img src=""images/schematic_sequence/restaurant_scheme/restaurant_scheme_4.png"" class=""exp-image"">
                    <div class=""question-area""></div> 
                </div>","null","","","","","","","","",""
"","","","","","html-button-response","171","513505","0.0-171.0","17793421981E4569B11DD4ABAC233FDA","019cf0d6-a642-7c56-afca-8167ec02f385","019cf037-5203-781a-b900-108ccb1cab86","","936","
                <div class=""stimulus-container"">
                    <img src=""images/schematic_sequence/restaurant_scheme/restaurant_scheme_4.png"" class=""exp-image"">
                    <div class=""question-area"">
                        <p style=""font-size: 20px; font-weight: bold; margin: 0;"">Is there a person in this image?</p>
                    </div>
                </div>","0","main_experiment_trial","4","restaurant_scheme","schematic_sequence","","","","",""
"","","","","","html-keyboard-response","172","518508","0.0-172.0","17793421981E4569B11DD4ABAC233FDA","019cf0d6-a642-7c56-afca-8167ec02f385","019cf037-5203-781a-b900-108ccb1cab86","","null","
                <div class=""stimulus-container"">
                    <img src=""images/schematic_sequence/restaurant_scheme/restaurant_scheme_5.png"" class=""exp-image"">
                    <div class=""question-area""></div> 
                </div>","null","","","","","","","","",""
"","","","","","html-button-response","173","520424","0.0-173.0","17793421981E4569B11DD4ABAC233FDA","019cf0d6-a642-7c56-afca-8167ec02f385","019cf037-5203-781a-b900-108ccb1cab86","","1913","
                <div class=""stimulus-container"">
                    <img src=""images/schematic_sequence/restaurant_scheme/restaurant_scheme_5.png"" class=""exp-image"">
                    <div class=""question-area"">
                        <p style=""font-size: 20px; font-weight: bold; margin: 0;"">Is there a person in this image?</p>
                    </div>
                </div>","0","main_experiment_trial","5","restaurant_scheme","schematic_sequence","","","","",""
"","","","","","html-keyboard-response","174","525426","0.0-174.0","17793421981E4569B11DD4ABAC233FDA","019cf0d6-a642-7c56-afca-8167ec02f385","019cf037-5203-781a-b900-108ccb1cab86","","null","
                <div class=""stimulus-container"">
                    <img src=""images/schematic_sequence/restaurant_scheme/restaurant_scheme_6.png"" class=""exp-image"">
                    <div class=""question-area""></div> 
                </div>","null","","","","","","","","",""
"","","","","","html-button-response","175","526157","0.0-175.0","17793421981E4569B11DD4ABAC233FDA","019cf0d6-a642-7c56-afca-8167ec02f385","019cf037-5203-781a-b900-108ccb1cab86","","729","
                <div class=""stimulus-container"">
                    <img src=""images/schematic_sequence/restaurant_scheme/restaurant_scheme_6.png"" class=""exp-image"">
                    <div class=""question-area"">
                        <p style=""font-size: 20px; font-weight: bold; margin: 0;"">Is there a person in this image?</p>
                    </div>
                </div>","1","main_experiment_trial","6","restaurant_scheme","schematic_sequence","","","","",""
"","","","","","html-keyboard-response","176","531159","0.0-176.0","17793421981E4569B11DD4ABAC233FDA","019cf0d6-a642-7c56-afca-8167ec02f385","019cf037-5203-781a-b900-108ccb1cab86","","null","
                <div class=""stimulus-container"">
                    <img src=""images/schematic_sequence/restaurant_scheme/restaurant_scheme_7.png"" class=""exp-image"">
                    <div class=""question-area""></div> 
                </div>","null","","","","","","","","",""
"","","","","","html-button-response","177","531182","0.0-177.0","17793421981E4569B11DD4ABAC233FDA","019cf0d6-a642-7c56-afca-8167ec02f385","019cf037-5203-781a-b900-108ccb1cab86","","21","
                <div class=""stimulus-container"">
                    <img src=""images/schematic_sequence/restaurant_scheme/restaurant_scheme_7.png"" class=""exp-image"">
                    <div class=""question-area"">
                        <p style=""font-size: 20px; font-weight: bold; margin: 0;"">Is there a person in this image?</p>
                    </div>
                </div>","1","main_experiment_trial","7","restaurant_scheme","schematic_sequence","","","","",""
"","","","","","html-keyboard-response","178","536184","0.0-178.0","17793421981E4569B11DD4ABAC233FDA","019cf0d6-a642-7c56-afca-8167ec02f385","019cf037-5203-781a-b900-108ccb1cab86","","null","
                <div class=""stimulus-container"">
                    <img src=""images/schematic_sequence/restaurant_scheme/restaurant_scheme_8.png"" class=""exp-image"">
                    <div class=""question-area""></div> 
                </div>","null","","","","","","","","",""
"","","","","","html-button-response","179","536860","0.0-179.0","17793421981E4569B11DD4ABAC233FDA","019cf0d6-a642-7c56-afca-8167ec02f385","019cf037-5203-781a-b900-108ccb1cab86","","674","
                <div class=""stimulus-container"">
                    <img src=""images/schematic_sequence/restaurant_scheme/restaurant_scheme_8.png"" class=""exp-image"">
                    <div class=""question-area"">
                        <p style=""font-size: 20px; font-weight: bold; margin: 0;"">Is there a person in this image?</p>
                    </div>
                </div>","1","main_experiment_trial","8","restaurant_scheme","schematic_sequence","","","","",""
"","","","","","html-keyboard-response","180","541862","0.0-180.0","17793421981E4569B11DD4ABAC233FDA","019cf0d6-a642-7c56-afca-8167ec02f385","019cf037-5203-781a-b900-108ccb1cab86","","null","
                <div class=""stimulus-container"">
                    <img src=""images/schematic_sequence/restaurant_scheme/restaurant_scheme_9.png"" class=""exp-image"">
                    <div class=""question-area""></div> 
                </div>","null","","","","","","","","",""
"","","","","","html-button-response","181","542496","0.0-181.0","17793421981E4569B11DD4ABAC233FDA","019cf0d6-a642-7c56-afca-8167ec02f385","019cf037-5203-781a-b900-108ccb1cab86","","631","
                <div class=""stimulus-container"">
                    <img src=""images/schematic_sequence/restaurant_scheme/restaurant_scheme_9.png"" class=""exp-image"">
                    <div class=""question-area"">
                        <p style=""font-size: 20px; font-weight: bold; margin: 0;"">Is there a person in this image?</p>
                    </div>
                </div>","0","main_experiment_trial","9","restaurant_scheme","schematic_sequence","","","","",""
"","","","","","html-keyboard-response","182","547498","0.0-182.0","17793421981E4569B11DD4ABAC233FDA","019cf0d6-a642-7c56-afca-8167ec02f385","019cf037-5203-781a-b900-108ccb1cab86","","null","
                <div class=""stimulus-container"">
                    <img src=""images/schematic_sequence/restaurant_scheme/restaurant_scheme_ten.png"" class=""exp-image"">
                    <div class=""question-area""></div> 
                </div>","null","","","","","","","","",""
"","","","","","html-button-response","183","547908","0.0-183.0","17793421981E4569B11DD4ABAC233FDA","019cf0d6-a642-7c56-afca-8167ec02f385","019cf037-5203-781a-b900-108ccb1cab86","","407","
                <div class=""stimulus-container"">
                    <img src=""images/schematic_sequence/restaurant_scheme/restaurant_scheme_ten.png"" class=""exp-image"">
                    <div class=""question-area"">
                        <p style=""font-size: 20px; font-weight: bold; margin: 0;"">Is there a person in this image?</p>
                    </div>
