"success","timeout","failed_images","failed_audio","failed_video","trial_type","trial_index","time_elapsed","internal_node_id","subject_id","study_id","session_id","view_history","rt","stimulus","response","task","image_index","folder","valuable_image_index","reward_type","valuable_X","chosen_image_index","distance_from_X"
"false","false","[]","[]","[]","preload","0","41156","0.0-0.0","BF2DB69DB4B64946A133C91B1AF06B67","019ce882-6398-7a18-87c4-bd7f10823f8d","019ce875-66c2-7f0b-b5e8-086c75889f84","","","","","","","","","","","",""
"","","","","","instructions","1","103983","0.0-1.0","BF2DB69DB4B64946A133C91B1AF06B67","019ce882-6398-7a18-87c4-bd7f10823f8d","019ce875-66c2-7f0b-b5e8-086c75889f84","[{""page_index"":0,""viewing_time"":62825}]","62827","","","","","","","","","",""
"","","","","","instructions","2","155393","0.0-2.0","BF2DB69DB4B64946A133C91B1AF06B67","019ce882-6398-7a18-87c4-bd7f10823f8d","019ce875-66c2-7f0b-b5e8-086c75889f84","[{""page_index"":0,""viewing_time"":51408}]","51409","","","","","","","","","",""
"true","","","","","fullscreen","3","158082","0.0-3.0","BF2DB69DB4B64946A133C91B1AF06B67","019ce882-6398-7a18-87c4-bd7f10823f8d","019ce875-66c2-7f0b-b5e8-086c75889f84","","1680","","","","","","","","","",""
"","","","","","instructions","4","264793","0.0-4.0","BF2DB69DB4B64946A133C91B1AF06B67","019ce882-6398-7a18-87c4-bd7f10823f8d","019ce875-66c2-7f0b-b5e8-086c75889f84","[{""page_index"":0,""viewing_time"":106710}]","106711","","","","","","","","","",""
"","","","","","instructions","5","272718","0.0-5.0","BF2DB69DB4B64946A133C91B1AF06B67","019ce882-6398-7a18-87c4-bd7f10823f8d","019ce875-66c2-7f0b-b5e8-086c75889f84","[{""page_index"":0,""viewing_time"":7921}]","7921","","","","","","","","","",""
"","","","","","html-keyboard-response","6","276728","0.0-6.0","BF2DB69DB4B64946A133C91B1AF06B67","019ce882-6398-7a18-87c4-bd7f10823f8d","019ce875-66c2-7f0b-b5e8-086c75889f84","","null","
                <div class=""stimulus-container"">
                    <img src=""images/instructions/movie_1.png"" class=""exp-image"">
                    <div class=""question-area""></div> 
                </div>","null","","","","","","","",""
"","","","","","html-button-response","7","279732","0.0-7.0","BF2DB69DB4B64946A133C91B1AF06B67","019ce882-6398-7a18-87c4-bd7f10823f8d","019ce875-66c2-7f0b-b5e8-086c75889f84","","null","
                <div class=""stimulus-container"">
                    <img src=""images/instructions/movie_1.png"" class=""exp-image"">
                    <div class=""question-area"">
                        <p style=""font-size: 20px; font-weight: bold; margin: 0;"">Was there a person in this image?</p>
                    </div>
                </div>","null","example_question","1","","","","","",""
"","","","","","html-keyboard-response","8","283737","0.0-8.0","BF2DB69DB4B64946A133C91B1AF06B67","019ce882-6398-7a18-87c4-bd7f10823f8d","019ce875-66c2-7f0b-b5e8-086c75889f84","","null","
                <div class=""stimulus-container"">
                    <img src=""images/instructions/movie_2.png"" class=""exp-image"">
                    <div class=""question-area""></div> 
                </div>","null","","","","","","","",""
"","","","","","html-button-response","9","285727","0.0-9.0","BF2DB69DB4B64946A133C91B1AF06B67","019ce882-6398-7a18-87c4-bd7f10823f8d","019ce875-66c2-7f0b-b5e8-086c75889f84","","1989","
                <div class=""stimulus-container"">
                    <img src=""images/instructions/movie_2.png"" class=""exp-image"">
                    <div class=""question-area"">
                        <p style=""font-size: 20px; font-weight: bold; margin: 0;"">Was there a person in this image?</p>
                    </div>
                </div>","1","example_question","2","","","","","",""
"","","","","","html-keyboard-response","10","289734","0.0-10.0","BF2DB69DB4B64946A133C91B1AF06B67","019ce882-6398-7a18-87c4-bd7f10823f8d","019ce875-66c2-7f0b-b5e8-086c75889f84","","null","
                <div class=""stimulus-container"">
                    <img src=""images/instructions/movie_3.png"" class=""exp-image"">
                    <div class=""question-area""></div> 
                </div>","null","","","","","","","",""
"","","","","","html-button-response","11","291829","0.0-11.0","BF2DB69DB4B64946A133C91B1AF06B67","019ce882-6398-7a18-87c4-bd7f10823f8d","019ce875-66c2-7f0b-b5e8-086c75889f84","","2092","
                <div class=""stimulus-container"">
                    <img src=""images/instructions/movie_3.png"" class=""exp-image"">
                    <div class=""question-area"">
                        <p style=""font-size: 20px; font-weight: bold; margin: 0;"">Was there a person in this image?</p>
                    </div>
                </div>","0","example_question","3","","","","","",""
"","","","","","html-keyboard-response","12","295832","0.0-12.0","BF2DB69DB4B64946A133C91B1AF06B67","019ce882-6398-7a18-87c4-bd7f10823f8d","019ce875-66c2-7f0b-b5e8-086c75889f84","","null","
                <div class=""stimulus-container"">
                    <img src=""images/instructions/movie_4.png"" class=""exp-image"">
                    <div class=""question-area""></div> 
                </div>","null","","","","","","","",""
"","","","","","html-button-response","13","297111","0.0-13.0","BF2DB69DB4B64946A133C91B1AF06B67","019ce882-6398-7a18-87c4-bd7f10823f8d","019ce875-66c2-7f0b-b5e8-086c75889f84","","1277","
                <div class=""stimulus-container"">
                    <img src=""images/instructions/movie_4.png"" class=""exp-image"">
                    <div class=""question-area"">
                        <p style=""font-size: 20px; font-weight: bold; margin: 0;"">Was there a person in this image?</p>
                    </div>
                </div>","0","example_question","4","","","","","",""
"","","","","","instructions","14","299559","0.0-14.0","BF2DB69DB4B64946A133C91B1AF06B67","019ce882-6398-7a18-87c4-bd7f10823f8d","019ce875-66c2-7f0b-b5e8-086c75889f84","[{""page_index"":0,""viewing_time"":2447}]","2448","","","","","","","","","",""
"","","","","","html-keyboard-response","15","300562","0.0-15.0","BF2DB69DB4B64946A133C91B1AF06B67","019ce882-6398-7a18-87c4-bd7f10823f8d","019ce875-66c2-7f0b-b5e8-086c75889f84","","null","<div style=""background-color: gray; width: 100vw; height: 100vh;""></div>","null","","","","","","","",""
"","","","","","html-keyboard-response","16","305565","0.0-16.0","BF2DB69DB4B64946A133C91B1AF06B67","019ce882-6398-7a18-87c4-bd7f10823f8d","019ce875-66c2-7f0b-b5e8-086c75889f84","","null","
                    <div class=""stimulus-container"">
                        <img src=""images/causal_sequence/coin_causal/coin_causal_1.png"" class=""exp-image"">
                        <div class=""question-area""></div> 
                    </div>","null","","","","","","","",""
"","","","","","html-button-response","17","308568","0.0-17.0","BF2DB69DB4B64946A133C91B1AF06B67","019ce882-6398-7a18-87c4-bd7f10823f8d","019ce875-66c2-7f0b-b5e8-086c75889f84","","null","
                    <div class=""stimulus-container"">
                        <img src=""images/causal_sequence/coin_causal/coin_causal_1.png"" class=""exp-image"">
                        <div class=""question-area"">
                            <p style=""font-size: 20px; font-weight: bold; margin: 0;"">Is there a person in this image?</p>
                        </div>
                    </div>","null","main_causal_task","1","coin_causal","","","","",""
"","","","","","html-keyboard-response","18","313574","0.0-18.0","BF2DB69DB4B64946A133C91B1AF06B67","019ce882-6398-7a18-87c4-bd7f10823f8d","019ce875-66c2-7f0b-b5e8-086c75889f84","","null","
                    <div class=""stimulus-container"">
                        <img src=""images/causal_sequence/coin_causal/coin_causal_2.png"" class=""exp-image"">
                        <div class=""question-area""></div> 
                    </div>","null","","","","","","","",""
"","","","","","html-button-response","19","314293","0.0-19.0","BF2DB69DB4B64946A133C91B1AF06B67","019ce882-6398-7a18-87c4-bd7f10823f8d","019ce875-66c2-7f0b-b5e8-086c75889f84","","714","
                    <div class=""stimulus-container"">
                        <img src=""images/causal_sequence/coin_causal/coin_causal_2.png"" class=""exp-image"">
                        <div class=""question-area"">
                            <p style=""font-size: 20px; font-weight: bold; margin: 0;"">Is there a person in this image?</p>
                        </div>
                    </div>","0","main_causal_task","2","coin_causal","","","","",""
"","","","","","html-keyboard-response","20","319296","0.0-20.0","BF2DB69DB4B64946A133C91B1AF06B67","019ce882-6398-7a18-87c4-bd7f10823f8d","019ce875-66c2-7f0b-b5e8-086c75889f84","","null","
                    <div class=""stimulus-container"">
                        <img src=""images/causal_sequence/coin_causal/coin_causal_3.png"" class=""exp-image"">
                        <div class=""question-area""></div> 
                    </div>","null","","","","","","","",""
"","","","","","html-button-response","21","319892","0.0-21.0","BF2DB69DB4B64946A133C91B1AF06B67","019ce882-6398-7a18-87c4-bd7f10823f8d","019ce875-66c2-7f0b-b5e8-086c75889f84","","594","
                    <div class=""stimulus-container"">
                        <img src=""images/causal_sequence/coin_causal/coin_causal_3.png"" class=""exp-image"">
                        <div class=""question-area"">
                            <p style=""font-size: 20px; font-weight: bold; margin: 0;"">Is there a person in this image?</p>
                        </div>
                    </div>","0","main_causal_task","3","coin_causal","","","","",""
"","","","","","html-keyboard-response","22","324895","0.0-22.0","BF2DB69DB4B64946A133C91B1AF06B67","019ce882-6398-7a18-87c4-bd7f10823f8d","019ce875-66c2-7f0b-b5e8-086c75889f84","","null","
                    <div class=""stimulus-container"">
                        <img src=""images/causal_sequence/coin_causal/coin_causal_4.png"" class=""exp-image"">
                        <div class=""question-area""></div> 
                    </div>","null","","","","","","","",""
"","","","","","html-button-response","23","325442","0.0-23.0","BF2DB69DB4B64946A133C91B1AF06B67","019ce882-6398-7a18-87c4-bd7f10823f8d","019ce875-66c2-7f0b-b5e8-086c75889f84","","545","
                    <div class=""stimulus-container"">
                        <img src=""images/causal_sequence/coin_causal/coin_causal_4.png"" class=""exp-image"">
                        <div class=""question-area"">
                            <p style=""font-size: 20px; font-weight: bold; margin: 0;"">Is there a person in this image?</p>
                        </div>
                    </div>","0","main_causal_task","4","coin_causal","","","","",""
"","","","","","html-keyboard-response","24","330446","0.0-24.0","BF2DB69DB4B64946A133C91B1AF06B67","019ce882-6398-7a18-87c4-bd7f10823f8d","019ce875-66c2-7f0b-b5e8-086c75889f84","","null","
                    <div class=""stimulus-container"">
                        <img src=""images/causal_sequence/coin_causal/coin_causal_5.png"" class=""exp-image"">
                        <div class=""question-area""></div> 
                    </div>","null","","","","","","","",""
"","","","","","html-button-response","25","330659","0.0-25.0","BF2DB69DB4B64946A133C91B1AF06B67","019ce882-6398-7a18-87c4-bd7f10823f8d","019ce875-66c2-7f0b-b5e8-086c75889f84","","210","
                    <div class=""stimulus-container"">
                        <img src=""images/causal_sequence/coin_causal/coin_causal_5.png"" class=""exp-image"">
                        <div class=""question-area"">
                            <p style=""font-size: 20px; font-weight: bold; margin: 0;"">Is there a person in this image?</p>
                        </div>
                    </div>","0","main_causal_task","5","coin_causal","","","","",""
"","","","","","html-keyboard-response","26","335666","0.0-26.0","BF2DB69DB4B64946A133C91B1AF06B67","019ce882-6398-7a18-87c4-bd7f10823f8d","019ce875-66c2-7f0b-b5e8-086c75889f84","","null","
                    <div class=""stimulus-container"">
                        <img src=""images/causal_sequence/coin_causal/coin_causal_6.png"" class=""exp-image"">
                        <div class=""question-area""></div> 
                    </div>","null","","","","","","","",""
"","","","","","html-button-response","27","336259","0.0-27.0","BF2DB69DB4B64946A133C91B1AF06B67","019ce882-6398-7a18-87c4-bd7f10823f8d","019ce875-66c2-7f0b-b5e8-086c75889f84","","590","
                    <div class=""stimulus-container"">
                        <img src=""images/causal_sequence/coin_causal/coin_causal_6.png"" class=""exp-image"">
                        <div class=""question-area"">
                            <p style=""font-size: 20px; font-weight: bold; margin: 0;"">Is there a person in this image?</p>
                        </div>
                    </div>","0","main_causal_task","6","coin_causal","","","","",""
"","","","","","html-keyboard-response","28","341263","0.0-28.0","BF2DB69DB4B64946A133C91B1AF06B67","019ce882-6398-7a18-87c4-bd7f10823f8d","019ce875-66c2-7f0b-b5e8-086c75889f84","","null","
                    <div class=""stimulus-container"">
                        <img src=""images/causal_sequence/coin_causal/coin_causal_7.png"" class=""exp-image"">
                        <div class=""question-area""></div> 
                    </div>","null","","","","","","","",""
"","","","","","html-button-response","29","342827","0.0-29.0","BF2DB69DB4B64946A133C91B1AF06B67","019ce882-6398-7a18-87c4-bd7f10823f8d","019ce875-66c2-7f0b-b5e8-086c75889f84","","1561","
                    <div class=""stimulus-container"">
                        <img src=""images/causal_sequence/coin_causal/coin_causal_7.png"" class=""exp-image"">
                        <div class=""question-area"">
                            <p style=""font-size: 20px; font-weight: bold; margin: 0;"">Is there a person in this image?</p>
                        </div>
                    </div>","1","main_causal_task","7","coin_causal","","","","",""
"","","","","","html-keyboard-response","30","347829","0.0-30.0","BF2DB69DB4B64946A133C91B1AF06B67","019ce882-6398-7a18-87c4-bd7f10823f8d","019ce875-66c2-7f0b-b5e8-086c75889f84","","null","
                    <div class=""stimulus-container"">
                        <img src=""images/causal_sequence/coin_causal/coin_causal_8.png"" class=""exp-image"">
                        <div class=""question-area""></div> 
                    </div>","null","","","","","","","",""
"","","","","","html-button-response","31","348742","0.0-31.0","BF2DB69DB4B64946A133C91B1AF06B67","019ce882-6398-7a18-87c4-bd7f10823f8d","019ce875-66c2-7f0b-b5e8-086c75889f84","","911","
                    <div class=""stimulus-container"">
                        <img src=""images/causal_sequence/coin_causal/coin_causal_8.png"" class=""exp-image"">
                        <div class=""question-area"">
                            <p style=""font-size: 20px; font-weight: bold; margin: 0;"">Is there a person in this image?</p>
                        </div>
                    </div>","0","main_causal_task","8","coin_causal","","","","",""
"","","","","","html-keyboard-response","32","353745","0.0-32.0","BF2DB69DB4B64946A133C91B1AF06B67","019ce882-6398-7a18-87c4-bd7f10823f8d","019ce875-66c2-7f0b-b5e8-086c75889f84","","null","
                    <div class=""stimulus-container"">
                        <img src=""images/causal_sequence/coin_causal/coin_causal_9.png"" class=""exp-image"">
                        <div class=""question-area""></div> 
                    </div>","null","","","","","","","",""
"","","","","","html-button-response","33","354974","0.0-33.0","BF2DB69DB4B64946A133C91B1AF06B67","019ce882-6398-7a18-87c4-bd7f10823f8d","019ce875-66c2-7f0b-b5e8-086c75889f84","","1227","
                    <div class=""stimulus-container"">
                        <img src=""images/causal_sequence/coin_causal/coin_causal_9.png"" class=""exp-image"">
                        <div class=""question-area"">
                            <p style=""font-size: 20px; font-weight: bold; margin: 0;"">Is there a person in this image?</p>
                        </div>
                    </div>","0","main_causal_task","9","coin_causal","","","","",""
"","","","","","html-keyboard-response","34","355975","0.0-34.0","BF2DB69DB4B64946A133C91B1AF06B67","019ce882-6398-7a18-87c4-bd7f10823f8d","019ce875-66c2-7f0b-b5e8-086c75889f84","","null","<div style=""background-color: gray; width: 100vw; height: 100vh;""></div>","null","","","","","","","",""
"","","","","","html-keyboard-response","35","360981","0.0-35.0","BF2DB69DB4B64946A133C91B1AF06B67","019ce882-6398-7a18-87c4-bd7f10823f8d","019ce875-66c2-7f0b-b5e8-086c75889f84","","null","
                    <div class=""stimulus-container"">
                        <img src=""images/causal_sequence/dog_causal/dog_causal_1.png"" class=""exp-image"">
                        <div class=""question-area""></div> 
                    </div>","null","","","","","","","",""
"","","","","","html-button-response","36","362074","0.0-36.0","BF2DB69DB4B64946A133C91B1AF06B67","019ce882-6398-7a18-87c4-bd7f10823f8d","019ce875-66c2-7f0b-b5e8-086c75889f84","","1091","
                    <div class=""stimulus-container"">
                        <img src=""images/causal_sequence/dog_causal/dog_causal_1.png"" class=""exp-image"">
                        <div class=""question-area"">
                            <p style=""font-size: 20px; font-weight: bold; margin: 0;"">Is there a person in this image?</p>
                        </div>
                    </div>","0","main_causal_task","1","dog_causal","","","","",""
"","","","","","html-keyboard-response","37","367076","0.0-37.0","BF2DB69DB4B64946A133C91B1AF06B67","019ce882-6398-7a18-87c4-bd7f10823f8d","019ce875-66c2-7f0b-b5e8-086c75889f84","","null","
                    <div class=""stimulus-container"">
                        <img src=""images/causal_sequence/dog_causal/dog_causal_2.png"" class=""exp-image"">
                        <div class=""question-area""></div> 
                    </div>","null","","","","","","","",""
"","","","","","html-button-response","38","367627","0.0-38.0","BF2DB69DB4B64946A133C91B1AF06B67","019ce882-6398-7a18-87c4-bd7f10823f8d","019ce875-66c2-7f0b-b5e8-086c75889f84","","548","
                    <div class=""stimulus-container"">
                        <img src=""images/causal_sequence/dog_causal/dog_causal_2.png"" class=""exp-image"">
                        <div class=""question-area"">
                            <p style=""font-size: 20px; font-weight: bold; margin: 0;"">Is there a person in this image?</p>
                        </div>
                    </div>","0","main_causal_task","2","dog_causal","","","","",""
"","","","","","html-keyboard-response","39","372631","0.0-39.0","BF2DB69DB4B64946A133C91B1AF06B67","019ce882-6398-7a18-87c4-bd7f10823f8d","019ce875-66c2-7f0b-b5e8-086c75889f84","","null","
                    <div class=""stimulus-container"">
                        <img src=""images/causal_sequence/dog_causal/dog_causal_3.png"" class=""exp-image"">
                        <div class=""question-area""></div> 
                    </div>","null","","","","","","","",""
"","","","","","html-button-response","40","374326","0.0-40.0","BF2DB69DB4B64946A133C91B1AF06B67","019ce882-6398-7a18-87c4-bd7f10823f8d","019ce875-66c2-7f0b-b5e8-086c75889f84","","1691","
                    <div class=""stimulus-container"">
                        <img src=""images/causal_sequence/dog_causal/dog_causal_3.png"" class=""exp-image"">
                        <div class=""question-area"">
                            <p style=""font-size: 20px; font-weight: bold; margin: 0;"">Is there a person in this image?</p>
                        </div>
                    </div>","0","main_causal_task","3","dog_causal","","","","",""
"","","","","","html-keyboard-response","41","379329","0.0-41.0","BF2DB69DB4B64946A133C91B1AF06B67","019ce882-6398-7a18-87c4-bd7f10823f8d","019ce875-66c2-7f0b-b5e8-086c75889f84","","null","
                    <div class=""stimulus-container"">
                        <img src=""images/causal_sequence/dog_causal/dog_causal_4.png"" class=""exp-image"">
                        <div class=""question-area""></div> 
                    </div>","null","","","","","","","",""
"","","","","","html-button-response","42","380692","0.0-42.0","BF2DB69DB4B64946A133C91B1AF06B67","019ce882-6398-7a18-87c4-bd7f10823f8d","019ce875-66c2-7f0b-b5e8-086c75889f84","","1360","
                    <div class=""stimulus-container"">
                        <img src=""images/causal_sequence/dog_causal/dog_causal_4.png"" class=""exp-image"">
                        <div class=""question-area"">
                            <p style=""font-size: 20px; font-weight: bold; margin: 0;"">Is there a person in this image?</p>
                        </div>
                    </div>","0","main_causal_task","4","dog_causal","","","","",""
"","","","","","html-keyboard-response","43","385695","0.0-43.0","BF2DB69DB4B64946A133C91B1AF06B67","019ce882-6398-7a18-87c4-bd7f10823f8d","019ce875-66c2-7f0b-b5e8-086c75889f84","","null","
                    <div class=""stimulus-container"">
                        <img src=""images/causal_sequence/dog_causal/dog_causal_5.png"" class=""exp-image"">
                        <div class=""question-area""></div> 
                    </div>","null","","","","","","","",""
"","","","","","html-button-response","44","386324","0.0-44.0","BF2DB69DB4B64946A133C91B1AF06B67","019ce882-6398-7a18-87c4-bd7f10823f8d","019ce875-66c2-7f0b-b5e8-086c75889f84","","628","
                    <div class=""stimulus-container"">
                        <img src=""images/causal_sequence/dog_causal/dog_causal_5.png"" class=""exp-image"">
                        <div class=""question-area"">
                            <p style=""font-size: 20px; font-weight: bold; margin: 0;"">Is there a person in this image?</p>
                        </div>
                    </div>","0","main_causal_task","5","dog_causal","","","","",""
"","","","","","html-keyboard-response","45","391326","0.0-45.0","BF2DB69DB4B64946A133C91B1AF06B67","019ce882-6398-7a18-87c4-bd7f10823f8d","019ce875-66c2-7f0b-b5e8-086c75889f84","","null","
                    <div class=""stimulus-container"">
                        <img src=""images/causal_sequence/dog_causal/dog_causal_6.png"" class=""exp-image"">
                        <div class=""question-area""></div> 
                    </div>","null","","","","","","","",""
"","","","","","html-button-response","46","392276","0.0-46.0","BF2DB69DB4B64946A133C91B1AF06B67","019ce882-6398-7a18-87c4-bd7f10823f8d","019ce875-66c2-7f0b-b5e8-086c75889f84","","947","
                    <div class=""stimulus-container"">
                        <img src=""images/causal_sequence/dog_causal/dog_causal_6.png"" class=""exp-image"">
                        <div class=""question-area"">
                            <p style=""font-size: 20px; font-weight: bold; margin: 0;"">Is there a person in this image?</p>
                        </div>
                    </div>","0","main_causal_task","6","dog_causal","","","","",""
"","","","","","html-keyboard-response","47","397279","0.0-47.0","BF2DB69DB4B64946A133C91B1AF06B67","019ce882-6398-7a18-87c4-bd7f10823f8d","019ce875-66c2-7f0b-b5e8-086c75889f84","","null","
                    <div class=""stimulus-container"">
                        <img src=""images/causal_sequence/dog_causal/dog_causal_7.png"" class=""exp-image"">
                        <div class=""question-area""></div> 
                    </div>","null","","","","","","","",""
"","","","","","html-button-response","48","397776","0.0-48.0","BF2DB69DB4B64946A133C91B1AF06B67","019ce882-6398-7a18-87c4-bd7f10823f8d","019ce875-66c2-7f0b-b5e8-086c75889f84","","496","
                    <div class=""stimulus-container"">
                        <img src=""images/causal_sequence/dog_causal/dog_causal_7.png"" class=""exp-image"">
                        <div class=""question-area"">
                            <p style=""font-size: 20px; font-weight: bold; margin: 0;"">Is there a person in this image?</p>
                        </div>
                    </div>","0","main_causal_task","7","dog_causal","","","","",""
"","","","","","html-keyboard-response","49","402779","0.0-49.0","BF2DB69DB4B64946A133C91B1AF06B67","019ce882-6398-7a18-87c4-bd7f10823f8d","019ce875-66c2-7f0b-b5e8-086c75889f84","","null","
                    <div class=""stimulus-container"">
                        <img src=""images/causal_sequence/dog_causal/dog_causal_8.png"" class=""exp-image"">
                        <div class=""question-area""></div> 
                    </div>","null","","","","","","","",""
"","","","","","html-button-response","50","403441","0.0-50.0","BF2DB69DB4B64946A133C91B1AF06B67","019ce882-6398-7a18-87c4-bd7f10823f8d","019ce875-66c2-7f0b-b5e8-086c75889f84","","661","
                    <div class=""stimulus-container"">
                        <img src=""images/causal_sequence/dog_causal/dog_causal_8.png"" class=""exp-image"">
                        <div class=""question-area"">
                            <p style=""font-size: 20px; font-weight: bold; margin: 0;"">Is there a person in this image?</p>
                        </div>
                    </div>","0","main_causal_task","8","dog_causal","","","","",""
"","","","","","html-keyboard-response","51","408444","0.0-51.0","BF2DB69DB4B64946A133C91B1AF06B67","019ce882-6398-7a18-87c4-bd7f10823f8d","019ce875-66c2-7f0b-b5e8-086c75889f84","","null","
                    <div class=""stimulus-container"">
                        <img src=""images/causal_sequence/dog_causal/dog_causal_9.png"" class=""exp-image"">
                        <div class=""question-area""></div> 
                    </div>","null","","","","","","","",""
"","","","","","html-button-response","52","409375","0.0-52.0","BF2DB69DB4B64946A133C91B1AF06B67","019ce882-6398-7a18-87c4-bd7f10823f8d","019ce875-66c2-7f0b-b5e8-086c75889f84","","928","
                    <div class=""stimulus-container"">
                        <img src=""images/causal_sequence/dog_causal/dog_causal_9.png"" class=""exp-image"">
                        <div class=""question-area"">
                            <p style=""font-size: 20px; font-weight: bold; margin: 0;"">Is there a person in this image?</p>
                        </div>
                    </div>","0","main_causal_task","9","dog_causal","","","","",""
"","","","","","html-keyboard-response","53","410376","0.0-53.0","BF2DB69DB4B64946A133C91B1AF06B67","019ce882-6398-7a18-87c4-bd7f10823f8d","019ce875-66c2-7f0b-b5e8-086c75889f84","","null","<div style=""background-color: gray; width: 100vw; height: 100vh;""></div>","null","","","","","","","",""
"","","","","","html-keyboard-response","54","415378","0.0-54.0","BF2DB69DB4B64946A133C91B1AF06B67","019ce882-6398-7a18-87c4-bd7f10823f8d","019ce875-66c2-7f0b-b5e8-086c75889f84","","null","
                    <div class=""stimulus-container"">
                        <img src=""images/causal_sequence/package_causal/package_causal_1.png"" class=""exp-image"">
                        <div class=""question-area""></div> 
                    </div>","null","","","","","","","",""
"","","","","","html-button-response","55","416325","0.0-55.0","BF2DB69DB4B64946A133C91B1AF06B67","019ce882-6398-7a18-87c4-bd7f10823f8d","019ce875-66c2-7f0b-b5e8-086c75889f84","","945","
                    <div class=""stimulus-container"">
                        <img src=""images/causal_sequence/package_causal/package_causal_1.png"" class=""exp-image"">
                        <div class=""question-area"">
                            <p style=""font-size: 20px; font-weight: bold; margin: 0;"">Is there a person in this image?</p>
                        </div>
                    </div>","0","main_causal_task","1","package_causal","","","","",""
"","","","","","html-keyboard-response","56","421327","0.0-56.0","BF2DB69DB4B64946A133C91B1AF06B67","019ce882-6398-7a18-87c4-bd7f10823f8d","019ce875-66c2-7f0b-b5e8-086c75889f84","","null","
                    <div class=""stimulus-container"">
                        <img src=""images/causal_sequence/package_causal/package_causal_2.png"" class=""exp-image"">
                        <div class=""question-area""></div> 
                    </div>","null","","","","","","","",""
"","","","","","html-button-response","57","422225","0.0-57.0","BF2DB69DB4B64946A133C91B1AF06B67","019ce882-6398-7a18-87c4-bd7f10823f8d","019ce875-66c2-7f0b-b5e8-086c75889f84","","896","
                    <div class=""stimulus-container"">
                        <img src=""images/causal_sequence/package_causal/package_causal_2.png"" class=""exp-image"">
                        <div class=""question-area"">
                            <p style=""font-size: 20px; font-weight: bold; margin: 0;"">Is there a person in this image?</p>
                        </div>
                    </div>","0","main_causal_task","2","package_causal","","","","",""
"","","","","","html-keyboard-response","58","427228","0.0-58.0","BF2DB69DB4B64946A133C91B1AF06B67","019ce882-6398-7a18-87c4-bd7f10823f8d","019ce875-66c2-7f0b-b5e8-086c75889f84","","null","
                    <div class=""stimulus-container"">
                        <img src=""images/causal_sequence/package_causal/package_causal_3.png"" class=""exp-image"">
                        <div class=""question-area""></div> 
                    </div>","null","","","","","","","",""
"","","","","","html-button-response","59","427424","0.0-59.0","BF2DB69DB4B64946A133C91B1AF06B67","019ce882-6398-7a18-87c4-bd7f10823f8d","019ce875-66c2-7f0b-b5e8-086c75889f84","","193","
                    <div class=""stimulus-container"">
                        <img src=""images/causal_sequence/package_causal/package_causal_3.png"" class=""exp-image"">
                        <div class=""question-area"">
                            <p style=""font-size: 20px; font-weight: bold; margin: 0;"">Is there a person in this image?</p>
                        </div>
                    </div>","0","main_causal_task","3","package_causal","","","","",""
"","","","","","html-keyboard-response","60","432426","0.0-60.0","BF2DB69DB4B64946A133C91B1AF06B67","019ce882-6398-7a18-87c4-bd7f10823f8d","019ce875-66c2-7f0b-b5e8-086c75889f84","","null","
                    <div class=""stimulus-container"">
                        <img src=""images/causal_sequence/package_causal/package_causal_4.png"" class=""exp-image"">
                        <div class=""question-area""></div> 
                    </div>","null","","","","","","","",""
"","","","","","html-button-response","61","433308","0.0-61.0","BF2DB69DB4B64946A133C91B1AF06B67","019ce882-6398-7a18-87c4-bd7f10823f8d","019ce875-66c2-7f0b-b5e8-086c75889f84","","881","
                    <div class=""stimulus-container"">
                        <img src=""images/causal_sequence/package_causal/package_causal_4.png"" class=""exp-image"">
                        <div class=""question-area"">
                            <p style=""font-size: 20px; font-weight: bold; margin: 0;"">Is there a person in this image?</p>
                        </div>
                    </div>","1","main_causal_task","4","package_causal","","","","",""
"","","","","","html-keyboard-response","62","438312","0.0-62.0","BF2DB69DB4B64946A133C91B1AF06B67","019ce882-6398-7a18-87c4-bd7f10823f8d","019ce875-66c2-7f0b-b5e8-086c75889f84","","null","
                    <div class=""stimulus-container"">
                        <img src=""images/causal_sequence/package_causal/package_causal_5.png"" class=""exp-image"">
                        <div class=""question-area""></div> 
                    </div>","null","","","","","","","",""
"","","","","","html-button-response","63","440259","0.0-63.0","BF2DB69DB4B64946A133C91B1AF06B67","019ce882-6398-7a18-87c4-bd7f10823f8d","019ce875-66c2-7f0b-b5e8-086c75889f84","","1945","
                    <div class=""stimulus-container"">
                        <img src=""images/causal_sequence/package_causal/package_causal_5.png"" class=""exp-image"">
                        <div class=""question-area"">
                            <p style=""font-size: 20px; font-weight: bold; margin: 0;"">Is there a person in this image?</p>
                        </div>
                    </div>","0","main_causal_task","5","package_causal","","","","",""
"","","","","","html-keyboard-response","64","445261","0.0-64.0","BF2DB69DB4B64946A133C91B1AF06B67","019ce882-6398-7a18-87c4-bd7f10823f8d","019ce875-66c2-7f0b-b5e8-086c75889f84","","null","
                    <div class=""stimulus-container"">
                        <img src=""images/causal_sequence/package_causal/package_causal_6.png"" class=""exp-image"">
                        <div class=""question-area""></div> 
                    </div>","null","","","","","","","",""
"","","","","","html-button-response","65","446476","0.0-65.0","BF2DB69DB4B64946A133C91B1AF06B67","019ce882-6398-7a18-87c4-bd7f10823f8d","019ce875-66c2-7f0b-b5e8-086c75889f84","","1212","
                    <div class=""stimulus-container"">
                        <img src=""images/causal_sequence/package_causal/package_causal_6.png"" class=""exp-image"">
                        <div class=""question-area"">
                            <p style=""font-size: 20px; font-weight: bold; margin: 0;"">Is there a person in this image?</p>
                        </div>
                    </div>","0","main_causal_task","6","package_causal","","","","",""
"","","","","","html-keyboard-response","66","451479","0.0-66.0","BF2DB69DB4B64946A133C91B1AF06B67","019ce882-6398-7a18-87c4-bd7f10823f8d","019ce875-66c2-7f0b-b5e8-086c75889f84","","null","
                    <div class=""stimulus-container"">
                        <img src=""images/causal_sequence/package_causal/package_causal_7.png"" class=""exp-image"">
                        <div class=""question-area""></div> 
                    </div>","null","","","","","","","",""
"","","","","","html-button-response","67","452675","0.0-67.0","BF2DB69DB4B64946A133C91B1AF06B67","019ce882-6398-7a18-87c4-bd7f10823f8d","019ce875-66c2-7f0b-b5e8-086c75889f84","","1194","
                    <div class=""stimulus-container"">
                        <img src=""images/causal_sequence/package_causal/package_causal_7.png"" class=""exp-image"">
                        <div class=""question-area"">
                            <p style=""font-size: 20px; font-weight: bold; margin: 0;"">Is there a person in this image?</p>
                        </div>
                    </div>","0","main_causal_task","7","package_causal","","","","",""
"","","","","","html-keyboard-response","68","457678","0.0-68.0","BF2DB69DB4B64946A133C91B1AF06B67","019ce882-6398-7a18-87c4-bd7f10823f8d","019ce875-66c2-7f0b-b5e8-086c75889f84","","null","
                    <div class=""stimulus-container"">
                        <img src=""images/causal_sequence/package_causal/package_causal_8.png"" class=""exp-image"">
                        <div class=""question-area""></div> 
                    </div>","null","","","","","","","",""
"","","","","","html-button-response","69","459825","0.0-69.0","BF2DB69DB4B64946A133C91B1AF06B67","019ce882-6398-7a18-87c4-bd7f10823f8d","019ce875-66c2-7f0b-b5e8-086c75889f84","","2145","
                    <div class=""stimulus-container"">
                        <img src=""images/causal_sequence/package_causal/package_causal_8.png"" class=""exp-image"">
                        <div class=""question-area"">
                            <p style=""font-size: 20px; font-weight: bold; margin: 0;"">Is there a person in this image?</p>
                        </div>
                    </div>","0","main_causal_task","8","package_causal","","","","",""
"","","","","","html-keyboard-response","70","464828","0.0-70.0","BF2DB69DB4B64946A133C91B1AF06B67","019ce882-6398-7a18-87c4-bd7f10823f8d","019ce875-66c2-7f0b-b5e8-086c75889f84","","null","
                    <div class=""stimulus-container"">
                        <img src=""images/causal_sequence/package_causal/package_causal_9.png"" class=""exp-image"">
                        <div class=""question-area""></div> 
                    </div>","null","","","","","","","",""
"","","","","","html-button-response","71","467831","0.0-71.0","BF2DB69DB4B64946A133C91B1AF06B67","019ce882-6398-7a18-87c4-bd7f10823f8d","019ce875-66c2-7f0b-b5e8-086c75889f84","","null","
                    <div class=""stimulus-container"">
                        <img src=""images/causal_sequence/package_causal/package_causal_9.png"" class=""exp-image"">
                        <div class=""question-area"">
                            <p style=""font-size: 20px; font-weight: bold; margin: 0;"">Is there a person in this image?</p>
                        </div>
                    </div>","null","main_causal_task","9","package_causal","","","","",""
"","","","","","html-keyboard-response","72","468833","0.0-72.0","BF2DB69DB4B64946A133C91B1AF06B67","019ce882-6398-7a18-87c4-bd7f10823f8d","019ce875-66c2-7f0b-b5e8-086c75889f84","","null","<div style=""background-color: gray; width: 100vw; height: 100vh;""></div>","null","","","","","","","",""
"","","","","","html-keyboard-response","73","473835","0.0-73.0","BF2DB69DB4B64946A133C91B1AF06B67","019ce882-6398-7a18-87c4-bd7f10823f8d","019ce875-66c2-7f0b-b5e8-086c75889f84","","null","
                    <div class=""stimulus-container"">
                        <img src=""images/causal_sequence/saving_a_cat_causal/saving_a_cat_causal_1.png"" class=""exp-image"">
                        <div class=""question-area""></div> 
                    </div>","null","","","","","","","",""
"","","","","","html-button-response","74","475341","0.0-74.0","BF2DB69DB4B64946A133C91B1AF06B67","019ce882-6398-7a18-87c4-bd7f10823f8d","019ce875-66c2-7f0b-b5e8-086c75889f84","","1503","
                    <div class=""stimulus-container"">
                        <img src=""images/causal_sequence/saving_a_cat_causal/saving_a_cat_causal_1.png"" class=""exp-image"">
                        <div class=""question-area"">
                            <p style=""font-size: 20px; font-weight: bold; margin: 0;"">Is there a person in this image?</p>
                        </div>
                    </div>","0","main_causal_task","1","saving_a_cat_causal","","","","",""
"","","","","","html-keyboard-response","75","480344","0.0-75.0","BF2DB69DB4B64946A133C91B1AF06B67","019ce882-6398-7a18-87c4-bd7f10823f8d","019ce875-66c2-7f0b-b5e8-086c75889f84","","null","
                    <div class=""stimulus-container"">
                        <img src=""images/causal_sequence/saving_a_cat_causal/saving_a_cat_causal_2.png"" class=""exp-image"">
                        <div class=""question-area""></div> 
                    </div>","null","","","","","","","",""
"","","","","","html-button-response","76","481858","0.0-76.0","BF2DB69DB4B64946A133C91B1AF06B67","019ce882-6398-7a18-87c4-bd7f10823f8d","019ce875-66c2-7f0b-b5e8-086c75889f84","","1512","
                    <div class=""stimulus-container"">
                        <img src=""images/causal_sequence/saving_a_cat_causal/saving_a_cat_causal_2.png"" class=""exp-image"">
                        <div class=""question-area"">
                            <p style=""font-size: 20px; font-weight: bold; margin: 0;"">Is there a person in this image?</p>
                        </div>
                    </div>","1","main_causal_task","2","saving_a_cat_causal","","","","",""
"","","","","","html-keyboard-response","77","486862","0.0-77.0","BF2DB69DB4B64946A133C91B1AF06B67","019ce882-6398-7a18-87c4-bd7f10823f8d","019ce875-66c2-7f0b-b5e8-086c75889f84","","null","
                    <div class=""stimulus-container"">
                        <img src=""images/causal_sequence/saving_a_cat_causal/saving_a_cat_causal_3.png"" class=""exp-image"">
                        <div class=""question-area""></div> 
                    </div>","null","","","","","","","",""
"","","","","","html-button-response","78","489866","0.0-78.0","BF2DB69DB4B64946A133C91B1AF06B67","019ce882-6398-7a18-87c4-bd7f10823f8d","019ce875-66c2-7f0b-b5e8-086c75889f84","","null","
                    <div class=""stimulus-container"">
                        <img src=""images/causal_sequence/saving_a_cat_causal/saving_a_cat_causal_3.png"" class=""exp-image"">
                        <div class=""question-area"">
                            <p style=""font-size: 20px; font-weight: bold; margin: 0;"">Is there a person in this image?</p>
                        </div>
                    </div>","null","main_causal_task","3","saving_a_cat_causal","","","","",""
"","","","","","html-keyboard-response","79","494868","0.0-79.0","BF2DB69DB4B64946A133C91B1AF06B67","019ce882-6398-7a18-87c4-bd7f10823f8d","019ce875-66c2-7f0b-b5e8-086c75889f84","","null","
                    <div class=""stimulus-container"">
                        <img src=""images/causal_sequence/saving_a_cat_causal/saving_a_cat_causal_4.png"" class=""exp-image"">
                        <div class=""question-area""></div> 
                    </div>","null","","","","","","","",""
"","","","","","html-button-response","80","496158","0.0-80.0","BF2DB69DB4B64946A133C91B1AF06B67","019ce882-6398-7a18-87c4-bd7f10823f8d","019ce875-66c2-7f0b-b5e8-086c75889f84","","1286","
                    <div class=""stimulus-container"">
                        <img src=""images/causal_sequence/saving_a_cat_causal/saving_a_cat_causal_4.png"" class=""exp-image"">
                        <div class=""question-area"">
                            <p style=""font-size: 20px; font-weight: bold; margin: 0;"">Is there a person in this image?</p>
                        </div>
                    </div>","0","main_causal_task","4","saving_a_cat_causal","","","","",""
"","","","","","html-keyboard-response","81","501161","0.0-81.0","BF2DB69DB4B64946A133C91B1AF06B67","019ce882-6398-7a18-87c4-bd7f10823f8d","019ce875-66c2-7f0b-b5e8-086c75889f84","","null","
                    <div class=""stimulus-container"">
                        <img src=""images/causal_sequence/saving_a_cat_causal/saving_a_cat_causal_5.png"" class=""exp-image"">
                        <div class=""question-area""></div> 
                    </div>","null","","","","","","","",""
"","","","","","html-button-response","82","502311","0.0-82.0","BF2DB69DB4B64946A133C91B1AF06B67","019ce882-6398-7a18-87c4-bd7f10823f8d","019ce875-66c2-7f0b-b5e8-086c75889f84","","1146","
                    <div class=""stimulus-container"">
                        <img src=""images/causal_sequence/saving_a_cat_causal/saving_a_cat_causal_5.png"" class=""exp-image"">
                        <div class=""question-area"">
                            <p style=""font-size: 20px; font-weight: bold; margin: 0;"">Is there a person in this image?</p>
                        </div>
                    </div>","0","main_causal_task","5","saving_a_cat_causal","","","","",""
"","","","","","html-keyboard-response","83","507314","0.0-83.0","BF2DB69DB4B64946A133C91B1AF06B67","019ce882-6398-7a18-87c4-bd7f10823f8d","019ce875-66c2-7f0b-b5e8-086c75889f84","","null","
                    <div class=""stimulus-container"">
                        <img src=""images/causal_sequence/saving_a_cat_causal/saving_a_cat_causal_6.png"" class=""exp-image"">
                        <div class=""question-area""></div> 
                    </div>","null","","","","","","","",""
"","","","","","html-button-response","84","509525","0.0-84.0","BF2DB69DB4B64946A133C91B1AF06B67","019ce882-6398-7a18-87c4-bd7f10823f8d","019ce875-66c2-7f0b-b5e8-086c75889f84","","2209","
                    <div class=""stimulus-container"">
                        <img src=""images/causal_sequence/saving_a_cat_causal/saving_a_cat_causal_6.png"" class=""exp-image"">
                        <div class=""question-area"">
                            <p style=""font-size: 20px; font-weight: bold; margin: 0;"">Is there a person in this image?</p>
                        </div>
                    </div>","0","main_causal_task","6","saving_a_cat_causal","","","","",""
"","","","","","html-keyboard-response","85","514529","0.0-85.0","BF2DB69DB4B64946A133C91B1AF06B67","019ce882-6398-7a18-87c4-bd7f10823f8d","019ce875-66c2-7f0b-b5e8-086c75889f84","","null","
                    <div class=""stimulus-container"">
                        <img src=""images/causal_sequence/saving_a_cat_causal/saving_a_cat_causal_7.png"" class=""exp-image"">
                        <div class=""question-area""></div> 
                    </div>","null","","","","","","","",""
"","","","","","html-button-response","86","515574","0.0-86.0","BF2DB69DB4B64946A133C91B1AF06B67","019ce882-6398-7a18-87c4-bd7f10823f8d","019ce875-66c2-7f0b-b5e8-086c75889f84","","1043","
                    <div class=""stimulus-container"">
                        <img src=""images/causal_sequence/saving_a_cat_causal/saving_a_cat_causal_7.png"" class=""exp-image"">
                        <div class=""question-area"">
                            <p style=""font-size: 20px; font-weight: bold; margin: 0;"">Is there a person in this image?</p>
                        </div>
                    </div>","0","main_causal_task","7","saving_a_cat_causal","","","","",""
"","","","","","html-keyboard-response","87","520577","0.0-87.0","BF2DB69DB4B64946A133C91B1AF06B67","019ce882-6398-7a18-87c4-bd7f10823f8d","019ce875-66c2-7f0b-b5e8-086c75889f84","","null","
                    <div class=""stimulus-container"">
                        <img src=""images/causal_sequence/saving_a_cat_causal/saving_a_cat_causal_8.png"" class=""exp-image"">
                        <div class=""question-area""></div> 
                    </div>","null","","","","","","","",""
"","","","","","html-button-response","88","520807","0.0-88.0","BF2DB69DB4B64946A133C91B1AF06B67","019ce882-6398-7a18-87c4-bd7f10823f8d","019ce875-66c2-7f0b-b5e8-086c75889f84","","228","
                    <div class=""stimulus-container"">
                        <img src=""images/causal_sequence/saving_a_cat_causal/saving_a_cat_causal_8.png"" class=""exp-image"">
                        <div class=""question-area"">
                            <p style=""font-size: 20px; font-weight: bold; margin: 0;"">Is there a person in this image?</p>
                        </div>
                    </div>","0","main_causal_task","8","saving_a_cat_causal","","","","",""
"","","","","","html-keyboard-response","89","525809","0.0-89.0","BF2DB69DB4B64946A133C91B1AF06B67","019ce882-6398-7a18-87c4-bd7f10823f8d","019ce875-66c2-7f0b-b5e8-086c75889f84","","null","
                    <div class=""stimulus-container"">
                        <img src=""images/causal_sequence/saving_a_cat_causal/saving_a_cat_causal_9.png"" class=""exp-image"">
                        <div class=""question-area""></div> 
                    </div>","null","","","","","","","",""
"","","","","","html-button-response","90","528812","0.0-90.0","BF2DB69DB4B64946A133C91B1AF06B67","019ce882-6398-7a18-87c4-bd7f10823f8d","019ce875-66c2-7f0b-b5e8-086c75889f84","","null","
                    <div class=""stimulus-container"">
                        <img src=""images/causal_sequence/saving_a_cat_causal/saving_a_cat_causal_9.png"" class=""exp-image"">
                        <div class=""question-area"">
                            <p style=""font-size: 20px; font-weight: bold; margin: 0;"">Is there a person in this image?</p>
                        </div>
                    </div>","null","main_causal_task","9","saving_a_cat_causal","","","","",""
"","","","","","html-keyboard-response","91","529815","0.0-91.0","BF2DB69DB4B64946A133C91B1AF06B67","019ce882-6398-7a18-87c4-bd7f10823f8d","019ce875-66c2-7f0b-b5e8-086c75889f84","","null","<div style=""background-color: gray; width: 100vw; height: 100vh;""></div>","null","","","","","","","",""
"","","","","","html-keyboard-response","92","534819","0.0-92.0","BF2DB69DB4B64946A133C91B1AF06B67","019ce882-6398-7a18-87c4-bd7f10823f8d","019ce875-66c2-7f0b-b5e8-086c75889f84","","null","
                    <div class=""stimulus-container"">
                        <img src=""images/causal_sequence/museum_causal/museum_causal_1.png"" class=""exp-image"">
                        <div class=""question-area""></div> 
                    </div>","null","","","","","","","",""
"","","","","","html-button-response","93","537825","0.0-93.0","BF2DB69DB4B64946A133C91B1AF06B67","019ce882-6398-7a18-87c4-bd7f10823f8d","019ce875-66c2-7f0b-b5e8-086c75889f84","","null","
                    <div class=""stimulus-container"">
                        <img src=""images/causal_sequence/museum_causal/museum_causal_1.png"" class=""exp-image"">
                        <div class=""question-area"">
                            <p style=""font-size: 20px; font-weight: bold; margin: 0;"">Is there a person in this image?</p>
                        </div>
                    </div>","null","main_causal_task","1","museum_causal","","","","",""
"","","","","","html-keyboard-response","94","543346","0.0-94.0","BF2DB69DB4B64946A133C91B1AF06B67","019ce882-6398-7a18-87c4-bd7f10823f8d","019ce875-66c2-7f0b-b5e8-086c75889f84","","null","
                    <div class=""stimulus-container"">
                        <img src=""images/causal_sequence/museum_causal/museum_causal_2.png"" class=""exp-image"">
                        <div class=""question-area""></div> 
                    </div>","null","","","","","","","",""
"","","","","","html-button-response","95","547325","0.0-95.0","BF2DB69DB4B64946A133C91B1AF06B67","019ce882-6398-7a18-87c4-bd7f10823f8d","019ce875-66c2-7f0b-b5e8-086c75889f84","","null","
                    <div class=""stimulus-container"">
                        <img src=""images/causal_sequence/museum_causal/museum_causal_2.png"" class=""exp-image"">
                        <div class=""question-area"">
                            <p style=""font-size: 20px; font-weight: bold; margin: 0;"">Is there a person in this image?</p>
                        </div>
                    </div>","null","main_causal_task","2","museum_causal","","","","",""
"","","","","","html-keyboard-response","96","552352","0.0-96.0","BF2DB69DB4B64946A133C91B1AF06B67","019ce882-6398-7a18-87c4-bd7f10823f8d","019ce875-66c2-7f0b-b5e8-086c75889f84","","null","
                    <div class=""stimulus-container"">
                        <img src=""images/causal_sequence/museum_causal/museum_causal_3.png"" class=""exp-image"">
                        <div class=""question-area""></div> 
                    </div>","null","","","","","","","",""
"","","","","","html-button-response","97","555355","0.0-97.0","BF2DB69DB4B64946A133C91B1AF06B67","019ce882-6398-7a18-87c4-bd7f10823f8d","019ce875-66c2-7f0b-b5e8-086c75889f84","","null","
                    <div class=""stimulus-container"">
                        <img src=""images/causal_sequence/museum_causal/museum_causal_3.png"" class=""exp-image"">
                        <div class=""question-area"">
                            <p style=""font-size: 20px; font-weight: bold; margin: 0;"">Is there a person in this image?</p>
                        </div>
                    </div>","null","main_causal_task","3","museum_causal","","","","",""
"","","","","","html-keyboard-response","98","560356","0.0-98.0","BF2DB69DB4B64946A133C91B1AF06B67","019ce882-6398-7a18-87c4-bd7f10823f8d","019ce875-66c2-7f0b-b5e8-086c75889f84","","null","
                    <div class=""stimulus-container"">
                        <img src=""images/causal_sequence/museum_causal/museum_causal_4.png"" class=""exp-image"">
                        <div class=""question-area""></div> 
                    </div>","null","","","","","","","",""
"","","","","","html-button-response","99","562060","0.0-99.0","BF2DB69DB4B64946A133C91B1AF06B67","019ce882-6398-7a18-87c4-bd7f10823f8d","019ce875-66c2-7f0b-b5e8-086c75889f84","","1701","
                    <div class=""stimulus-container"">
                        <img src=""images/causal_sequence/museum_causal/museum_causal_4.png"" class=""exp-image"">
                        <div class=""question-area"">
                            <p style=""font-size: 20px; font-weight: bold; margin: 0;"">Is there a person in this image?</p>
                        </div>
                    </div>","1","main_causal_task","4","museum_causal","","","","",""
"","","","","","html-keyboard-response","100","567063","0.0-100.0","BF2DB69DB4B64946A133C91B1AF06B67","019ce882-6398-7a18-87c4-bd7f10823f8d","019ce875-66c2-7f0b-b5e8-086c75889f84","","null","
                    <div class=""stimulus-container"">
                        <img src=""images/causal_sequence/museum_causal/museum_causal_5.png"" class=""exp-image"">
                        <div class=""question-area""></div> 
                    </div>","null","","","","","","","",""
"","","","","","html-button-response","101","568208","0.0-101.0","BF2DB69DB4B64946A133C91B1AF06B67","019ce882-6398-7a18-87c4-bd7f10823f8d","019ce875-66c2-7f0b-b5e8-086c75889f84","","1143","
                    <div class=""stimulus-container"">
                        <img src=""images/causal_sequence/museum_causal/museum_causal_5.png"" class=""exp-image"">
                        <div class=""question-area"">
                            <p style=""font-size: 20px; font-weight: bold; margin: 0;"">Is there a person in this image?</p>
                        </div>
                    </div>","0","main_causal_task","5","museum_causal","","","","",""
"","","","","","html-keyboard-response","102","573209","0.0-102.0","BF2DB69DB4B64946A133C91B1AF06B67","019ce882-6398-7a18-87c4-bd7f10823f8d","019ce875-66c2-7f0b-b5e8-086c75889f84","","null","
                    <div class=""stimulus-container"">
                        <img src=""images/causal_sequence/museum_causal/museum_causal_6.png"" class=""exp-image"">
                        <div class=""question-area""></div> 
                    </div>","null","","","","","","","",""
"","","","","","html-button-response","103","575575","0.0-103.0","BF2DB69DB4B64946A133C91B1AF06B67","019ce882-6398-7a18-87c4-bd7f10823f8d","019ce875-66c2-7f0b-b5e8-086c75889f84","","2363","
                    <div class=""stimulus-container"">
                        <img src=""images/causal_sequence/museum_causal/museum_causal_6.png"" class=""exp-image"">
                        <div class=""question-area"">
                            <p style=""font-size: 20px; font-weight: bold; margin: 0;"">Is there a person in this image?</p>
                        </div>
                    </div>","0","main_causal_task","6","museum_causal","","","","",""
"","","","","","html-keyboard-response","104","580579","0.0-104.0","BF2DB69DB4B64946A133C91B1AF06B67","019ce882-6398-7a18-87c4-bd7f10823f8d","019ce875-66c2-7f0b-b5e8-086c75889f84","","null","
                    <div class=""stimulus-container"">
                        <img src=""images/causal_sequence/museum_causal/museum_causal_7.png"" class=""exp-image"">
                        <div class=""question-area""></div> 
                    </div>","null","","","","","","","",""
"","","","","","html-button-response","105","583427","0.0-105.0","BF2DB69DB4B64946A133C91B1AF06B67","019ce882-6398-7a18-87c4-bd7f10823f8d","019ce875-66c2-7f0b-b5e8-086c75889f84","","2844","
                    <div class=""stimulus-container"">
                        <img src=""images/causal_sequence/museum_causal/museum_causal_7.png"" class=""exp-image"">
                        <div class=""question-area"">
                            <p style=""font-size: 20px; font-weight: bold; margin: 0;"">Is there a person in this image?</p>
                        </div>
                    </div>","1","main_causal_task","7","museum_causal","","","","",""
"","","","","","html-keyboard-response","106","588431","0.0-106.0","BF2DB69DB4B64946A133C91B1AF06B67","019ce882-6398-7a18-87c4-bd7f10823f8d","019ce875-66c2-7f0b-b5e8-086c75889f84","","null","
                    <div class=""stimulus-container"">
                        <img src=""images/causal_sequence/museum_causal/museum_causal_8.png"" class=""exp-image"">
                        <div class=""question-area""></div> 
                    </div>","null","","","","","","","",""
"","","","","","html-button-response","107","591434","0.0-107.0","BF2DB69DB4B64946A133C91B1AF06B67","019ce882-6398-7a18-87c4-bd7f10823f8d","019ce875-66c2-7f0b-b5e8-086c75889f84","","null","
                    <div class=""stimulus-container"">
                        <img src=""images/causal_sequence/museum_causal/museum_causal_8.png"" class=""exp-image"">
                        <div class=""question-area"">
                            <p style=""font-size: 20px; font-weight: bold; margin: 0;"">Is there a person in this image?</p>
                        </div>
                    </div>","null","main_causal_task","8","museum_causal","","","","",""
"","","","","","html-keyboard-response","108","597324","0.0-108.0","BF2DB69DB4B64946A133C91B1AF06B67","019ce882-6398-7a18-87c4-bd7f10823f8d","019ce875-66c2-7f0b-b5e8-086c75889f84","","null","
                    <div class=""stimulus-container"">
                        <img src=""images/causal_sequence/museum_causal/museum_causal_9.png"" class=""exp-image"">
                        <div class=""question-area""></div> 
                    </div>","null","","","","","","","",""
"","","","","","html-button-response","109","601324","0.0-109.0","BF2DB69DB4B64946A133C91B1AF06B67","019ce882-6398-7a18-87c4-bd7f10823f8d","019ce875-66c2-7f0b-b5e8-086c75889f84","","null","
                    <div class=""stimulus-container"">
                        <img src=""images/causal_sequence/museum_causal/museum_causal_9.png"" class=""exp-image"">
                        <div class=""question-area"">
                            <p style=""font-size: 20px; font-weight: bold; margin: 0;"">Is there a person in this image?</p>
                        </div>
                    </div>","null","main_causal_task","9","museum_causal","","","","",""
"","","","","","html-keyboard-response","110","602326","0.0-110.0","BF2DB69DB4B64946A133C91B1AF06B67","019ce882-6398-7a18-87c4-bd7f10823f8d","019ce875-66c2-7f0b-b5e8-086c75889f84","","null","<div style=""background-color: gray; width: 100vw; height: 100vh;""></div>","null","","","","","","","",""
"","","","","","html-keyboard-response","111","607328","0.0-111.0","BF2DB69DB4B64946A133C91B1AF06B67","019ce882-6398-7a18-87c4-bd7f10823f8d","019ce875-66c2-7f0b-b5e8-086c75889f84","","null","
                    <div class=""stimulus-container"">
                        <img src=""images/causal_sequence/the_performance_causal/the_performance_causal_1.png"" class=""exp-image"">
                        <div class=""question-area""></div> 
                    </div>","null","","","","","","","",""
"","","","","","html-button-response","112","610331","0.0-112.0","BF2DB69DB4B64946A133C91B1AF06B67","019ce882-6398-7a18-87c4-bd7f10823f8d","019ce875-66c2-7f0b-b5e8-086c75889f84","","null","
                    <div class=""stimulus-container"">
                        <img src=""images/causal_sequence/the_performance_causal/the_performance_causal_1.png"" class=""exp-image"">
                        <div class=""question-area"">
                            <p style=""font-size: 20px; font-weight: bold; margin: 0;"">Is there a person in this image?</p>
                        </div>
                    </div>","null","main_causal_task","1","the_performance_causal","","","","",""
"","","","","","html-keyboard-response","113","615334","0.0-113.0","BF2DB69DB4B64946A133C91B1AF06B67","019ce882-6398-7a18-87c4-bd7f10823f8d","019ce875-66c2-7f0b-b5e8-086c75889f84","","null","
                    <div class=""stimulus-container"">
                        <img src=""images/causal_sequence/the_performance_causal/the_performance_causal_2.png"" class=""exp-image"">
                        <div class=""question-area""></div> 
                    </div>","null","","","","","","","",""
"","","","","","html-button-response","114","618337","0.0-114.0","BF2DB69DB4B64946A133C91B1AF06B67","019ce882-6398-7a18-87c4-bd7f10823f8d","019ce875-66c2-7f0b-b5e8-086c75889f84","","null","
                    <div class=""stimulus-container"">
                        <img src=""images/causal_sequence/the_performance_causal/the_performance_causal_2.png"" class=""exp-image"">
                        <div class=""question-area"">
                            <p style=""font-size: 20px; font-weight: bold; margin: 0;"">Is there a person in this image?</p>
                        </div>
                    </div>","null","main_causal_task","2","the_performance_causal","","","","",""
"","","","","","html-keyboard-response","115","623340","0.0-115.0","BF2DB69DB4B64946A133C91B1AF06B67","019ce882-6398-7a18-87c4-bd7f10823f8d","019ce875-66c2-7f0b-b5e8-086c75889f84","","null","
                    <div class=""stimulus-container"">
                        <img src=""images/causal_sequence/the_performance_causal/the_performance_causal_3.png"" class=""exp-image"">
                        <div class=""question-area""></div> 
                    </div>","null","","","","","","","",""
"","","","","","html-button-response","116","624491","0.0-116.0","BF2DB69DB4B64946A133C91B1AF06B67","019ce882-6398-7a18-87c4-bd7f10823f8d","019ce875-66c2-7f0b-b5e8-086c75889f84","","1149","
                    <div class=""stimulus-container"">
                        <img src=""images/causal_sequence/the_performance_causal/the_performance_causal_3.png"" class=""exp-image"">
                        <div class=""question-area"">
                            <p style=""font-size: 20px; font-weight: bold; margin: 0;"">Is there a person in this image?</p>
                        </div>
                    </div>","0","main_causal_task","3","the_performance_causal","","","","",""
"","","","","","html-keyboard-response","117","629493","0.0-117.0","BF2DB69DB4B64946A133C91B1AF06B67","019ce882-6398-7a18-87c4-bd7f10823f8d","019ce875-66c2-7f0b-b5e8-086c75889f84","","null","
                    <div class=""stimulus-container"">
                        <img src=""images/causal_sequence/the_performance_causal/the_performance_causal_4.png"" class=""exp-image"">
                        <div class=""question-area""></div> 
                    </div>","null","","","","","","","",""
"","","","","","html-button-response","118","631324","0.0-118.0","BF2DB69DB4B64946A133C91B1AF06B67","019ce882-6398-7a18-87c4-bd7f10823f8d","019ce875-66c2-7f0b-b5e8-086c75889f84","","1830","
                    <div class=""stimulus-container"">
                        <img src=""images/causal_sequence/the_performance_causal/the_performance_causal_4.png"" class=""exp-image"">
                        <div class=""question-area"">
                            <p style=""font-size: 20px; font-weight: bold; margin: 0;"">Is there a person in this image?</p>
                        </div>
                    </div>","0","main_causal_task","4","the_performance_causal","","","","",""
"","","","","","html-keyboard-response","119","636327","0.0-119.0","BF2DB69DB4B64946A133C91B1AF06B67","019ce882-6398-7a18-87c4-bd7f10823f8d","019ce875-66c2-7f0b-b5e8-086c75889f84","","null","
                    <div class=""stimulus-container"">
                        <img src=""images/causal_sequence/the_performance_causal/the_performance_causal_5.png"" class=""exp-image"">
                        <div class=""question-area""></div> 
                    </div>","null","","","","","","","",""
"","","","","","html-button-response","120","639331","0.0-120.0","BF2DB69DB4B64946A133C91B1AF06B67","019ce882-6398-7a18-87c4-bd7f10823f8d","019ce875-66c2-7f0b-b5e8-086c75889f84","","null","
                    <div class=""stimulus-container"">
                        <img src=""images/causal_sequence/the_performance_causal/the_performance_causal_5.png"" class=""exp-image"">
                        <div class=""question-area"">
                            <p style=""font-size: 20px; font-weight: bold; margin: 0;"">Is there a person in this image?</p>
                        </div>
                    </div>","null","main_causal_task","5","the_performance_causal","","","","",""
"","","","","","html-keyboard-response","121","644333","0.0-121.0","BF2DB69DB4B64946A133C91B1AF06B67","019ce882-6398-7a18-87c4-bd7f10823f8d","019ce875-66c2-7f0b-b5e8-086c75889f84","","null","
                    <div class=""stimulus-container"">
                        <img src=""images/causal_sequence/the_performance_causal/the_performance_causal_6.png"" class=""exp-image"">
                        <div class=""question-area""></div> 
                    </div>","null","","","","","","","",""
"","","","","","html-button-response","122","647337","0.0-122.0","BF2DB69DB4B64946A133C91B1AF06B67","019ce882-6398-7a18-87c4-bd7f10823f8d","019ce875-66c2-7f0b-b5e8-086c75889f84","","null","
                    <div class=""stimulus-container"">
                        <img src=""images/causal_sequence/the_performance_causal/the_performance_causal_6.png"" class=""exp-image"">
                        <div class=""question-area"">
                            <p style=""font-size: 20px; font-weight: bold; margin: 0;"">Is there a person in this image?</p>
                        </div>
                    </div>","null","main_causal_task","6","the_performance_causal","","","","",""
"","","","","","html-keyboard-response","123","652339","0.0-123.0","BF2DB69DB4B64946A133C91B1AF06B67","019ce882-6398-7a18-87c4-bd7f10823f8d","019ce875-66c2-7f0b-b5e8-086c75889f84","","null","
                    <div class=""stimulus-container"">
                        <img src=""images/causal_sequence/the_performance_causal/the_performance_causal_7.png"" class=""exp-image"">
                        <div class=""question-area""></div> 
                    </div>","null","","","","","","","",""
"","","","","","html-button-response","124","654275","0.0-124.0","BF2DB69DB4B64946A133C91B1AF06B67","019ce882-6398-7a18-87c4-bd7f10823f8d","019ce875-66c2-7f0b-b5e8-086c75889f84","","1932","
                    <div class=""stimulus-container"">
                        <img src=""images/causal_sequence/the_performance_causal/the_performance_causal_7.png"" class=""exp-image"">
                        <div class=""question-area"">
                            <p style=""font-size: 20px; font-weight: bold; margin: 0;"">Is there a person in this image?</p>
                        </div>
                    </div>","0","main_causal_task","7","the_performance_causal","","","","",""
"","","","","","html-keyboard-response","125","659278","0.0-125.0","BF2DB69DB4B64946A133C91B1AF06B67","019ce882-6398-7a18-87c4-bd7f10823f8d","019ce875-66c2-7f0b-b5e8-086c75889f84","","null","
                    <div class=""stimulus-container"">
                        <img src=""images/causal_sequence/the_performance_causal/the_performance_causal_8.png"" class=""exp-image"">
                        <div class=""question-area""></div> 
                    </div>","null","","","","","","","",""
"","","","","","html-button-response","126","660191","0.0-126.0","BF2DB69DB4B64946A133C91B1AF06B67","019ce882-6398-7a18-87c4-bd7f10823f8d","019ce875-66c2-7f0b-b5e8-086c75889f84","","912","
                    <div class=""stimulus-container"">
                        <img src=""images/causal_sequence/the_performance_causal/the_performance_causal_8.png"" class=""exp-image"">
                        <div class=""question-area"">
                            <p style=""font-size: 20px; font-weight: bold; margin: 0;"">Is there a person in this image?</p>
                        </div>
                    </div>","0","main_causal_task","8","the_performance_causal","","","","",""
"","","","","","html-keyboard-response","127","665192","0.0-127.0","BF2DB69DB4B64946A133C91B1AF06B67","019ce882-6398-7a18-87c4-bd7f10823f8d","019ce875-66c2-7f0b-b5e8-086c75889f84","","null","
                    <div class=""stimulus-container"">
                        <img src=""images/causal_sequence/the_performance_causal/the_performance_causal_9.png"" class=""exp-image"">
                        <div class=""question-area""></div> 
                    </div>","null","","","","","","","",""
"","","","","","html-button-response","128","665958","0.0-128.0","BF2DB69DB4B64946A133C91B1AF06B67","019ce882-6398-7a18-87c4-bd7f10823f8d","019ce875-66c2-7f0b-b5e8-086c75889f84","","764","
                    <div class=""stimulus-container"">
                        <img src=""images/causal_sequence/the_performance_causal/the_performance_causal_9.png"" class=""exp-image"">
                        <div class=""question-area"">
                            <p style=""font-size: 20px; font-weight: bold; margin: 0;"">Is there a person in this image?</p>
                        </div>
                    </div>","0","main_causal_task","9","the_performance_causal","","","","",""
"","","","","","instructions","129","669108","0.0-129.0","BF2DB69DB4B64946A133C91B1AF06B67","019ce882-6398-7a18-87c4-bd7f10823f8d","019ce875-66c2-7f0b-b5e8-086c75889f84","[{""page_index"":0,""viewing_time"":3149}]","3149","","","","","","","","","",""
"","","","","","instructions","130","676075","0.0-130.0","BF2DB69DB4B64946A133C91B1AF06B67","019ce882-6398-7a18-87c4-bd7f10823f8d","019ce875-66c2-7f0b-b5e8-086c75889f84","[{""page_index"":0,""viewing_time"":6965}]","6965","","","","","","","","","",""
"","","","","","html-button-response","131","681441","0.0-131.0-0.0","BF2DB69DB4B64946A133C91B1AF06B67","019ce882-6398-7a18-87c4-bd7f10823f8d","019ce875-66c2-7f0b-b5e8-086c75889f84","","5362","
                <div style=""margin-bottom:20px;""><h3>Example: Valuable Image</h3></div>
                <div class=""stimulus-container"" style=""display: flex; align-items: center; justify-content: center; gap: 30px;"">
                    <img src=""images/instructions/movie_1.png"" class=""exp-image"">
                    <div style=""font-size: 35px; font-weight: bold; color: green; border: 5px solid green; padding: 20px; border-radius: 15px; background-color: #f0fff0;"">
                        WORTH<br>$1
                    </div>
                </div>
                <div class=""question-area""><p>Was there a person in this image?</p></div>","0","","","","","","","",""
"","","","","","html-button-response","132","684707","0.0-131.0-1.0","BF2DB69DB4B64946A133C91B1AF06B67","019ce882-6398-7a18-87c4-bd7f10823f8d","019ce875-66c2-7f0b-b5e8-086c75889f84","","3264","
                <div style=""margin-bottom:20px;""><h3>Example: Neutral Image</h3></div>
                <div class=""stimulus-container"" style=""display: flex; align-items: center; justify-content: center; gap: 30px;"">
                    <img src=""images/instructions/movie_2.png"" class=""exp-image"">
                    <div style=""font-size: 35px; font-weight: bold; color: grey; border: 5px solid grey; padding: 20px; border-radius: 15px; background-color: #f0f0f0;"">
                        NEUTRAL<br>VALUE
                    </div>
                </div>
                <div class=""question-area""><p>Was there a person in this image?</p></div>","1","","","","","","","",""
"","","","","","html-keyboard-response","133","692710","0.0-132.0","BF2DB69DB4B64946A133C91B1AF06B67","019ce882-6398-7a18-87c4-bd7f10823f8d","019ce875-66c2-7f0b-b5e8-086c75889f84","","null","
            <div class=""stimulus-container"" style=""display: flex; align-items: center; justify-content: center; gap: 30px;"">
                <img src=""images/causal_sequence/coin_causal/coin_causal_7.png"" class=""exp-image"">
                <div style=""font-size: 40px; font-weight: bold; color: green; border: 5px solid green; padding: 25px; border-radius: 15px; background-color: #f0fff0;"">
                    WORTH<br>$1
                </div>
            </div>
            <div class=""question-area""></div>","null","","","","","","","",""
"","","","","","html-button-response","134","694526","0.0-133.0","BF2DB69DB4B64946A133C91B1AF06B67","019ce882-6398-7a18-87c4-bd7f10823f8d","019ce875-66c2-7f0b-b5e8-086c75889f84","","1812","
            <div class=""stimulus-container"" style=""display: flex; align-items: center; justify-content: center; gap: 30px;"">
                <img src=""images/causal_sequence/coin_causal/coin_causal_7.png"" class=""exp-image"">
                <div style=""font-size: 40px; font-weight: bold; color: green; border: 5px solid green; padding: 25px; border-radius: 15px; background-color: #f0fff0;"">
                    WORTH<br>$1
                </div>
            </div>
            <div class=""question-area"">
                <p style=""font-size: 20px; font-weight: bold; margin: 0;"">Was there a person in this image?</p>
            </div>","1","part2_value_learning","","coin_causal","7","valuable","","",""
"","","","","","html-keyboard-response","135","702529","0.0-134.0","BF2DB69DB4B64946A133C91B1AF06B67","019ce882-6398-7a18-87c4-bd7f10823f8d","019ce875-66c2-7f0b-b5e8-086c75889f84","","null","
            <div class=""stimulus-container"" style=""display: flex; align-items: center; justify-content: center; gap: 30px;"">
                <img src=""images/causal_sequence/museum_causal/museum_causal_4.png"" class=""exp-image"">
                <div style=""font-size: 40px; font-weight: bold; color: green; border: 5px solid green; padding: 25px; border-radius: 15px; background-color: #f0fff0;"">
                    WORTH<br>$1
                </div>
            </div>
            <div class=""question-area""></div>","null","","","","","","","",""
"","","","","","html-button-response","136","705425","0.0-135.0","BF2DB69DB4B64946A133C91B1AF06B67","019ce882-6398-7a18-87c4-bd7f10823f8d","019ce875-66c2-7f0b-b5e8-086c75889f84","","2894","
            <div class=""stimulus-container"" style=""display: flex; align-items: center; justify-content: center; gap: 30px;"">
                <img src=""images/causal_sequence/museum_causal/museum_causal_4.png"" class=""exp-image"">
                <div style=""font-size: 40px; font-weight: bold; color: green; border: 5px solid green; padding: 25px; border-radius: 15px; background-color: #f0fff0;"">
                    WORTH<br>$1
                </div>
            </div>
            <div class=""question-area"">
                <p style=""font-size: 20px; font-weight: bold; margin: 0;"">Was there a person in this image?</p>
            </div>","1","part2_value_learning","","museum_causal","4","valuable","","",""
"","","","","","html-keyboard-response","137","713429","0.0-136.0","BF2DB69DB4B64946A133C91B1AF06B67","019ce882-6398-7a18-87c4-bd7f10823f8d","019ce875-66c2-7f0b-b5e8-086c75889f84","","null","
            <div class=""stimulus-container"" style=""display: flex; align-items: center; justify-content: center; gap: 30px;"">
                <img src=""images/causal_sequence/dog_causal/dog_causal_4.png"" class=""exp-image"">
                <div style=""font-size: 40px; font-weight: bold; color: green; border: 5px solid green; padding: 25px; border-radius: 15px; background-color: #f0fff0;"">
                    WORTH<br>$1
                </div>
            </div>
            <div class=""question-area""></div>","null","","","","","","","",""
"","","","","","html-button-response","138","714607","0.0-137.0","BF2DB69DB4B64946A133C91B1AF06B67","019ce882-6398-7a18-87c4-bd7f10823f8d","019ce875-66c2-7f0b-b5e8-086c75889f84","","1176","
            <div class=""stimulus-container"" style=""display: flex; align-items: center; justify-content: center; gap: 30px;"">
                <img src=""images/causal_sequence/dog_causal/dog_causal_4.png"" class=""exp-image"">
                <div style=""font-size: 40px; font-weight: bold; color: green; border: 5px solid green; padding: 25px; border-radius: 15px; background-color: #f0fff0;"">
                    WORTH<br>$1
                </div>
            </div>
            <div class=""question-area"">
                <p style=""font-size: 20px; font-weight: bold; margin: 0;"">Was there a person in this image?</p>
            </div>","0","part2_value_learning","","dog_causal","4","valuable","","",""
"","","","","","html-keyboard-response","139","722610","0.0-138.0","BF2DB69DB4B64946A133C91B1AF06B67","019ce882-6398-7a18-87c4-bd7f10823f8d","019ce875-66c2-7f0b-b5e8-086c75889f84","","null","
            <div class=""stimulus-container"" style=""display: flex; align-items: center; justify-content: center; gap: 30px;"">
                <img src=""images/causal_sequence/package_causal/package_causal_3.png"" class=""exp-image"">
                <div style=""font-size: 40px; font-weight: bold; color: grey; border: 5px solid grey; padding: 25px; border-radius: 15px; background-color: #f0f0f0;"">
                    NEUTRAL<br>VALUE
                </div>
            </div>
            <div class=""question-area""></div>","null","","","","","","","",""
"","","","","","html-button-response","140","723841","0.0-139.0","BF2DB69DB4B64946A133C91B1AF06B67","019ce882-6398-7a18-87c4-bd7f10823f8d","019ce875-66c2-7f0b-b5e8-086c75889f84","","1230","
            <div class=""stimulus-container"" style=""display: flex; align-items: center; justify-content: center; gap: 30px;"">
                <img src=""images/causal_sequence/package_causal/package_causal_3.png"" class=""exp-image"">
                <div style=""font-size: 40px; font-weight: bold; color: grey; border: 5px solid grey; padding: 25px; border-radius: 15px; background-color: #f0f0f0;"">
                    NEUTRAL<br>VALUE
                </div>
            </div>
            <div class=""question-area"">
                <p style=""font-size: 20px; font-weight: bold; margin: 0;"">Was there a person in this image?</p>
            </div>","0","part2_value_learning","","package_causal","3","neutral","","",""
"","","","","","html-keyboard-response","141","731845","0.0-140.0","BF2DB69DB4B64946A133C91B1AF06B67","019ce882-6398-7a18-87c4-bd7f10823f8d","019ce875-66c2-7f0b-b5e8-086c75889f84","","null","
            <div class=""stimulus-container"" style=""display: flex; align-items: center; justify-content: center; gap: 30px;"">
                <img src=""images/causal_sequence/saving_a_cat_causal/saving_a_cat_causal_6.png"" class=""exp-image"">
                <div style=""font-size: 40px; font-weight: bold; color: grey; border: 5px solid grey; padding: 25px; border-radius: 15px; background-color: #f0f0f0;"">
                    NEUTRAL<br>VALUE
                </div>
            </div>
            <div class=""question-area""></div>","null","","","","","","","",""
"","","","","","html-button-response","142","732975","0.0-141.0","BF2DB69DB4B64946A133C91B1AF06B67","019ce882-6398-7a18-87c4-bd7f10823f8d","019ce875-66c2-7f0b-b5e8-086c75889f84","","1128","
            <div class=""stimulus-container"" style=""display: flex; align-items: center; justify-content: center; gap: 30px;"">
                <img src=""images/causal_sequence/saving_a_cat_causal/saving_a_cat_causal_6.png"" class=""exp-image"">
                <div style=""font-size: 40px; font-weight: bold; color: grey; border: 5px solid grey; padding: 25px; border-radius: 15px; background-color: #f0f0f0;"">
                    NEUTRAL<br>VALUE
                </div>
            </div>
            <div class=""question-area"">
                <p style=""font-size: 20px; font-weight: bold; margin: 0;"">Was there a person in this image?</p>
            </div>","0","part2_value_learning","","saving_a_cat_causal","6","neutral","","",""
"","","","","","html-keyboard-response","143","740978","0.0-142.0","BF2DB69DB4B64946A133C91B1AF06B67","019ce882-6398-7a18-87c4-bd7f10823f8d","019ce875-66c2-7f0b-b5e8-086c75889f84","","null","
            <div class=""stimulus-container"" style=""display: flex; align-items: center; justify-content: center; gap: 30px;"">
                <img src=""images/causal_sequence/the_performance_causal/the_performance_causal_5.png"" class=""exp-image"">
                <div style=""font-size: 40px; font-weight: bold; color: grey; border: 5px solid grey; padding: 25px; border-radius: 15px; background-color: #f0f0f0;"">
                    NEUTRAL<br>VALUE
                </div>
            </div>
            <div class=""question-area""></div>","null","","","","","","","",""
"","","","","","html-button-response","144","742209","0.0-143.0","BF2DB69DB4B64946A133C91B1AF06B67","019ce882-6398-7a18-87c4-bd7f10823f8d","019ce875-66c2-7f0b-b5e8-086c75889f84","","1229","
            <div class=""stimulus-container"" style=""display: flex; align-items: center; justify-content: center; gap: 30px;"">
                <img src=""images/causal_sequence/the_performance_causal/the_performance_causal_5.png"" class=""exp-image"">
                <div style=""font-size: 40px; font-weight: bold; color: grey; border: 5px solid grey; padding: 25px; border-radius: 15px; background-color: #f0f0f0;"">
                    NEUTRAL<br>VALUE
                </div>
            </div>
            <div class=""question-area"">
                <p style=""font-size: 20px; font-weight: bold; margin: 0;"">Was there a person in this image?</p>
            </div>","0","part2_value_learning","","the_performance_causal","5","neutral","","",""
"","","","","","instructions","145","745875","0.0-144.0","BF2DB69DB4B64946A133C91B1AF06B67","019ce882-6398-7a18-87c4-bd7f10823f8d","019ce875-66c2-7f0b-b5e8-086c75889f84","[{""page_index"":0,""viewing_time"":3664}]","3664","","","","","","","","","",""
"","","","","","html-keyboard-response","146","755880","0.0-145.0-0.0","BF2DB69DB4B64946A133C91B1AF06B67","019ce882-6398-7a18-87c4-bd7f10823f8d","019ce875-66c2-7f0b-b5e8-086c75889f84","","null","
                        <div style=""font-family: Arial; margin-bottom: 20px;""><h3>Which image is more valuable?</h3></div>
                        <div class=""stimulus-container"" style=""display: flex; width: 1100px; justify-content: center; gap: 50px;"">
                            <img src=""images/causal_sequence/museum_causal/museum_causal_5.png"" class=""exp-image"">
                            <img src=""images/causal_sequence/museum_causal/museum_causal_3.png"" class=""exp-image"">
                        </div>","null","","","","","","","",""
"","","","","","html-button-response","147","757158","0.0-145.0-1.0","BF2DB69DB4B64946A133C91B1AF06B67","019ce882-6398-7a18-87c4-bd7f10823f8d","019ce875-66c2-7f0b-b5e8-086c75889f84","","1274","
                        <div style=""font-family: Arial; margin-bottom: 20px;""><h3>Which image is more valuable?</h3></div>
                        <div class=""stimulus-container"" style=""display: flex; width: 1100px; justify-content: center; gap: 50px;"">
                            <img src=""images/causal_sequence/museum_causal/museum_causal_5.png"" class=""exp-image"">
                            <img src=""images/causal_sequence/museum_causal/museum_causal_3.png"" class=""exp-image"">
                        </div>","1","part3_final_choice","","museum_causal","","valuable","4","3","-1"
"","","","","","html-keyboard-response","148","767163","0.0-146.0-0.0","BF2DB69DB4B64946A133C91B1AF06B67","019ce882-6398-7a18-87c4-bd7f10823f8d","019ce875-66c2-7f0b-b5e8-086c75889f84","","null","
                        <div style=""font-family: Arial; margin-bottom: 20px;""><h3>Which image is more valuable?</h3></div>
                        <div class=""stimulus-container"" style=""display: flex; width: 1100px; justify-content: center; gap: 50px;"">
                            <img src=""images/causal_sequence/the_performance_causal/the_performance_causal_4.png"" class=""exp-image"">
                            <img src=""images/causal_sequence/the_performance_causal/the_performance_causal_6.png"" class=""exp-image"">
                        </div>","null","","","","","","","",""
"","","","","","html-button-response","149","768676","0.0-146.0-1.0","BF2DB69DB4B64946A133C91B1AF06B67","019ce882-6398-7a18-87c4-bd7f10823f8d","019ce875-66c2-7f0b-b5e8-086c75889f84","","1510","
                        <div style=""font-family: Arial; margin-bottom: 20px;""><h3>Which image is more valuable?</h3></div>
                        <div class=""stimulus-container"" style=""display: flex; width: 1100px; justify-content: center; gap: 50px;"">
                            <img src=""images/causal_sequence/the_performance_causal/the_performance_causal_4.png"" class=""exp-image"">
                            <img src=""images/causal_sequence/the_performance_causal/the_performance_causal_6.png"" class=""exp-image"">
                        </div>","0","part3_final_choice","","the_performance_causal","","neutral","5","4","-1"
"","","","","","html-keyboard-response","150","778681","0.0-147.0-0.0","BF2DB69DB4B64946A133C91B1AF06B67","019ce882-6398-7a18-87c4-bd7f10823f8d","019ce875-66c2-7f0b-b5e8-086c75889f84","","null","
                        <div style=""font-family: Arial; margin-bottom: 20px;""><h3>Which image is more valuable?</h3></div>
                        <div class=""stimulus-container"" style=""display: flex; width: 1100px; justify-content: center; gap: 50px;"">
                            <img src=""images/causal_sequence/dog_causal/dog_causal_3.png"" class=""exp-image"">
                            <img src=""images/causal_sequence/dog_causal/dog_causal_5.png"" class=""exp-image"">
                        </div>","null","","","","","","","",""
"","","","","","html-button-response","151","779926","0.0-147.0-1.0","BF2DB69DB4B64946A133C91B1AF06B67","019ce882-6398-7a18-87c4-bd7f10823f8d","019ce875-66c2-7f0b-b5e8-086c75889f84","","1244","
                        <div style=""font-family: Arial; margin-bottom: 20px;""><h3>Which image is more valuable?</h3></div>
                        <div class=""stimulus-container"" style=""display: flex; width: 1100px; justify-content: center; gap: 50px;"">
                            <img src=""images/causal_sequence/dog_causal/dog_causal_3.png"" class=""exp-image"">
                            <img src=""images/causal_sequence/dog_causal/dog_causal_5.png"" class=""exp-image"">
                        </div>","1","part3_final_choice","","dog_causal","","valuable","4","5","1"
"","","","","","html-keyboard-response","152","789930","0.0-148.0-0.0","BF2DB69DB4B64946A133C91B1AF06B67","019ce882-6398-7a18-87c4-bd7f10823f8d","019ce875-66c2-7f0b-b5e8-086c75889f84","","null","
                        <div style=""font-family: Arial; margin-bottom: 20px;""><h3>Which image is more valuable?</h3></div>
                        <div class=""stimulus-container"" style=""display: flex; width: 1100px; justify-content: center; gap: 50px;"">
                            <img src=""images/causal_sequence/saving_a_cat_causal/saving_a_cat_causal_7.png"" class=""exp-image"">
                            <img src=""images/causal_sequence/saving_a_cat_causal/saving_a_cat_causal_5.png"" class=""exp-image"">
                        </div>","null","","","","","","","",""
"","","","","","html-button-response","153","790590","0.0-148.0-1.0","BF2DB69DB4B64946A133C91B1AF06B67","019ce882-6398-7a18-87c4-bd7f10823f8d","019ce875-66c2-7f0b-b5e8-086c75889f84","","658","
                        <div style=""font-family: Arial; margin-bottom: 20px;""><h3>Which image is more valuable?</h3></div>
                        <div class=""stimulus-container"" style=""display: flex; width: 1100px; justify-content: center; gap: 50px;"">
                            <img src=""images/causal_sequence/saving_a_cat_causal/saving_a_cat_causal_7.png"" class=""exp-image"">
                            <img src=""images/causal_sequence/saving_a_cat_causal/saving_a_cat_causal_5.png"" class=""exp-image"">
                        </div>","0","part3_final_choice","","saving_a_cat_causal","","neutral","6","7","1"
"","","","","","html-keyboard-response","154","800594","0.0-149.0-0.0","BF2DB69DB4B64946A133C91B1AF06B67","019ce882-6398-7a18-87c4-bd7f10823f8d","019ce875-66c2-7f0b-b5e8-086c75889f84","","null","
                        <div style=""font-family: Arial; margin-bottom: 20px;""><h3>Which image is more valuable?</h3></div>
                        <div class=""stimulus-container"" style=""display: flex; width: 1100px; justify-content: center; gap: 50px;"">
                            <img src=""images/causal_sequence/coin_causal/coin_causal_8.png"" class=""exp-image"">
                            <img src=""images/causal_sequence/coin_causal/coin_causal_6.png"" class=""exp-image"">
                        </div>","null","","","","","","","",""
"","","","","","html-button-response","155","801674","0.0-149.0-1.0","BF2DB69DB4B64946A133C91B1AF06B67","019ce882-6398-7a18-87c4-bd7f10823f8d","019ce875-66c2-7f0b-b5e8-086c75889f84","","1078","
                        <div style=""font-family: Arial; margin-bottom: 20px;""><h3>Which image is more valuable?</h3></div>
                        <div class=""stimulus-container"" style=""display: flex; width: 1100px; justify-content: center; gap: 50px;"">
                            <img src=""images/causal_sequence/coin_causal/coin_causal_8.png"" class=""exp-image"">
                            <img src=""images/causal_sequence/coin_causal/coin_causal_6.png"" class=""exp-image"">
                        </div>","1","part3_final_choice","","coin_causal","","valuable","7","6","-1"
"","","","","","html-keyboard-response","156","811677","0.0-150.0-0.0","BF2DB69DB4B64946A133C91B1AF06B67","019ce882-6398-7a18-87c4-bd7f10823f8d","019ce875-66c2-7f0b-b5e8-086c75889f84","","null","
                        <div style=""font-family: Arial; margin-bottom: 20px;""><h3>Which image is more valuable?</h3></div>
                        <div class=""stimulus-container"" style=""display: flex; width: 1100px; justify-content: center; gap: 50px;"">
                            <img src=""images/causal_sequence/package_causal/package_causal_2.png"" class=""exp-image"">
                            <img src=""images/causal_sequence/package_causal/package_causal_4.png"" class=""exp-image"">
                        </div>","null","","","","","","","",""
"","","","","","html-button-response","157","812357","0.0-150.0-1.0","BF2DB69DB4B64946A133C91B1AF06B67","019ce882-6398-7a18-87c4-bd7f10823f8d","019ce875-66c2-7f0b-b5e8-086c75889f84","","677","
                        <div style=""font-family: Arial; margin-bottom: 20px;""><h3>Which image is more valuable?</h3></div>
                        <div class=""stimulus-container"" style=""display: flex; width: 1100px; justify-content: center; gap: 50px;"">
                            <img src=""images/causal_sequence/package_causal/package_causal_2.png"" class=""exp-image"">
                            <img src=""images/causal_sequence/package_causal/package_causal_4.png"" class=""exp-image"">
                        </div>","1","part3_final_choice","","package_causal","","neutral","3","4","1"
"","","","","","survey-text","158","859212","0.0-151.0","BF2DB69DB4B64946A133C91B1AF06B67","019ce882-6398-7a18-87c4-bd7f10823f8d","019ce875-66c2-7f0b-b5e8-086c75889f84","","46842","","{""gender"":""MALE"",""age"":""33"",""decision_strategy"":""Gut feeling mostly"",""consistency_check"":""I tried, for the most part, to remain consistent""}","demographics_and_strategy","","","","","","",""
"","","","","","instructions","159","867224","0.0-152.0","BF2DB69DB4B64946A133C91B1AF06B67","019ce882-6398-7a18-87c4-bd7f10823f8d","019ce875-66c2-7f0b-b5e8-086c75889f84","[{""page_index"":0,""viewing_time"":8011}]","8012","","","","","","","","","",""
