"success","timeout","failed_images","failed_audio","failed_video","trial_type","trial_index","time_elapsed","internal_node_id","subject_id","study_id","session_id","view_history","rt","stimulus","response","task","image_index","folder","sequence_type","valuable_image_index","reward_type","chosen_image_index","target_X","correct_choice"
"true","false","[]","[]","[]","preload","0","4946","0.0-0.0","D3E5CC76D3C045988D3CB553AF5D1801","019cf816-b281-7be7-b31a-fe7943bce15a","019cf80d-4266-7117-8a51-54e13c84aca4","","","","","","","","","","","","",""
"","","","","","instructions","1","119121","0.0-1.0","D3E5CC76D3C045988D3CB553AF5D1801","019cf816-b281-7be7-b31a-fe7943bce15a","019cf80d-4266-7117-8a51-54e13c84aca4","[{""page_index"":0,""viewing_time"":114176}]","114176","","","","","","","","","","",""
"","","","","","instructions","2","122236","0.0-2.0","D3E5CC76D3C045988D3CB553AF5D1801","019cf816-b281-7be7-b31a-fe7943bce15a","019cf80d-4266-7117-8a51-54e13c84aca4","[{""page_index"":0,""viewing_time"":3114}]","3114","","","","","","","","","","",""
"true","","","","","fullscreen","3","124868","0.0-3.0","D3E5CC76D3C045988D3CB553AF5D1801","019cf816-b281-7be7-b31a-fe7943bce15a","019cf80d-4266-7117-8a51-54e13c84aca4","","1629","","","","","","","","","","",""
"","","","","","instructions","4","137880","0.0-4.0","D3E5CC76D3C045988D3CB553AF5D1801","019cf816-b281-7be7-b31a-fe7943bce15a","019cf80d-4266-7117-8a51-54e13c84aca4","[{""page_index"":0,""viewing_time"":13012}]","13012","","","","","","","","","","",""
"","","","","","instructions","5","145162","0.0-5.0","D3E5CC76D3C045988D3CB553AF5D1801","019cf816-b281-7be7-b31a-fe7943bce15a","019cf80d-4266-7117-8a51-54e13c84aca4","[{""page_index"":0,""viewing_time"":7281}]","7282","","","","","","","","","","",""
"","","","","","html-keyboard-response","6","149174","0.0-6.0","D3E5CC76D3C045988D3CB553AF5D1801","019cf816-b281-7be7-b31a-fe7943bce15a","019cf80d-4266-7117-8a51-54e13c84aca4","","null","
                <div class=""stimulus-container"">
                    <img src=""images/instructions/movie_1.png"" class=""exp-image"">
                    <div class=""question-area""></div> 
                </div>","null","","","","","","","","",""
"","","","","","html-button-response","7","152593","0.0-7.0","D3E5CC76D3C045988D3CB553AF5D1801","019cf816-b281-7be7-b31a-fe7943bce15a","019cf80d-4266-7117-8a51-54e13c84aca4","","null","
                <div class=""stimulus-container"">
                    <img src=""images/instructions/movie_1.png"" class=""exp-image"">
                    <div class=""question-area"">
                        <p style=""font-size: 20px; font-weight: bold; margin: 0;"">Was there a person in this image?</p>
                    </div>
                </div>","null","example_question","1","","","","","","",""
"","","","","","html-keyboard-response","8","156603","0.0-8.0","D3E5CC76D3C045988D3CB553AF5D1801","019cf816-b281-7be7-b31a-fe7943bce15a","019cf80d-4266-7117-8a51-54e13c84aca4","","null","
                <div class=""stimulus-container"">
                    <img src=""images/instructions/movie_2.png"" class=""exp-image"">
                    <div class=""question-area""></div> 
                </div>","null","","","","","","","","",""
"","","","","","html-button-response","9","159617","0.0-9.0","D3E5CC76D3C045988D3CB553AF5D1801","019cf816-b281-7be7-b31a-fe7943bce15a","019cf80d-4266-7117-8a51-54e13c84aca4","","null","
                <div class=""stimulus-container"">
                    <img src=""images/instructions/movie_2.png"" class=""exp-image"">
                    <div class=""question-area"">
                        <p style=""font-size: 20px; font-weight: bold; margin: 0;"">Was there a person in this image?</p>
                    </div>
                </div>","null","example_question","2","","","","","","",""
"","","","","","html-keyboard-response","10","163619","0.0-10.0","D3E5CC76D3C045988D3CB553AF5D1801","019cf816-b281-7be7-b31a-fe7943bce15a","019cf80d-4266-7117-8a51-54e13c84aca4","","null","
                <div class=""stimulus-container"">
                    <img src=""images/instructions/movie_3.png"" class=""exp-image"">
                    <div class=""question-area""></div> 
                </div>","null","","","","","","","","",""
"","","","","","html-button-response","11","164990","0.0-11.0","D3E5CC76D3C045988D3CB553AF5D1801","019cf816-b281-7be7-b31a-fe7943bce15a","019cf80d-4266-7117-8a51-54e13c84aca4","","1370","
                <div class=""stimulus-container"">
                    <img src=""images/instructions/movie_3.png"" class=""exp-image"">
                    <div class=""question-area"">
                        <p style=""font-size: 20px; font-weight: bold; margin: 0;"">Was there a person in this image?</p>
                    </div>
                </div>","0","example_question","3","","","","","","",""
"","","","","","html-keyboard-response","12","169002","0.0-12.0","D3E5CC76D3C045988D3CB553AF5D1801","019cf816-b281-7be7-b31a-fe7943bce15a","019cf80d-4266-7117-8a51-54e13c84aca4","","null","
                <div class=""stimulus-container"">
                    <img src=""images/instructions/movie_4.png"" class=""exp-image"">
                    <div class=""question-area""></div> 
                </div>","null","","","","","","","","",""
"","","","","","html-button-response","13","170725","0.0-13.0","D3E5CC76D3C045988D3CB553AF5D1801","019cf816-b281-7be7-b31a-fe7943bce15a","019cf80d-4266-7117-8a51-54e13c84aca4","","1721","
                <div class=""stimulus-container"">
                    <img src=""images/instructions/movie_4.png"" class=""exp-image"">
                    <div class=""question-area"">
                        <p style=""font-size: 20px; font-weight: bold; margin: 0;"">Was there a person in this image?</p>
                    </div>
                </div>","0","example_question","4","","","","","","",""
"","","","","","instructions","14","172348","0.0-14.0","D3E5CC76D3C045988D3CB553AF5D1801","019cf816-b281-7be7-b31a-fe7943bce15a","019cf80d-4266-7117-8a51-54e13c84aca4","[{""page_index"":0,""viewing_time"":1622}]","1622","","","","","","","","","","",""
"","","","","","instructions","15","186720","0.0-15.0","D3E5CC76D3C045988D3CB553AF5D1801","019cf816-b281-7be7-b31a-fe7943bce15a","019cf80d-4266-7117-8a51-54e13c84aca4","[{""page_index"":0,""viewing_time"":14373}]","14373","","","","","","","","","","",""
"","","","","","html-keyboard-response","16","187722","0.0-16.0","D3E5CC76D3C045988D3CB553AF5D1801","019cf816-b281-7be7-b31a-fe7943bce15a","019cf80d-4266-7117-8a51-54e13c84aca4","","null","<div style=""background-color: white; width: 100vw; height: 100vh;""></div>","null","","","","","","","","",""
"","","","","","html-keyboard-response","17","192724","0.0-17.0","D3E5CC76D3C045988D3CB553AF5D1801","019cf816-b281-7be7-b31a-fe7943bce15a","019cf80d-4266-7117-8a51-54e13c84aca4","","null","
                <div class=""stimulus-container"">
                    <img src=""images/schematic_sequence/supermarket_scheme/supermarket_scheme_1.png"" class=""exp-image"">
                    <div class=""question-area""></div> 
                </div>","null","","","","","","","","",""
"","","","","","html-button-response","18","194124","0.0-18.0","D3E5CC76D3C045988D3CB553AF5D1801","019cf816-b281-7be7-b31a-fe7943bce15a","019cf80d-4266-7117-8a51-54e13c84aca4","","1399","
                <div class=""stimulus-container"">
                    <img src=""images/schematic_sequence/supermarket_scheme/supermarket_scheme_1.png"" class=""exp-image"">
                    <div class=""question-area"">
                        <p style=""font-size: 20px; font-weight: bold; margin: 0;"">Is there a person in this image?</p>
                    </div>
                </div>","1","main_experiment_trial","1","supermarket_scheme","schematic_sequence","","","","",""
"","","","","","html-keyboard-response","19","199126","0.0-19.0","D3E5CC76D3C045988D3CB553AF5D1801","019cf816-b281-7be7-b31a-fe7943bce15a","019cf80d-4266-7117-8a51-54e13c84aca4","","null","
                <div class=""stimulus-container"">
                    <img src=""images/schematic_sequence/supermarket_scheme/supermarket_scheme_2.png"" class=""exp-image"">
                    <div class=""question-area""></div> 
                </div>","null","","","","","","","","",""
"","","","","","html-button-response","20","201715","0.0-20.0","D3E5CC76D3C045988D3CB553AF5D1801","019cf816-b281-7be7-b31a-fe7943bce15a","019cf80d-4266-7117-8a51-54e13c84aca4","","2588","
                <div class=""stimulus-container"">
                    <img src=""images/schematic_sequence/supermarket_scheme/supermarket_scheme_2.png"" class=""exp-image"">
                    <div class=""question-area"">
                        <p style=""font-size: 20px; font-weight: bold; margin: 0;"">Is there a person in this image?</p>
                    </div>
                </div>","1","main_experiment_trial","2","supermarket_scheme","schematic_sequence","","","","",""
"","","","","","html-keyboard-response","21","206716","0.0-21.0","D3E5CC76D3C045988D3CB553AF5D1801","019cf816-b281-7be7-b31a-fe7943bce15a","019cf80d-4266-7117-8a51-54e13c84aca4","","null","
                <div class=""stimulus-container"">
                    <img src=""images/schematic_sequence/supermarket_scheme/supermarket_scheme_3.png"" class=""exp-image"">
                    <div class=""question-area""></div> 
                </div>","null","","","","","","","","",""
"","","","","","html-button-response","22","208570","0.0-22.0","D3E5CC76D3C045988D3CB553AF5D1801","019cf816-b281-7be7-b31a-fe7943bce15a","019cf80d-4266-7117-8a51-54e13c84aca4","","1853","
                <div class=""stimulus-container"">
                    <img src=""images/schematic_sequence/supermarket_scheme/supermarket_scheme_3.png"" class=""exp-image"">
                    <div class=""question-area"">
                        <p style=""font-size: 20px; font-weight: bold; margin: 0;"">Is there a person in this image?</p>
                    </div>
                </div>","1","main_experiment_trial","3","supermarket_scheme","schematic_sequence","","","","",""
"","","","","","html-keyboard-response","23","213572","0.0-23.0","D3E5CC76D3C045988D3CB553AF5D1801","019cf816-b281-7be7-b31a-fe7943bce15a","019cf80d-4266-7117-8a51-54e13c84aca4","","null","
                <div class=""stimulus-container"">
                    <img src=""images/schematic_sequence/supermarket_scheme/supermarket_scheme_4.png"" class=""exp-image"">
                    <div class=""question-area""></div> 
                </div>","null","","","","","","","","",""
"","","","","","html-button-response","24","215386","0.0-24.0","D3E5CC76D3C045988D3CB553AF5D1801","019cf816-b281-7be7-b31a-fe7943bce15a","019cf80d-4266-7117-8a51-54e13c84aca4","","1813","
                <div class=""stimulus-container"">
                    <img src=""images/schematic_sequence/supermarket_scheme/supermarket_scheme_4.png"" class=""exp-image"">
                    <div class=""question-area"">
                        <p style=""font-size: 20px; font-weight: bold; margin: 0;"">Is there a person in this image?</p>
                    </div>
                </div>","0","main_experiment_trial","4","supermarket_scheme","schematic_sequence","","","","",""
"","","","","","html-keyboard-response","25","220415","0.0-25.0","D3E5CC76D3C045988D3CB553AF5D1801","019cf816-b281-7be7-b31a-fe7943bce15a","019cf80d-4266-7117-8a51-54e13c84aca4","","null","
                <div class=""stimulus-container"">
                    <img src=""images/schematic_sequence/supermarket_scheme/supermarket_scheme_5.png"" class=""exp-image"">
                    <div class=""question-area""></div> 
                </div>","null","","","","","","","","",""
"","","","","","html-button-response","26","221533","0.0-26.0","D3E5CC76D3C045988D3CB553AF5D1801","019cf816-b281-7be7-b31a-fe7943bce15a","019cf80d-4266-7117-8a51-54e13c84aca4","","1117","
                <div class=""stimulus-container"">
                    <img src=""images/schematic_sequence/supermarket_scheme/supermarket_scheme_5.png"" class=""exp-image"">
                    <div class=""question-area"">
                        <p style=""font-size: 20px; font-weight: bold; margin: 0;"">Is there a person in this image?</p>
                    </div>
                </div>","1","main_experiment_trial","5","supermarket_scheme","schematic_sequence","","","","",""
"","","","","","html-keyboard-response","27","226538","0.0-27.0","D3E5CC76D3C045988D3CB553AF5D1801","019cf816-b281-7be7-b31a-fe7943bce15a","019cf80d-4266-7117-8a51-54e13c84aca4","","null","
                <div class=""stimulus-container"">
                    <img src=""images/schematic_sequence/supermarket_scheme/supermarket_scheme_6.png"" class=""exp-image"">
                    <div class=""question-area""></div> 
                </div>","null","","","","","","","","",""
"","","","","","html-button-response","28","229549","0.0-28.0","D3E5CC76D3C045988D3CB553AF5D1801","019cf816-b281-7be7-b31a-fe7943bce15a","019cf80d-4266-7117-8a51-54e13c84aca4","","null","
                <div class=""stimulus-container"">
                    <img src=""images/schematic_sequence/supermarket_scheme/supermarket_scheme_6.png"" class=""exp-image"">
                    <div class=""question-area"">
                        <p style=""font-size: 20px; font-weight: bold; margin: 0;"">Is there a person in this image?</p>
                    </div>
                </div>","null","main_experiment_trial","6","supermarket_scheme","schematic_sequence","","","","",""
"","","","","","html-keyboard-response","29","234553","0.0-29.0","D3E5CC76D3C045988D3CB553AF5D1801","019cf816-b281-7be7-b31a-fe7943bce15a","019cf80d-4266-7117-8a51-54e13c84aca4","","null","
                <div class=""stimulus-container"">
                    <img src=""images/schematic_sequence/supermarket_scheme/supermarket_scheme_7.png"" class=""exp-image"">
                    <div class=""question-area""></div> 
                </div>","null","","","","","","","","",""
"","","","","","html-button-response","30","237562","0.0-30.0","D3E5CC76D3C045988D3CB553AF5D1801","019cf816-b281-7be7-b31a-fe7943bce15a","019cf80d-4266-7117-8a51-54e13c84aca4","","null","
                <div class=""stimulus-container"">
                    <img src=""images/schematic_sequence/supermarket_scheme/supermarket_scheme_7.png"" class=""exp-image"">
                    <div class=""question-area"">
                        <p style=""font-size: 20px; font-weight: bold; margin: 0;"">Is there a person in this image?</p>
                    </div>
                </div>","null","main_experiment_trial","7","supermarket_scheme","schematic_sequence","","","","",""
"","","","","","html-keyboard-response","31","242578","0.0-31.0","D3E5CC76D3C045988D3CB553AF5D1801","019cf816-b281-7be7-b31a-fe7943bce15a","019cf80d-4266-7117-8a51-54e13c84aca4","","null","
                <div class=""stimulus-container"">
                    <img src=""images/schematic_sequence/supermarket_scheme/supermarket_scheme_8.png"" class=""exp-image"">
                    <div class=""question-area""></div> 
                </div>","null","","","","","","","","",""
"","","","","","html-button-response","32","244450","0.0-32.0","D3E5CC76D3C045988D3CB553AF5D1801","019cf816-b281-7be7-b31a-fe7943bce15a","019cf80d-4266-7117-8a51-54e13c84aca4","","1872","
                <div class=""stimulus-container"">
                    <img src=""images/schematic_sequence/supermarket_scheme/supermarket_scheme_8.png"" class=""exp-image"">
                    <div class=""question-area"">
                        <p style=""font-size: 20px; font-weight: bold; margin: 0;"">Is there a person in this image?</p>
                    </div>
                </div>","0","main_experiment_trial","8","supermarket_scheme","schematic_sequence","","","","",""
"","","","","","html-keyboard-response","33","249451","0.0-33.0","D3E5CC76D3C045988D3CB553AF5D1801","019cf816-b281-7be7-b31a-fe7943bce15a","019cf80d-4266-7117-8a51-54e13c84aca4","","null","
                <div class=""stimulus-container"">
                    <img src=""images/schematic_sequence/supermarket_scheme/supermarket_scheme_9.png"" class=""exp-image"">
                    <div class=""question-area""></div> 
                </div>","null","","","","","","","","",""
"","","","","","html-button-response","34","251208","0.0-34.0","D3E5CC76D3C045988D3CB553AF5D1801","019cf816-b281-7be7-b31a-fe7943bce15a","019cf80d-4266-7117-8a51-54e13c84aca4","","1757","
                <div class=""stimulus-container"">
                    <img src=""images/schematic_sequence/supermarket_scheme/supermarket_scheme_9.png"" class=""exp-image"">
                    <div class=""question-area"">
                        <p style=""font-size: 20px; font-weight: bold; margin: 0;"">Is there a person in this image?</p>
                    </div>
                </div>","0","main_experiment_trial","9","supermarket_scheme","schematic_sequence","","","","",""
"","","","","","html-keyboard-response","35","256218","0.0-35.0","D3E5CC76D3C045988D3CB553AF5D1801","019cf816-b281-7be7-b31a-fe7943bce15a","019cf80d-4266-7117-8a51-54e13c84aca4","","null","
                <div class=""stimulus-container"">
                    <img src=""images/schematic_sequence/supermarket_scheme/supermarket_scheme_ten.png"" class=""exp-image"">
                    <div class=""question-area""></div> 
                </div>","null","","","","","","","","",""
"","","","","","html-button-response","36","257717","0.0-36.0","D3E5CC76D3C045988D3CB553AF5D1801","019cf816-b281-7be7-b31a-fe7943bce15a","019cf80d-4266-7117-8a51-54e13c84aca4","","1498","
                <div class=""stimulus-container"">
                    <img src=""images/schematic_sequence/supermarket_scheme/supermarket_scheme_ten.png"" class=""exp-image"">
                    <div class=""question-area"">
                        <p style=""font-size: 20px; font-weight: bold; margin: 0;"">Is there a person in this image?</p>
                    </div>
                </div>","1","main_experiment_trial","ten","supermarket_scheme","schematic_sequence","","","","",""
"","","","","","html-keyboard-response","37","258726","0.0-37.0","D3E5CC76D3C045988D3CB553AF5D1801","019cf816-b281-7be7-b31a-fe7943bce15a","019cf80d-4266-7117-8a51-54e13c84aca4","","null","<div style=""background-color: white; width: 100vw; height: 100vh;""></div>","null","","","","","","","","",""
"","","","","","html-keyboard-response","38","263739","0.0-38.0","D3E5CC76D3C045988D3CB553AF5D1801","019cf816-b281-7be7-b31a-fe7943bce15a","019cf80d-4266-7117-8a51-54e13c84aca4","","null","
                <div class=""stimulus-container"">
                    <img src=""images/schematic_sequence/dinner_party_scheme/dinner_party_scheme_1.png"" class=""exp-image"">
                    <div class=""question-area""></div> 
                </div>","null","","","","","","","","",""
"","","","","","html-button-response","39","264829","0.0-39.0","D3E5CC76D3C045988D3CB553AF5D1801","019cf816-b281-7be7-b31a-fe7943bce15a","019cf80d-4266-7117-8a51-54e13c84aca4","","1090","
                <div class=""stimulus-container"">
                    <img src=""images/schematic_sequence/dinner_party_scheme/dinner_party_scheme_1.png"" class=""exp-image"">
                    <div class=""question-area"">
                        <p style=""font-size: 20px; font-weight: bold; margin: 0;"">Is there a person in this image?</p>
                    </div>
                </div>","0","main_experiment_trial","1","dinner_party_scheme","schematic_sequence","","","","",""
"","","","","","html-keyboard-response","40","269832","0.0-40.0","D3E5CC76D3C045988D3CB553AF5D1801","019cf816-b281-7be7-b31a-fe7943bce15a","019cf80d-4266-7117-8a51-54e13c84aca4","","null","
                <div class=""stimulus-container"">
                    <img src=""images/schematic_sequence/dinner_party_scheme/dinner_party_scheme_2.png"" class=""exp-image"">
                    <div class=""question-area""></div> 
                </div>","null","","","","","","","","",""
"","","","","","html-button-response","41","270483","0.0-41.0","D3E5CC76D3C045988D3CB553AF5D1801","019cf816-b281-7be7-b31a-fe7943bce15a","019cf80d-4266-7117-8a51-54e13c84aca4","","651","
                <div class=""stimulus-container"">
                    <img src=""images/schematic_sequence/dinner_party_scheme/dinner_party_scheme_2.png"" class=""exp-image"">
                    <div class=""question-area"">
                        <p style=""font-size: 20px; font-weight: bold; margin: 0;"">Is there a person in this image?</p>
                    </div>
                </div>","0","main_experiment_trial","2","dinner_party_scheme","schematic_sequence","","","","",""
"","","","","","html-keyboard-response","42","275487","0.0-42.0","D3E5CC76D3C045988D3CB553AF5D1801","019cf816-b281-7be7-b31a-fe7943bce15a","019cf80d-4266-7117-8a51-54e13c84aca4","","null","
                <div class=""stimulus-container"">
                    <img src=""images/schematic_sequence/dinner_party_scheme/dinner_party_scheme_3.png"" class=""exp-image"">
                    <div class=""question-area""></div> 
                </div>","null","","","","","","","","",""
"","","","","","html-button-response","43","276119","0.0-43.0","D3E5CC76D3C045988D3CB553AF5D1801","019cf816-b281-7be7-b31a-fe7943bce15a","019cf80d-4266-7117-8a51-54e13c84aca4","","632","
                <div class=""stimulus-container"">
                    <img src=""images/schematic_sequence/dinner_party_scheme/dinner_party_scheme_3.png"" class=""exp-image"">
                    <div class=""question-area"">
                        <p style=""font-size: 20px; font-weight: bold; margin: 0;"">Is there a person in this image?</p>
                    </div>
                </div>","0","main_experiment_trial","3","dinner_party_scheme","schematic_sequence","","","","",""
"","","","","","html-keyboard-response","44","281120","0.0-44.0","D3E5CC76D3C045988D3CB553AF5D1801","019cf816-b281-7be7-b31a-fe7943bce15a","019cf80d-4266-7117-8a51-54e13c84aca4","","null","
                <div class=""stimulus-container"">
                    <img src=""images/schematic_sequence/dinner_party_scheme/dinner_party_scheme_4.png"" class=""exp-image"">
                    <div class=""question-area""></div> 
                </div>","null","","","","","","","","",""
"","","","","","html-button-response","45","282619","0.0-45.0","D3E5CC76D3C045988D3CB553AF5D1801","019cf816-b281-7be7-b31a-fe7943bce15a","019cf80d-4266-7117-8a51-54e13c84aca4","","1499","
                <div class=""stimulus-container"">
                    <img src=""images/schematic_sequence/dinner_party_scheme/dinner_party_scheme_4.png"" class=""exp-image"">
                    <div class=""question-area"">
                        <p style=""font-size: 20px; font-weight: bold; margin: 0;"">Is there a person in this image?</p>
                    </div>
                </div>","0","main_experiment_trial","4","dinner_party_scheme","schematic_sequence","","","","",""
"","","","","","html-keyboard-response","46","287636","0.0-46.0","D3E5CC76D3C045988D3CB553AF5D1801","019cf816-b281-7be7-b31a-fe7943bce15a","019cf80d-4266-7117-8a51-54e13c84aca4","","null","
                <div class=""stimulus-container"">
                    <img src=""images/schematic_sequence/dinner_party_scheme/dinner_party_scheme_5.png"" class=""exp-image"">
                    <div class=""question-area""></div> 
                </div>","null","","","","","","","","",""
"","","","","","html-button-response","47","288615","0.0-47.0","D3E5CC76D3C045988D3CB553AF5D1801","019cf816-b281-7be7-b31a-fe7943bce15a","019cf80d-4266-7117-8a51-54e13c84aca4","","978","
                <div class=""stimulus-container"">
                    <img src=""images/schematic_sequence/dinner_party_scheme/dinner_party_scheme_5.png"" class=""exp-image"">
                    <div class=""question-area"">
                        <p style=""font-size: 20px; font-weight: bold; margin: 0;"">Is there a person in this image?</p>
                    </div>
                </div>","0","main_experiment_trial","5","dinner_party_scheme","schematic_sequence","","","","",""
"","","","","","html-keyboard-response","48","293618","0.0-48.0","D3E5CC76D3C045988D3CB553AF5D1801","019cf816-b281-7be7-b31a-fe7943bce15a","019cf80d-4266-7117-8a51-54e13c84aca4","","null","
                <div class=""stimulus-container"">
                    <img src=""images/schematic_sequence/dinner_party_scheme/dinner_party_scheme_6.png"" class=""exp-image"">
                    <div class=""question-area""></div> 
                </div>","null","","","","","","","","",""
"","","","","","html-button-response","49","294317","0.0-49.0","D3E5CC76D3C045988D3CB553AF5D1801","019cf816-b281-7be7-b31a-fe7943bce15a","019cf80d-4266-7117-8a51-54e13c84aca4","","697","
                <div class=""stimulus-container"">
                    <img src=""images/schematic_sequence/dinner_party_scheme/dinner_party_scheme_6.png"" class=""exp-image"">
                    <div class=""question-area"">
                        <p style=""font-size: 20px; font-weight: bold; margin: 0;"">Is there a person in this image?</p>
                    </div>
                </div>","0","main_experiment_trial","6","dinner_party_scheme","schematic_sequence","","","","",""
"","","","","","html-keyboard-response","50","299321","0.0-50.0","D3E5CC76D3C045988D3CB553AF5D1801","019cf816-b281-7be7-b31a-fe7943bce15a","019cf80d-4266-7117-8a51-54e13c84aca4","","null","
                <div class=""stimulus-container"">
                    <img src=""images/schematic_sequence/dinner_party_scheme/dinner_party_scheme_7.png"" class=""exp-image"">
                    <div class=""question-area""></div> 
                </div>","null","","","","","","","","",""
"","","","","","html-button-response","51","299874","0.0-51.0","D3E5CC76D3C045988D3CB553AF5D1801","019cf816-b281-7be7-b31a-fe7943bce15a","019cf80d-4266-7117-8a51-54e13c84aca4","","553","
                <div class=""stimulus-container"">
                    <img src=""images/schematic_sequence/dinner_party_scheme/dinner_party_scheme_7.png"" class=""exp-image"">
                    <div class=""question-area"">
                        <p style=""font-size: 20px; font-weight: bold; margin: 0;"">Is there a person in this image?</p>
                    </div>
                </div>","0","main_experiment_trial","7","dinner_party_scheme","schematic_sequence","","","","",""
"","","","","","html-keyboard-response","52","304876","0.0-52.0","D3E5CC76D3C045988D3CB553AF5D1801","019cf816-b281-7be7-b31a-fe7943bce15a","019cf80d-4266-7117-8a51-54e13c84aca4","","null","
                <div class=""stimulus-container"">
                    <img src=""images/schematic_sequence/dinner_party_scheme/dinner_party_scheme_8.png"" class=""exp-image"">
                    <div class=""question-area""></div> 
                </div>","null","","","","","","","","",""
"","","","","","html-button-response","53","307627","0.0-53.0","D3E5CC76D3C045988D3CB553AF5D1801","019cf816-b281-7be7-b31a-fe7943bce15a","019cf80d-4266-7117-8a51-54e13c84aca4","","2751","
                <div class=""stimulus-container"">
                    <img src=""images/schematic_sequence/dinner_party_scheme/dinner_party_scheme_8.png"" class=""exp-image"">
                    <div class=""question-area"">
                        <p style=""font-size: 20px; font-weight: bold; margin: 0;"">Is there a person in this image?</p>
                    </div>
                </div>","0","main_experiment_trial","8","dinner_party_scheme","schematic_sequence","","","","",""
"","","","","","html-keyboard-response","54","312630","0.0-54.0","D3E5CC76D3C045988D3CB553AF5D1801","019cf816-b281-7be7-b31a-fe7943bce15a","019cf80d-4266-7117-8a51-54e13c84aca4","","null","
                <div class=""stimulus-container"">
                    <img src=""images/schematic_sequence/dinner_party_scheme/dinner_party_scheme_9.png"" class=""exp-image"">
                    <div class=""question-area""></div> 
                </div>","null","","","","","","","","",""
"","","","","","html-button-response","55","314364","0.0-55.0","D3E5CC76D3C045988D3CB553AF5D1801","019cf816-b281-7be7-b31a-fe7943bce15a","019cf80d-4266-7117-8a51-54e13c84aca4","","1734","
                <div class=""stimulus-container"">
                    <img src=""images/schematic_sequence/dinner_party_scheme/dinner_party_scheme_9.png"" class=""exp-image"">
                    <div class=""question-area"">
                        <p style=""font-size: 20px; font-weight: bold; margin: 0;"">Is there a person in this image?</p>
                    </div>
                </div>","0","main_experiment_trial","9","dinner_party_scheme","schematic_sequence","","","","",""
"","","","","","html-keyboard-response","56","319374","0.0-56.0","D3E5CC76D3C045988D3CB553AF5D1801","019cf816-b281-7be7-b31a-fe7943bce15a","019cf80d-4266-7117-8a51-54e13c84aca4","","null","
                <div class=""stimulus-container"">
                    <img src=""images/schematic_sequence/dinner_party_scheme/dinner_party_scheme_ten.png"" class=""exp-image"">
                    <div class=""question-area""></div> 
                </div>","null","","","","","","","","",""
"","","","","","html-button-response","57","322090","0.0-57.0","D3E5CC76D3C045988D3CB553AF5D1801","019cf816-b281-7be7-b31a-fe7943bce15a","019cf80d-4266-7117-8a51-54e13c84aca4","","2716","
                <div class=""stimulus-container"">
                    <img src=""images/schematic_sequence/dinner_party_scheme/dinner_party_scheme_ten.png"" class=""exp-image"">
                    <div class=""question-area"">
                        <p style=""font-size: 20px; font-weight: bold; margin: 0;"">Is there a person in this image?</p>
                    </div>
                </div>","0","main_experiment_trial","ten","dinner_party_scheme","schematic_sequence","","","","",""
"","","","","","html-keyboard-response","58","323098","0.0-58.0","D3E5CC76D3C045988D3CB553AF5D1801","019cf816-b281-7be7-b31a-fe7943bce15a","019cf80d-4266-7117-8a51-54e13c84aca4","","null","<div style=""background-color: white; width: 100vw; height: 100vh;""></div>","null","","","","","","","","",""
"","","","","","html-keyboard-response","59","328105","0.0-59.0","D3E5CC76D3C045988D3CB553AF5D1801","019cf816-b281-7be7-b31a-fe7943bce15a","019cf80d-4266-7117-8a51-54e13c84aca4","","null","
                <div class=""stimulus-container"">
                    <img src=""images/schematic_sequence/restaurant_scheme/restaurant_scheme_1.png"" class=""exp-image"">
                    <div class=""question-area""></div> 
                </div>","null","","","","","","","","",""
"","","","","","html-button-response","60","329793","0.0-60.0","D3E5CC76D3C045988D3CB553AF5D1801","019cf816-b281-7be7-b31a-fe7943bce15a","019cf80d-4266-7117-8a51-54e13c84aca4","","1687","
                <div class=""stimulus-container"">
                    <img src=""images/schematic_sequence/restaurant_scheme/restaurant_scheme_1.png"" class=""exp-image"">
                    <div class=""question-area"">
                        <p style=""font-size: 20px; font-weight: bold; margin: 0;"">Is there a person in this image?</p>
                    </div>
                </div>","0","main_experiment_trial","1","restaurant_scheme","schematic_sequence","","","","",""
"","","","","","html-keyboard-response","61","334796","0.0-61.0","D3E5CC76D3C045988D3CB553AF5D1801","019cf816-b281-7be7-b31a-fe7943bce15a","019cf80d-4266-7117-8a51-54e13c84aca4","","null","
                <div class=""stimulus-container"">
                    <img src=""images/schematic_sequence/restaurant_scheme/restaurant_scheme_2.png"" class=""exp-image"">
                    <div class=""question-area""></div> 
                </div>","null","","","","","","","","",""
"","","","","","html-button-response","62","336778","0.0-62.0","D3E5CC76D3C045988D3CB553AF5D1801","019cf816-b281-7be7-b31a-fe7943bce15a","019cf80d-4266-7117-8a51-54e13c84aca4","","1981","
                <div class=""stimulus-container"">
                    <img src=""images/schematic_sequence/restaurant_scheme/restaurant_scheme_2.png"" class=""exp-image"">
                    <div class=""question-area"">
                        <p style=""font-size: 20px; font-weight: bold; margin: 0;"">Is there a person in this image?</p>
                    </div>
                </div>","1","main_experiment_trial","2","restaurant_scheme","schematic_sequence","","","","",""
"","","","","","html-keyboard-response","63","341784","0.0-63.0","D3E5CC76D3C045988D3CB553AF5D1801","019cf816-b281-7be7-b31a-fe7943bce15a","019cf80d-4266-7117-8a51-54e13c84aca4","","null","
                <div class=""stimulus-container"">
                    <img src=""images/schematic_sequence/restaurant_scheme/restaurant_scheme_3.png"" class=""exp-image"">
                    <div class=""question-area""></div> 
                </div>","null","","","","","","","","",""
"","","","","","html-button-response","64","343804","0.0-64.0","D3E5CC76D3C045988D3CB553AF5D1801","019cf816-b281-7be7-b31a-fe7943bce15a","019cf80d-4266-7117-8a51-54e13c84aca4","","2020","
                <div class=""stimulus-container"">
                    <img src=""images/schematic_sequence/restaurant_scheme/restaurant_scheme_3.png"" class=""exp-image"">
                    <div class=""question-area"">
                        <p style=""font-size: 20px; font-weight: bold; margin: 0;"">Is there a person in this image?</p>
                    </div>
                </div>","1","main_experiment_trial","3","restaurant_scheme","schematic_sequence","","","","",""
"","","","","","html-keyboard-response","65","348814","0.0-65.0","D3E5CC76D3C045988D3CB553AF5D1801","019cf816-b281-7be7-b31a-fe7943bce15a","019cf80d-4266-7117-8a51-54e13c84aca4","","null","
                <div class=""stimulus-container"">
                    <img src=""images/schematic_sequence/restaurant_scheme/restaurant_scheme_4.png"" class=""exp-image"">
                    <div class=""question-area""></div> 
                </div>","null","","","","","","","","",""
"","","","","","html-button-response","66","350619","0.0-66.0","D3E5CC76D3C045988D3CB553AF5D1801","019cf816-b281-7be7-b31a-fe7943bce15a","019cf80d-4266-7117-8a51-54e13c84aca4","","1805","
                <div class=""stimulus-container"">
                    <img src=""images/schematic_sequence/restaurant_scheme/restaurant_scheme_4.png"" class=""exp-image"">
                    <div class=""question-area"">
                        <p style=""font-size: 20px; font-weight: bold; margin: 0;"">Is there a person in this image?</p>
                    </div>
                </div>","0","main_experiment_trial","4","restaurant_scheme","schematic_sequence","","","","",""
"","","","","","html-keyboard-response","67","355623","0.0-67.0","D3E5CC76D3C045988D3CB553AF5D1801","019cf816-b281-7be7-b31a-fe7943bce15a","019cf80d-4266-7117-8a51-54e13c84aca4","","null","
                <div class=""stimulus-container"">
                    <img src=""images/schematic_sequence/restaurant_scheme/restaurant_scheme_5.png"" class=""exp-image"">
                    <div class=""question-area""></div> 
                </div>","null","","","","","","","","",""
"","","","","","html-button-response","68","357017","0.0-68.0","D3E5CC76D3C045988D3CB553AF5D1801","019cf816-b281-7be7-b31a-fe7943bce15a","019cf80d-4266-7117-8a51-54e13c84aca4","","1393","
                <div class=""stimulus-container"">
                    <img src=""images/schematic_sequence/restaurant_scheme/restaurant_scheme_5.png"" class=""exp-image"">
                    <div class=""question-area"">
                        <p style=""font-size: 20px; font-weight: bold; margin: 0;"">Is there a person in this image?</p>
                    </div>
                </div>","0","main_experiment_trial","5","restaurant_scheme","schematic_sequence","","","","",""
"","","","","","html-keyboard-response","69","362029","0.0-69.0","D3E5CC76D3C045988D3CB553AF5D1801","019cf816-b281-7be7-b31a-fe7943bce15a","019cf80d-4266-7117-8a51-54e13c84aca4","","null","
                <div class=""stimulus-container"">
                    <img src=""images/schematic_sequence/restaurant_scheme/restaurant_scheme_6.png"" class=""exp-image"">
                    <div class=""question-area""></div> 
                </div>","null","","","","","","","","",""
"","","","","","html-button-response","70","363251","0.0-70.0","D3E5CC76D3C045988D3CB553AF5D1801","019cf816-b281-7be7-b31a-fe7943bce15a","019cf80d-4266-7117-8a51-54e13c84aca4","","1222","
                <div class=""stimulus-container"">
                    <img src=""images/schematic_sequence/restaurant_scheme/restaurant_scheme_6.png"" class=""exp-image"">
                    <div class=""question-area"">
                        <p style=""font-size: 20px; font-weight: bold; margin: 0;"">Is there a person in this image?</p>
                    </div>
                </div>","1","main_experiment_trial","6","restaurant_scheme","schematic_sequence","","","","",""
"","","","","","html-keyboard-response","71","368254","0.0-71.0","D3E5CC76D3C045988D3CB553AF5D1801","019cf816-b281-7be7-b31a-fe7943bce15a","019cf80d-4266-7117-8a51-54e13c84aca4","","null","
                <div class=""stimulus-container"">
                    <img src=""images/schematic_sequence/restaurant_scheme/restaurant_scheme_7.png"" class=""exp-image"">
                    <div class=""question-area""></div> 
                </div>","null","","","","","","","","",""
"","","","","","html-button-response","72","369926","0.0-72.0","D3E5CC76D3C045988D3CB553AF5D1801","019cf816-b281-7be7-b31a-fe7943bce15a","019cf80d-4266-7117-8a51-54e13c84aca4","","1671","
                <div class=""stimulus-container"">
                    <img src=""images/schematic_sequence/restaurant_scheme/restaurant_scheme_7.png"" class=""exp-image"">
                    <div class=""question-area"">
                        <p style=""font-size: 20px; font-weight: bold; margin: 0;"">Is there a person in this image?</p>
                    </div>
                </div>","1","main_experiment_trial","7","restaurant_scheme","schematic_sequence","","","","",""
"","","","","","html-keyboard-response","73","374926","0.0-73.0","D3E5CC76D3C045988D3CB553AF5D1801","019cf816-b281-7be7-b31a-fe7943bce15a","019cf80d-4266-7117-8a51-54e13c84aca4","","null","
                <div class=""stimulus-container"">
                    <img src=""images/schematic_sequence/restaurant_scheme/restaurant_scheme_8.png"" class=""exp-image"">
                    <div class=""question-area""></div> 
                </div>","null","","","","","","","","",""
"","","","","","html-button-response","74","376783","0.0-74.0","D3E5CC76D3C045988D3CB553AF5D1801","019cf816-b281-7be7-b31a-fe7943bce15a","019cf80d-4266-7117-8a51-54e13c84aca4","","1856","
                <div class=""stimulus-container"">
                    <img src=""images/schematic_sequence/restaurant_scheme/restaurant_scheme_8.png"" class=""exp-image"">
                    <div class=""question-area"">
                        <p style=""font-size: 20px; font-weight: bold; margin: 0;"">Is there a person in this image?</p>
                    </div>
                </div>","0","main_experiment_trial","8","restaurant_scheme","schematic_sequence","","","","",""
"","","","","","html-keyboard-response","75","381785","0.0-75.0","D3E5CC76D3C045988D3CB553AF5D1801","019cf816-b281-7be7-b31a-fe7943bce15a","019cf80d-4266-7117-8a51-54e13c84aca4","","null","
                <div class=""stimulus-container"">
                    <img src=""images/schematic_sequence/restaurant_scheme/restaurant_scheme_9.png"" class=""exp-image"">
                    <div class=""question-area""></div> 
                </div>","null","","","","","","","","",""
"","","","","","html-button-response","76","382167","0.0-76.0","D3E5CC76D3C045988D3CB553AF5D1801","019cf816-b281-7be7-b31a-fe7943bce15a","019cf80d-4266-7117-8a51-54e13c84aca4","","381","
                <div class=""stimulus-container"">
                    <img src=""images/schematic_sequence/restaurant_scheme/restaurant_scheme_9.png"" class=""exp-image"">
                    <div class=""question-area"">
                        <p style=""font-size: 20px; font-weight: bold; margin: 0;"">Is there a person in this image?</p>
                    </div>
                </div>","0","main_experiment_trial","9","restaurant_scheme","schematic_sequence","","","","",""
"","","","","","html-keyboard-response","77","387177","0.0-77.0","D3E5CC76D3C045988D3CB553AF5D1801","019cf816-b281-7be7-b31a-fe7943bce15a","019cf80d-4266-7117-8a51-54e13c84aca4","","null","
                <div class=""stimulus-container"">
                    <img src=""images/schematic_sequence/restaurant_scheme/restaurant_scheme_ten.png"" class=""exp-image"">
                    <div class=""question-area""></div> 
                </div>","null","","","","","","","","",""
"","","","","","html-button-response","78","388081","0.0-78.0","D3E5CC76D3C045988D3CB553AF5D1801","019cf816-b281-7be7-b31a-fe7943bce15a","019cf80d-4266-7117-8a51-54e13c84aca4","","904","
                <div class=""stimulus-container"">
                    <img src=""images/schematic_sequence/restaurant_scheme/restaurant_scheme_ten.png"" class=""exp-image"">
                    <div class=""question-area"">
                        <p style=""font-size: 20px; font-weight: bold; margin: 0;"">Is there a person in this image?</p>
                    </div>
                </div>","0","main_experiment_trial","ten","restaurant_scheme","schematic_sequence","","","","",""
"","","","","","html-keyboard-response","79","389092","0.0-79.0","D3E5CC76D3C045988D3CB553AF5D1801","019cf816-b281-7be7-b31a-fe7943bce15a","019cf80d-4266-7117-8a51-54e13c84aca4","","null","<div style=""background-color: white; width: 100vw; height: 100vh;""></div>","null","","","","","","","","",""
"","","","","","html-keyboard-response","80","394099","0.0-80.0","D3E5CC76D3C045988D3CB553AF5D1801","019cf816-b281-7be7-b31a-fe7943bce15a","019cf80d-4266-7117-8a51-54e13c84aca4","","null","
                <div class=""stimulus-container"">
                    <img src=""images/semantic_sequence/exploring_nature_semantic/exploring_nature_semantic_1.png"" class=""exp-image"">
                    <div class=""question-area""></div> 
                </div>","null","","","","","","","","",""
"","","","","","html-button-response","81","394907","0.0-81.0","D3E5CC76D3C045988D3CB553AF5D1801","019cf816-b281-7be7-b31a-fe7943bce15a","019cf80d-4266-7117-8a51-54e13c84aca4","","807","
                <div class=""stimulus-container"">
                    <img src=""images/semantic_sequence/exploring_nature_semantic/exploring_nature_semantic_1.png"" class=""exp-image"">
                    <div class=""question-area"">
                        <p style=""font-size: 20px; font-weight: bold; margin: 0;"">Is there a person in this image?</p>
                    </div>
                </div>","0","main_experiment_trial","1","exploring_nature_semantic","semantic_sequence","","","","",""
"","","","","","html-keyboard-response","82","399919","0.0-82.0","D3E5CC76D3C045988D3CB553AF5D1801","019cf816-b281-7be7-b31a-fe7943bce15a","019cf80d-4266-7117-8a51-54e13c84aca4","","null","
                <div class=""stimulus-container"">
                    <img src=""images/semantic_sequence/exploring_nature_semantic/exploring_nature_semantic_2.png"" class=""exp-image"">
                    <div class=""question-area""></div> 
                </div>","null","","","","","","","","",""
"","","","","","html-button-response","83","401131","0.0-83.0","D3E5CC76D3C045988D3CB553AF5D1801","019cf816-b281-7be7-b31a-fe7943bce15a","019cf80d-4266-7117-8a51-54e13c84aca4","","1211","
                <div class=""stimulus-container"">
                    <img src=""images/semantic_sequence/exploring_nature_semantic/exploring_nature_semantic_2.png"" class=""exp-image"">
                    <div class=""question-area"">
                        <p style=""font-size: 20px; font-weight: bold; margin: 0;"">Is there a person in this image?</p>
                    </div>
                </div>","0","main_experiment_trial","2","exploring_nature_semantic","semantic_sequence","","","","",""
"","","","","","html-keyboard-response","84","406159","0.0-84.0","D3E5CC76D3C045988D3CB553AF5D1801","019cf816-b281-7be7-b31a-fe7943bce15a","019cf80d-4266-7117-8a51-54e13c84aca4","","null","
                <div class=""stimulus-container"">
                    <img src=""images/semantic_sequence/exploring_nature_semantic/exploring_nature_semantic_3.png"" class=""exp-image"">
                    <div class=""question-area""></div> 
                </div>","null","","","","","","","","",""
"","","","","","html-button-response","85","409175","0.0-85.0","D3E5CC76D3C045988D3CB553AF5D1801","019cf816-b281-7be7-b31a-fe7943bce15a","019cf80d-4266-7117-8a51-54e13c84aca4","","null","
                <div class=""stimulus-container"">
                    <img src=""images/semantic_sequence/exploring_nature_semantic/exploring_nature_semantic_3.png"" class=""exp-image"">
                    <div class=""question-area"">
                        <p style=""font-size: 20px; font-weight: bold; margin: 0;"">Is there a person in this image?</p>
                    </div>
                </div>","null","main_experiment_trial","3","exploring_nature_semantic","semantic_sequence","","","","",""
"","","","","","html-keyboard-response","86","414186","0.0-86.0","D3E5CC76D3C045988D3CB553AF5D1801","019cf816-b281-7be7-b31a-fe7943bce15a","019cf80d-4266-7117-8a51-54e13c84aca4","","null","
                <div class=""stimulus-container"">
                    <img src=""images/semantic_sequence/exploring_nature_semantic/exploring_nature_semantic_4.png"" class=""exp-image"">
                    <div class=""question-area""></div> 
                </div>","null","","","","","","","","",""
"","","","","","html-button-response","87","414930","0.0-87.0","D3E5CC76D3C045988D3CB553AF5D1801","019cf816-b281-7be7-b31a-fe7943bce15a","019cf80d-4266-7117-8a51-54e13c84aca4","","744","
                <div class=""stimulus-container"">
                    <img src=""images/semantic_sequence/exploring_nature_semantic/exploring_nature_semantic_4.png"" class=""exp-image"">
                    <div class=""question-area"">
                        <p style=""font-size: 20px; font-weight: bold; margin: 0;"">Is there a person in this image?</p>
                    </div>
                </div>","0","main_experiment_trial","4","exploring_nature_semantic","semantic_sequence","","","","",""
"","","","","","html-keyboard-response","88","419944","0.0-88.0","D3E5CC76D3C045988D3CB553AF5D1801","019cf816-b281-7be7-b31a-fe7943bce15a","019cf80d-4266-7117-8a51-54e13c84aca4","","null","
                <div class=""stimulus-container"">
                    <img src=""images/semantic_sequence/exploring_nature_semantic/exploring_nature_semantic_5.png"" class=""exp-image"">
                    <div class=""question-area""></div> 
                </div>","null","","","","","","","","",""
"","","","","","html-button-response","89","422869","0.0-89.0","D3E5CC76D3C045988D3CB553AF5D1801","019cf816-b281-7be7-b31a-fe7943bce15a","019cf80d-4266-7117-8a51-54e13c84aca4","","2925","
                <div class=""stimulus-container"">
                    <img src=""images/semantic_sequence/exploring_nature_semantic/exploring_nature_semantic_5.png"" class=""exp-image"">
                    <div class=""question-area"">
                        <p style=""font-size: 20px; font-weight: bold; margin: 0;"">Is there a person in this image?</p>
                    </div>
                </div>","0","main_experiment_trial","5","exploring_nature_semantic","semantic_sequence","","","","",""
"","","","","","html-keyboard-response","90","427871","0.0-90.0","D3E5CC76D3C045988D3CB553AF5D1801","019cf816-b281-7be7-b31a-fe7943bce15a","019cf80d-4266-7117-8a51-54e13c84aca4","","null","
                <div class=""stimulus-container"">
                    <img src=""images/semantic_sequence/exploring_nature_semantic/exploring_nature_semantic_6.png"" class=""exp-image"">
                    <div class=""question-area""></div> 
                </div>","null","","","","","","","","",""
"","","","","","html-button-response","91","430297","0.0-91.0","D3E5CC76D3C045988D3CB553AF5D1801","019cf816-b281-7be7-b31a-fe7943bce15a","019cf80d-4266-7117-8a51-54e13c84aca4","","2426","
                <div class=""stimulus-container"">
                    <img src=""images/semantic_sequence/exploring_nature_semantic/exploring_nature_semantic_6.png"" class=""exp-image"">
                    <div class=""question-area"">
                        <p style=""font-size: 20px; font-weight: bold; margin: 0;"">Is there a person in this image?</p>
                    </div>
                </div>","0","main_experiment_trial","6","exploring_nature_semantic","semantic_sequence","","","","",""
"","","","","","html-keyboard-response","92","435309","0.0-92.0","D3E5CC76D3C045988D3CB553AF5D1801","019cf816-b281-7be7-b31a-fe7943bce15a","019cf80d-4266-7117-8a51-54e13c84aca4","","null","
                <div class=""stimulus-container"">
                    <img src=""images/semantic_sequence/exploring_nature_semantic/exploring_nature_semantic_7.png"" class=""exp-image"">
                    <div class=""question-area""></div> 
                </div>","null","","","","","","","","",""
"","","","","","html-button-response","93","436297","0.0-93.0","D3E5CC76D3C045988D3CB553AF5D1801","019cf816-b281-7be7-b31a-fe7943bce15a","019cf80d-4266-7117-8a51-54e13c84aca4","","986","
                <div class=""stimulus-container"">
                    <img src=""images/semantic_sequence/exploring_nature_semantic/exploring_nature_semantic_7.png"" class=""exp-image"">
                    <div class=""question-area"">
                        <p style=""font-size: 20px; font-weight: bold; margin: 0;"">Is there a person in this image?</p>
                    </div>
                </div>","0","main_experiment_trial","7","exploring_nature_semantic","semantic_sequence","","","","",""
"","","","","","html-keyboard-response","94","441313","0.0-94.0","D3E5CC76D3C045988D3CB553AF5D1801","019cf816-b281-7be7-b31a-fe7943bce15a","019cf80d-4266-7117-8a51-54e13c84aca4","","null","
                <div class=""stimulus-container"">
                    <img src=""images/semantic_sequence/exploring_nature_semantic/exploring_nature_semantic_8.png"" class=""exp-image"">
                    <div class=""question-area""></div> 
                </div>","null","","","","","","","","",""
"","","","","","html-button-response","95","441991","0.0-95.0","D3E5CC76D3C045988D3CB553AF5D1801","019cf816-b281-7be7-b31a-fe7943bce15a","019cf80d-4266-7117-8a51-54e13c84aca4","","678","
                <div class=""stimulus-container"">
                    <img src=""images/semantic_sequence/exploring_nature_semantic/exploring_nature_semantic_8.png"" class=""exp-image"">
                    <div class=""question-area"">
                        <p style=""font-size: 20px; font-weight: bold; margin: 0;"">Is there a person in this image?</p>
                    </div>
                </div>","0","main_experiment_trial","8","exploring_nature_semantic","semantic_sequence","","","","",""
"","","","","","html-keyboard-response","96","446998","0.0-96.0","D3E5CC76D3C045988D3CB553AF5D1801","019cf816-b281-7be7-b31a-fe7943bce15a","019cf80d-4266-7117-8a51-54e13c84aca4","","null","
                <div class=""stimulus-container"">
                    <img src=""images/semantic_sequence/exploring_nature_semantic/exploring_nature_semantic_9.png"" class=""exp-image"">
                    <div class=""question-area""></div> 
                </div>","null","","","","","","","","",""
"","","","","","html-button-response","97","447454","0.0-97.0","D3E5CC76D3C045988D3CB553AF5D1801","019cf816-b281-7be7-b31a-fe7943bce15a","019cf80d-4266-7117-8a51-54e13c84aca4","","456","
                <div class=""stimulus-container"">
                    <img src=""images/semantic_sequence/exploring_nature_semantic/exploring_nature_semantic_9.png"" class=""exp-image"">
                    <div class=""question-area"">
                        <p style=""font-size: 20px; font-weight: bold; margin: 0;"">Is there a person in this image?</p>
                    </div>
                </div>","0","main_experiment_trial","9","exploring_nature_semantic","semantic_sequence","","","","",""
"","","","","","html-keyboard-response","98","452464","0.0-98.0","D3E5CC76D3C045988D3CB553AF5D1801","019cf816-b281-7be7-b31a-fe7943bce15a","019cf80d-4266-7117-8a51-54e13c84aca4","","null","
                <div class=""stimulus-container"">
                    <img src=""images/semantic_sequence/exploring_nature_semantic/exploring_nature_semantic_ten.png"" class=""exp-image"">
                    <div class=""question-area""></div> 
                </div>","null","","","","","","","","",""
"","","","","","html-button-response","99","455470","0.0-99.0","D3E5CC76D3C045988D3CB553AF5D1801","019cf816-b281-7be7-b31a-fe7943bce15a","019cf80d-4266-7117-8a51-54e13c84aca4","","null","
                <div class=""stimulus-container"">
                    <img src=""images/semantic_sequence/exploring_nature_semantic/exploring_nature_semantic_ten.png"" class=""exp-image"">
                    <div class=""question-area"">
                        <p style=""font-size: 20px; font-weight: bold; margin: 0;"">Is there a person in this image?</p>
                    </div>
                </div>","null","main_experiment_trial","ten","exploring_nature_semantic","semantic_sequence","","","","",""
"","","","","","html-keyboard-response","100","456481","0.0-100.0","D3E5CC76D3C045988D3CB553AF5D1801","019cf816-b281-7be7-b31a-fe7943bce15a","019cf80d-4266-7117-8a51-54e13c84aca4","","null","<div style=""background-color: white; width: 100vw; height: 100vh;""></div>","null","","","","","","","","",""
"","","","","","html-keyboard-response","101","461486","0.0-101.0","D3E5CC76D3C045988D3CB553AF5D1801","019cf816-b281-7be7-b31a-fe7943bce15a","019cf80d-4266-7117-8a51-54e13c84aca4","","null","
                <div class=""stimulus-container"">
                    <img src=""images/schematic_sequence/hotel_scheme/hotel_scheme_1.png"" class=""exp-image"">
                    <div class=""question-area""></div> 
                </div>","null","","","","","","","","",""
"","","","","","html-button-response","102","462359","0.0-102.0","D3E5CC76D3C045988D3CB553AF5D1801","019cf816-b281-7be7-b31a-fe7943bce15a","019cf80d-4266-7117-8a51-54e13c84aca4","","873","
                <div class=""stimulus-container"">
                    <img src=""images/schematic_sequence/hotel_scheme/hotel_scheme_1.png"" class=""exp-image"">
                    <div class=""question-area"">
                        <p style=""font-size: 20px; font-weight: bold; margin: 0;"">Is there a person in this image?</p>
                    </div>
                </div>","1","main_experiment_trial","1","hotel_scheme","schematic_sequence","","","","",""
"","","","","","html-keyboard-response","103","467373","0.0-103.0","D3E5CC76D3C045988D3CB553AF5D1801","019cf816-b281-7be7-b31a-fe7943bce15a","019cf80d-4266-7117-8a51-54e13c84aca4","","null","
                <div class=""stimulus-container"">
                    <img src=""images/schematic_sequence/hotel_scheme/hotel_scheme_2.png"" class=""exp-image"">
                    <div class=""question-area""></div> 
                </div>","null","","","","","","","","",""
"","","","","","html-button-response","104","468041","0.0-104.0","D3E5CC76D3C045988D3CB553AF5D1801","019cf816-b281-7be7-b31a-fe7943bce15a","019cf80d-4266-7117-8a51-54e13c84aca4","","668","
                <div class=""stimulus-container"">
                    <img src=""images/schematic_sequence/hotel_scheme/hotel_scheme_2.png"" class=""exp-image"">
                    <div class=""question-area"">
                        <p style=""font-size: 20px; font-weight: bold; margin: 0;"">Is there a person in this image?</p>
                    </div>
                </div>","0","main_experiment_trial","2","hotel_scheme","schematic_sequence","","","","",""
"","","","","","html-keyboard-response","105","473048","0.0-105.0","D3E5CC76D3C045988D3CB553AF5D1801","019cf816-b281-7be7-b31a-fe7943bce15a","019cf80d-4266-7117-8a51-54e13c84aca4","","null","
                <div class=""stimulus-container"">
                    <img src=""images/schematic_sequence/hotel_scheme/hotel_scheme_3.png"" class=""exp-image"">
                    <div class=""question-area""></div> 
                </div>","null","","","","","","","","",""
"","","","","","html-button-response","106","473803","0.0-106.0","D3E5CC76D3C045988D3CB553AF5D1801","019cf816-b281-7be7-b31a-fe7943bce15a","019cf80d-4266-7117-8a51-54e13c84aca4","","754","
                <div class=""stimulus-container"">
                    <img src=""images/schematic_sequence/hotel_scheme/hotel_scheme_3.png"" class=""exp-image"">
                    <div class=""question-area"">
                        <p style=""font-size: 20px; font-weight: bold; margin: 0;"">Is there a person in this image?</p>
                    </div>
                </div>","0","main_experiment_trial","3","hotel_scheme","schematic_sequence","","","","",""
"","","","","","html-keyboard-response","107","478804","0.0-107.0","D3E5CC76D3C045988D3CB553AF5D1801","019cf816-b281-7be7-b31a-fe7943bce15a","019cf80d-4266-7117-8a51-54e13c84aca4","","null","
                <div class=""stimulus-container"">
                    <img src=""images/schematic_sequence/hotel_scheme/hotel_scheme_4.png"" class=""exp-image"">
                    <div class=""question-area""></div> 
                </div>","null","","","","","","","","",""
"","","","","","html-button-response","108","480919","0.0-108.0","D3E5CC76D3C045988D3CB553AF5D1801","019cf816-b281-7be7-b31a-fe7943bce15a","019cf80d-4266-7117-8a51-54e13c84aca4","","2115","
                <div class=""stimulus-container"">
                    <img src=""images/schematic_sequence/hotel_scheme/hotel_scheme_4.png"" class=""exp-image"">
                    <div class=""question-area"">
                        <p style=""font-size: 20px; font-weight: bold; margin: 0;"">Is there a person in this image?</p>
                    </div>
                </div>","1","main_experiment_trial","4","hotel_scheme","schematic_sequence","","","","",""
"","","","","","html-keyboard-response","109","485928","0.0-109.0","D3E5CC76D3C045988D3CB553AF5D1801","019cf816-b281-7be7-b31a-fe7943bce15a","019cf80d-4266-7117-8a51-54e13c84aca4","","null","
                <div class=""stimulus-container"">
                    <img src=""images/schematic_sequence/hotel_scheme/hotel_scheme_5.png"" class=""exp-image"">
                    <div class=""question-area""></div> 
                </div>","null","","","","","","","","",""
"","","","","","html-button-response","110","486660","0.0-110.0","D3E5CC76D3C045988D3CB553AF5D1801","019cf816-b281-7be7-b31a-fe7943bce15a","019cf80d-4266-7117-8a51-54e13c84aca4","","732","
                <div class=""stimulus-container"">
                    <img src=""images/schematic_sequence/hotel_scheme/hotel_scheme_5.png"" class=""exp-image"">
                    <div class=""question-area"">
                        <p style=""font-size: 20px; font-weight: bold; margin: 0;"">Is there a person in this image?</p>
                    </div>
                </div>","0","main_experiment_trial","5","hotel_scheme","schematic_sequence","","","","",""
"","","","","","html-keyboard-response","111","491669","0.0-111.0","D3E5CC76D3C045988D3CB553AF5D1801","019cf816-b281-7be7-b31a-fe7943bce15a","019cf80d-4266-7117-8a51-54e13c84aca4","","null","
                <div class=""stimulus-container"">
                    <img src=""images/schematic_sequence/hotel_scheme/hotel_scheme_6.png"" class=""exp-image"">
                    <div class=""question-area""></div> 
                </div>","null","","","","","","","","",""
"","","","","","html-button-response","112","492343","0.0-112.0","D3E5CC76D3C045988D3CB553AF5D1801","019cf816-b281-7be7-b31a-fe7943bce15a","019cf80d-4266-7117-8a51-54e13c84aca4","","673","
                <div class=""stimulus-container"">
                    <img src=""images/schematic_sequence/hotel_scheme/hotel_scheme_6.png"" class=""exp-image"">
                    <div class=""question-area"">
                        <p style=""font-size: 20px; font-weight: bold; margin: 0;"">Is there a person in this image?</p>
                    </div>
                </div>","0","main_experiment_trial","6","hotel_scheme","schematic_sequence","","","","",""
"","","","","","html-keyboard-response","113","497350","0.0-113.0","D3E5CC76D3C045988D3CB553AF5D1801","019cf816-b281-7be7-b31a-fe7943bce15a","019cf80d-4266-7117-8a51-54e13c84aca4","","null","
                <div class=""stimulus-container"">
                    <img src=""images/schematic_sequence/hotel_scheme/hotel_scheme_7.png"" class=""exp-image"">
                    <div class=""question-area""></div> 
                </div>","null","","","","","","","","",""
"","","","","","html-button-response","114","498316","0.0-114.0","D3E5CC76D3C045988D3CB553AF5D1801","019cf816-b281-7be7-b31a-fe7943bce15a","019cf80d-4266-7117-8a51-54e13c84aca4","","965","
                <div class=""stimulus-container"">
                    <img src=""images/schematic_sequence/hotel_scheme/hotel_scheme_7.png"" class=""exp-image"">
                    <div class=""question-area"">
                        <p style=""font-size: 20px; font-weight: bold; margin: 0;"">Is there a person in this image?</p>
                    </div>
                </div>","0","main_experiment_trial","7","hotel_scheme","schematic_sequence","","","","",""
"","","","","","html-keyboard-response","115","503328","0.0-115.0","D3E5CC76D3C045988D3CB553AF5D1801","019cf816-b281-7be7-b31a-fe7943bce15a","019cf80d-4266-7117-8a51-54e13c84aca4","","null","
                <div class=""stimulus-container"">
                    <img src=""images/schematic_sequence/hotel_scheme/hotel_scheme_8.png"" class=""exp-image"">
                    <div class=""question-area""></div> 
                </div>","null","","","","","","","","",""
"","","","","","html-button-response","116","504124","0.0-116.0","D3E5CC76D3C045988D3CB553AF5D1801","019cf816-b281-7be7-b31a-fe7943bce15a","019cf80d-4266-7117-8a51-54e13c84aca4","","796","
                <div class=""stimulus-container"">
                    <img src=""images/schematic_sequence/hotel_scheme/hotel_scheme_8.png"" class=""exp-image"">
                    <div class=""question-area"">
                        <p style=""font-size: 20px; font-weight: bold; margin: 0;"">Is there a person in this image?</p>
                    </div>
                </div>","0","main_experiment_trial","8","hotel_scheme","schematic_sequence","","","","",""
"","","","","","html-keyboard-response","117","509137","0.0-117.0","D3E5CC76D3C045988D3CB553AF5D1801","019cf816-b281-7be7-b31a-fe7943bce15a","019cf80d-4266-7117-8a51-54e13c84aca4","","null","
                <div class=""stimulus-container"">
                    <img src=""images/schematic_sequence/hotel_scheme/hotel_scheme_9.png"" class=""exp-image"">
                    <div class=""question-area""></div> 
                </div>","null","","","","","","","","",""
"","","","","","html-button-response","118","509893","0.0-118.0","D3E5CC76D3C045988D3CB553AF5D1801","019cf816-b281-7be7-b31a-fe7943bce15a","019cf80d-4266-7117-8a51-54e13c84aca4","","756","
                <div class=""stimulus-container"">
                    <img src=""images/schematic_sequence/hotel_scheme/hotel_scheme_9.png"" class=""exp-image"">
                    <div class=""question-area"">
                        <p style=""font-size: 20px; font-weight: bold; margin: 0;"">Is there a person in this image?</p>
                    </div>
                </div>","0","main_experiment_trial","9","hotel_scheme","schematic_sequence","","","","",""
"","","","","","html-keyboard-response","119","514903","0.0-119.0","D3E5CC76D3C045988D3CB553AF5D1801","019cf816-b281-7be7-b31a-fe7943bce15a","019cf80d-4266-7117-8a51-54e13c84aca4","","null","
                <div class=""stimulus-container"">
                    <img src=""images/schematic_sequence/hotel_scheme/hotel_scheme_ten.png"" class=""exp-image"">
                    <div class=""question-area""></div> 
                </div>","null","","","","","","","","",""
"","","","","","html-button-response","120","517918","0.0-120.0","D3E5CC76D3C045988D3CB553AF5D1801","019cf816-b281-7be7-b31a-fe7943bce15a","019cf80d-4266-7117-8a51-54e13c84aca4","","null","
                <div class=""stimulus-container"">
                    <img src=""images/schematic_sequence/hotel_scheme/hotel_scheme_ten.png"" class=""exp-image"">
                    <div class=""question-area"">
                        <p style=""font-size: 20px; font-weight: bold; margin: 0;"">Is there a person in this image?</p>
                    </div>
                </div>","null","main_experiment_trial","ten","hotel_scheme","schematic_sequence","","","","",""
"","","","","","html-keyboard-response","121","518924","0.0-121.0","D3E5CC76D3C045988D3CB553AF5D1801","019cf816-b281-7be7-b31a-fe7943bce15a","019cf80d-4266-7117-8a51-54e13c84aca4","","null","<div style=""background-color: white; width: 100vw; height: 100vh;""></div>","null","","","","","","","","",""
"","","","","","html-keyboard-response","122","523933","0.0-122.0","D3E5CC76D3C045988D3CB553AF5D1801","019cf816-b281-7be7-b31a-fe7943bce15a","019cf80d-4266-7117-8a51-54e13c84aca4","","null","
                <div class=""stimulus-container"">
                    <img src=""images/semantic_sequence/housework_semantic/housework_semantic_1.png"" class=""exp-image"">
                    <div class=""question-area""></div> 
                </div>","null","","","","","","","","",""
"","","","","","html-button-response","123","524467","0.0-123.0","D3E5CC76D3C045988D3CB553AF5D1801","019cf816-b281-7be7-b31a-fe7943bce15a","019cf80d-4266-7117-8a51-54e13c84aca4","","534","
                <div class=""stimulus-container"">
                    <img src=""images/semantic_sequence/housework_semantic/housework_semantic_1.png"" class=""exp-image"">
                    <div class=""question-area"">
                        <p style=""font-size: 20px; font-weight: bold; margin: 0;"">Is there a person in this image?</p>
                    </div>
                </div>","0","main_experiment_trial","1","housework_semantic","semantic_sequence","","","","",""
"","","","","","html-keyboard-response","124","529471","0.0-124.0","D3E5CC76D3C045988D3CB553AF5D1801","019cf816-b281-7be7-b31a-fe7943bce15a","019cf80d-4266-7117-8a51-54e13c84aca4","","null","
                <div class=""stimulus-container"">
                    <img src=""images/semantic_sequence/housework_semantic/housework_semantic_2.png"" class=""exp-image"">
                    <div class=""question-area""></div> 
                </div>","null","","","","","","","","",""
"","","","","","html-button-response","125","530322","0.0-125.0","D3E5CC76D3C045988D3CB553AF5D1801","019cf816-b281-7be7-b31a-fe7943bce15a","019cf80d-4266-7117-8a51-54e13c84aca4","","850","
                <div class=""stimulus-container"">
                    <img src=""images/semantic_sequence/housework_semantic/housework_semantic_2.png"" class=""exp-image"">
                    <div class=""question-area"">
                        <p style=""font-size: 20px; font-weight: bold; margin: 0;"">Is there a person in this image?</p>
                    </div>
                </div>","0","main_experiment_trial","2","housework_semantic","semantic_sequence","","","","",""
"","","","","","html-keyboard-response","126","535325","0.0-126.0","D3E5CC76D3C045988D3CB553AF5D1801","019cf816-b281-7be7-b31a-fe7943bce15a","019cf80d-4266-7117-8a51-54e13c84aca4","","null","
                <div class=""stimulus-container"">
                    <img src=""images/semantic_sequence/housework_semantic/housework_semantic_3.png"" class=""exp-image"">
                    <div class=""question-area""></div> 
                </div>","null","","","","","","","","",""
"","","","","","html-button-response","127","536843","0.0-127.0","D3E5CC76D3C045988D3CB553AF5D1801","019cf816-b281-7be7-b31a-fe7943bce15a","019cf80d-4266-7117-8a51-54e13c84aca4","","1518","
                <div class=""stimulus-container"">
                    <img src=""images/semantic_sequence/housework_semantic/housework_semantic_3.png"" class=""exp-image"">
                    <div class=""question-area"">
                        <p style=""font-size: 20px; font-weight: bold; margin: 0;"">Is there a person in this image?</p>
                    </div>
                </div>","0","main_experiment_trial","3","housework_semantic","semantic_sequence","","","","",""
"","","","","","html-keyboard-response","128","541845","0.0-128.0","D3E5CC76D3C045988D3CB553AF5D1801","019cf816-b281-7be7-b31a-fe7943bce15a","019cf80d-4266-7117-8a51-54e13c84aca4","","null","
                <div class=""stimulus-container"">
                    <img src=""images/semantic_sequence/housework_semantic/housework_semantic_4.png"" class=""exp-image"">
                    <div class=""question-area""></div> 
                </div>","null","","","","","","","","",""
"","","","","","html-button-response","129","544858","0.0-129.0","D3E5CC76D3C045988D3CB553AF5D1801","019cf816-b281-7be7-b31a-fe7943bce15a","019cf80d-4266-7117-8a51-54e13c84aca4","","null","
                <div class=""stimulus-container"">
                    <img src=""images/semantic_sequence/housework_semantic/housework_semantic_4.png"" class=""exp-image"">
                    <div class=""question-area"">
                        <p style=""font-size: 20px; font-weight: bold; margin: 0;"">Is there a person in this image?</p>
                    </div>
                </div>","null","main_experiment_trial","4","housework_semantic","semantic_sequence","","","","",""
"","","","","","html-keyboard-response","130","549860","0.0-130.0","D3E5CC76D3C045988D3CB553AF5D1801","019cf816-b281-7be7-b31a-fe7943bce15a","019cf80d-4266-7117-8a51-54e13c84aca4","","null","
                <div class=""stimulus-container"">
                    <img src=""images/semantic_sequence/housework_semantic/housework_semantic_5.png"" class=""exp-image"">
                    <div class=""question-area""></div> 
                </div>","null","","","","","","","","",""
"","","","","","html-button-response","131","552875","0.0-131.0","D3E5CC76D3C045988D3CB553AF5D1801","019cf816-b281-7be7-b31a-fe7943bce15a","019cf80d-4266-7117-8a51-54e13c84aca4","","null","
                <div class=""stimulus-container"">
                    <img src=""images/semantic_sequence/housework_semantic/housework_semantic_5.png"" class=""exp-image"">
                    <div class=""question-area"">
                        <p style=""font-size: 20px; font-weight: bold; margin: 0;"">Is there a person in this image?</p>
                    </div>
                </div>","null","main_experiment_trial","5","housework_semantic","semantic_sequence","","","","",""
"","","","","","html-keyboard-response","132","557877","0.0-132.0","D3E5CC76D3C045988D3CB553AF5D1801","019cf816-b281-7be7-b31a-fe7943bce15a","019cf80d-4266-7117-8a51-54e13c84aca4","","null","
                <div class=""stimulus-container"">
                    <img src=""images/semantic_sequence/housework_semantic/housework_semantic_6.png"" class=""exp-image"">
                    <div class=""question-area""></div> 
                </div>","null","","","","","","","","",""
"","","","","","html-button-response","133","560890","0.0-133.0","D3E5CC76D3C045988D3CB553AF5D1801","019cf816-b281-7be7-b31a-fe7943bce15a","019cf80d-4266-7117-8a51-54e13c84aca4","","null","
                <div class=""stimulus-container"">
                    <img src=""images/semantic_sequence/housework_semantic/housework_semantic_6.png"" class=""exp-image"">
                    <div class=""question-area"">
                        <p style=""font-size: 20px; font-weight: bold; margin: 0;"">Is there a person in this image?</p>
                    </div>
                </div>","null","main_experiment_trial","6","housework_semantic","semantic_sequence","","","","",""
"","","","","","html-keyboard-response","134","565892","0.0-134.0","D3E5CC76D3C045988D3CB553AF5D1801","019cf816-b281-7be7-b31a-fe7943bce15a","019cf80d-4266-7117-8a51-54e13c84aca4","","null","
                <div class=""stimulus-container"">
                    <img src=""images/semantic_sequence/housework_semantic/housework_semantic_7.png"" class=""exp-image"">
                    <div class=""question-area""></div> 
                </div>","null","","","","","","","","",""
"","","","","","html-button-response","135","568901","0.0-135.0","D3E5CC76D3C045988D3CB553AF5D1801","019cf816-b281-7be7-b31a-fe7943bce15a","019cf80d-4266-7117-8a51-54e13c84aca4","","null","
                <div class=""stimulus-container"">
                    <img src=""images/semantic_sequence/housework_semantic/housework_semantic_7.png"" class=""exp-image"">
                    <div class=""question-area"">
                        <p style=""font-size: 20px; font-weight: bold; margin: 0;"">Is there a person in this image?</p>
                    </div>
                </div>","null","main_experiment_trial","7","housework_semantic","semantic_sequence","","","","",""
"","","","","","html-keyboard-response","136","573908","0.0-136.0","D3E5CC76D3C045988D3CB553AF5D1801","019cf816-b281-7be7-b31a-fe7943bce15a","019cf80d-4266-7117-8a51-54e13c84aca4","","null","
                <div class=""stimulus-container"">
                    <img src=""images/semantic_sequence/housework_semantic/housework_semantic_8.png"" class=""exp-image"">
                    <div class=""question-area""></div> 
                </div>","null","","","","","","","","",""
"","","","","","html-button-response","137","576918","0.0-137.0","D3E5CC76D3C045988D3CB553AF5D1801","019cf816-b281-7be7-b31a-fe7943bce15a","019cf80d-4266-7117-8a51-54e13c84aca4","","null","
                <div class=""stimulus-container"">
                    <img src=""images/semantic_sequence/housework_semantic/housework_semantic_8.png"" class=""exp-image"">
                    <div class=""question-area"">
                        <p style=""font-size: 20px; font-weight: bold; margin: 0;"">Is there a person in this image?</p>
                    </div>
                </div>","null","main_experiment_trial","8","housework_semantic","semantic_sequence","","","","",""
"","","","","","html-keyboard-response","138","581925","0.0-138.0","D3E5CC76D3C045988D3CB553AF5D1801","019cf816-b281-7be7-b31a-fe7943bce15a","019cf80d-4266-7117-8a51-54e13c84aca4","","null","
                <div class=""stimulus-container"">
                    <img src=""images/semantic_sequence/housework_semantic/housework_semantic_9.png"" class=""exp-image"">
                    <div class=""question-area""></div> 
                </div>","null","","","","","","","","",""
"","","","","","html-button-response","139","584933","0.0-139.0","D3E5CC76D3C045988D3CB553AF5D1801","019cf816-b281-7be7-b31a-fe7943bce15a","019cf80d-4266-7117-8a51-54e13c84aca4","","null","
                <div class=""stimulus-container"">
                    <img src=""images/semantic_sequence/housework_semantic/housework_semantic_9.png"" class=""exp-image"">
                    <div class=""question-area"">
                        <p style=""font-size: 20px; font-weight: bold; margin: 0;"">Is there a person in this image?</p>
                    </div>
                </div>","null","main_experiment_trial","9","housework_semantic","semantic_sequence","","","","",""
"","","","","","html-keyboard-response","140","589949","0.0-140.0","D3E5CC76D3C045988D3CB553AF5D1801","019cf816-b281-7be7-b31a-fe7943bce15a","019cf80d-4266-7117-8a51-54e13c84aca4","","null","
                <div class=""stimulus-container"">
                    <img src=""images/semantic_sequence/housework_semantic/housework_semantic_ten.png"" class=""exp-image"">
                    <div class=""question-area""></div> 
                </div>","null","","","","","","","","",""
"","","","","","html-button-response","141","592965","0.0-141.0","D3E5CC76D3C045988D3CB553AF5D1801","019cf816-b281-7be7-b31a-fe7943bce15a","019cf80d-4266-7117-8a51-54e13c84aca4","","null","
                <div class=""stimulus-container"">
                    <img src=""images/semantic_sequence/housework_semantic/housework_semantic_ten.png"" class=""exp-image"">
                    <div class=""question-area"">
                        <p style=""font-size: 20px; font-weight: bold; margin: 0;"">Is there a person in this image?</p>
                    </div>
                </div>","null","main_experiment_trial","ten","housework_semantic","semantic_sequence","","","","",""
"","","","","","html-keyboard-response","142","593968","0.0-142.0","D3E5CC76D3C045988D3CB553AF5D1801","019cf816-b281-7be7-b31a-fe7943bce15a","019cf80d-4266-7117-8a51-54e13c84aca4","","null","<div style=""background-color: white; width: 100vw; height: 100vh;""></div>","null","","","","","","","","",""
"","","","","","html-keyboard-response","143","598979","0.0-143.0","D3E5CC76D3C045988D3CB553AF5D1801","019cf816-b281-7be7-b31a-fe7943bce15a","019cf80d-4266-7117-8a51-54e13c84aca4","","null","
                <div class=""stimulus-container"">
                    <img src=""images/schematic_sequence/interview_scheme/interview_scheme_1.png"" class=""exp-image"">
                    <div class=""question-area""></div> 
                </div>","null","","","","","","","","",""
"","","","","","html-button-response","144","601989","0.0-144.0","D3E5CC76D3C045988D3CB553AF5D1801","019cf816-b281-7be7-b31a-fe7943bce15a","019cf80d-4266-7117-8a51-54e13c84aca4","","null","
                <div class=""stimulus-container"">
                    <img src=""images/schematic_sequence/interview_scheme/interview_scheme_1.png"" class=""exp-image"">
                    <div class=""question-area"">
                        <p style=""font-size: 20px; font-weight: bold; margin: 0;"">Is there a person in this image?</p>
                    </div>
                </div>","null","main_experiment_trial","1","interview_scheme","schematic_sequence","","","","",""
"","","","","","html-keyboard-response","145","606994","0.0-145.0","D3E5CC76D3C045988D3CB553AF5D1801","019cf816-b281-7be7-b31a-fe7943bce15a","019cf80d-4266-7117-8a51-54e13c84aca4","","null","
                <div class=""stimulus-container"">
                    <img src=""images/schematic_sequence/interview_scheme/interview_scheme_2.png"" class=""exp-image"">
                    <div class=""question-area""></div> 
                </div>","null","","","","","","","","",""
"","","","","","html-button-response","146","609999","0.0-146.0","D3E5CC76D3C045988D3CB553AF5D1801","019cf816-b281-7be7-b31a-fe7943bce15a","019cf80d-4266-7117-8a51-54e13c84aca4","","null","
                <div class=""stimulus-container"">
                    <img src=""images/schematic_sequence/interview_scheme/interview_scheme_2.png"" class=""exp-image"">
                    <div class=""question-area"">
                        <p style=""font-size: 20px; font-weight: bold; margin: 0;"">Is there a person in this image?</p>
                    </div>
                </div>","null","main_experiment_trial","2","interview_scheme","schematic_sequence","","","","",""
"","","","","","html-keyboard-response","147","615010","0.0-147.0","D3E5CC76D3C045988D3CB553AF5D1801","019cf816-b281-7be7-b31a-fe7943bce15a","019cf80d-4266-7117-8a51-54e13c84aca4","","null","
                <div class=""stimulus-container"">
                    <img src=""images/schematic_sequence/interview_scheme/interview_scheme_3.png"" class=""exp-image"">
                    <div class=""question-area""></div> 
                </div>","null","","","","","","","","",""
"","","","","","html-button-response","148","618017","0.0-148.0","D3E5CC76D3C045988D3CB553AF5D1801","019cf816-b281-7be7-b31a-fe7943bce15a","019cf80d-4266-7117-8a51-54e13c84aca4","","null","
                <div class=""stimulus-container"">
                    <img src=""images/schematic_sequence/interview_scheme/interview_scheme_3.png"" class=""exp-image"">
                    <div class=""question-area"">
                        <p style=""font-size: 20px; font-weight: bold; margin: 0;"">Is there a person in this image?</p>
                    </div>
                </div>","null","main_experiment_trial","3","interview_scheme","schematic_sequence","","","","",""
"","","","","","html-keyboard-response","149","623027","0.0-149.0","D3E5CC76D3C045988D3CB553AF5D1801","019cf816-b281-7be7-b31a-fe7943bce15a","019cf80d-4266-7117-8a51-54e13c84aca4","","null","
                <div class=""stimulus-container"">
                    <img src=""images/schematic_sequence/interview_scheme/interview_scheme_4.png"" class=""exp-image"">
                    <div class=""question-area""></div> 
                </div>","null","","","","","","","","",""
"","","","","","html-button-response","150","626036","0.0-150.0","D3E5CC76D3C045988D3CB553AF5D1801","019cf816-b281-7be7-b31a-fe7943bce15a","019cf80d-4266-7117-8a51-54e13c84aca4","","null","
                <div class=""stimulus-container"">
                    <img src=""images/schematic_sequence/interview_scheme/interview_scheme_4.png"" class=""exp-image"">
                    <div class=""question-area"">
                        <p style=""font-size: 20px; font-weight: bold; margin: 0;"">Is there a person in this image?</p>
                    </div>
                </div>","null","main_experiment_trial","4","interview_scheme","schematic_sequence","","","","",""
"","","","","","html-keyboard-response","151","631043","0.0-151.0","D3E5CC76D3C045988D3CB553AF5D1801","019cf816-b281-7be7-b31a-fe7943bce15a","019cf80d-4266-7117-8a51-54e13c84aca4","","null","
                <div class=""stimulus-container"">
                    <img src=""images/schematic_sequence/interview_scheme/interview_scheme_5.png"" class=""exp-image"">
                    <div class=""question-area""></div> 
                </div>","null","","","","","","","","",""
"","","","","","html-button-response","152","632821","0.0-152.0","D3E5CC76D3C045988D3CB553AF5D1801","019cf816-b281-7be7-b31a-fe7943bce15a","019cf80d-4266-7117-8a51-54e13c84aca4","","1778","
                <div class=""stimulus-container"">
                    <img src=""images/schematic_sequence/interview_scheme/interview_scheme_5.png"" class=""exp-image"">
                    <div class=""question-area"">
                        <p style=""font-size: 20px; font-weight: bold; margin: 0;"">Is there a person in this image?</p>
                    </div>
                </div>","0","main_experiment_trial","5","interview_scheme","schematic_sequence","","","","",""
"","","","","","html-keyboard-response","153","637824","0.0-153.0","D3E5CC76D3C045988D3CB553AF5D1801","019cf816-b281-7be7-b31a-fe7943bce15a","019cf80d-4266-7117-8a51-54e13c84aca4","","null","
                <div class=""stimulus-container"">
                    <img src=""images/schematic_sequence/interview_scheme/interview_scheme_6.png"" class=""exp-image"">
                    <div class=""question-area""></div> 
                </div>","null","","","","","","","","",""
"","","","","","html-button-response","154","638513","0.0-154.0","D3E5CC76D3C045988D3CB553AF5D1801","019cf816-b281-7be7-b31a-fe7943bce15a","019cf80d-4266-7117-8a51-54e13c84aca4","","689","
                <div class=""stimulus-container"">
                    <img src=""images/schematic_sequence/interview_scheme/interview_scheme_6.png"" class=""exp-image"">
                    <div class=""question-area"">
                        <p style=""font-size: 20px; font-weight: bold; margin: 0;"">Is there a person in this image?</p>
                    </div>
                </div>","0","main_experiment_trial","6","interview_scheme","schematic_sequence","","","","",""
"","","","","","html-keyboard-response","155","643528","0.0-155.0","D3E5CC76D3C045988D3CB553AF5D1801","019cf816-b281-7be7-b31a-fe7943bce15a","019cf80d-4266-7117-8a51-54e13c84aca4","","null","
                <div class=""stimulus-container"">
                    <img src=""images/schematic_sequence/interview_scheme/interview_scheme_7.png"" class=""exp-image"">
                    <div class=""question-area""></div> 
                </div>","null","","","","","","","","",""
"","","","","","html-button-response","156","644177","0.0-156.0","D3E5CC76D3C045988D3CB553AF5D1801","019cf816-b281-7be7-b31a-fe7943bce15a","019cf80d-4266-7117-8a51-54e13c84aca4","","649","
                <div class=""stimulus-container"">
                    <img src=""images/schematic_sequence/interview_scheme/interview_scheme_7.png"" class=""exp-image"">
                    <div class=""question-area"">
                        <p style=""font-size: 20px; font-weight: bold; margin: 0;"">Is there a person in this image?</p>
                    </div>
                </div>","0","main_experiment_trial","7","interview_scheme","schematic_sequence","","","","",""
"","","","","","html-keyboard-response","157","649182","0.0-157.0","D3E5CC76D3C045988D3CB553AF5D1801","019cf816-b281-7be7-b31a-fe7943bce15a","019cf80d-4266-7117-8a51-54e13c84aca4","","null","
                <div class=""stimulus-container"">
                    <img src=""images/schematic_sequence/interview_scheme/interview_scheme_8.png"" class=""exp-image"">
                    <div class=""question-area""></div> 
                </div>","null","","","","","","","","",""
"","","","","","html-button-response","158","649775","0.0-158.0","D3E5CC76D3C045988D3CB553AF5D1801","019cf816-b281-7be7-b31a-fe7943bce15a","019cf80d-4266-7117-8a51-54e13c84aca4","","593","
                <div class=""stimulus-container"">
                    <img src=""images/schematic_sequence/interview_scheme/interview_scheme_8.png"" class=""exp-image"">
                    <div class=""question-area"">
                        <p style=""font-size: 20px; font-weight: bold; margin: 0;"">Is there a person in this image?</p>
                    </div>
                </div>","0","main_experiment_trial","8","interview_scheme","schematic_sequence","","","","",""
"","","","","","html-keyboard-response","159","654791","0.0-159.0","D3E5CC76D3C045988D3CB553AF5D1801","019cf816-b281-7be7-b31a-fe7943bce15a","019cf80d-4266-7117-8a51-54e13c84aca4","","null","
                <div class=""stimulus-container"">
                    <img src=""images/schematic_sequence/interview_scheme/interview_scheme_9.png"" class=""exp-image"">
                    <div class=""question-area""></div> 
                </div>","null","","","","","","","","",""
"","","","","","html-button-response","160","655913","0.0-160.0","D3E5CC76D3C045988D3CB553AF5D1801","019cf816-b281-7be7-b31a-fe7943bce15a","019cf80d-4266-7117-8a51-54e13c84aca4","","1121","
                <div class=""stimulus-container"">
                    <img src=""images/schematic_sequence/interview_scheme/interview_scheme_9.png"" class=""exp-image"">
                    <div class=""question-area"">
                        <p style=""font-size: 20px; font-weight: bold; margin: 0;"">Is there a person in this image?</p>
                    </div>
                </div>","0","main_experiment_trial","9","interview_scheme","schematic_sequence","","","","",""
"","","","","","html-keyboard-response","161","660913","0.0-161.0","D3E5CC76D3C045988D3CB553AF5D1801","019cf816-b281-7be7-b31a-fe7943bce15a","019cf80d-4266-7117-8a51-54e13c84aca4","","null","
                <div class=""stimulus-container"">
                    <img src=""images/schematic_sequence/interview_scheme/interview_scheme_ten.png"" class=""exp-image"">
                    <div class=""question-area""></div> 
                </div>","null","","","","","","","","",""
"","","","","","html-button-response","162","661485","0.0-162.0","D3E5CC76D3C045988D3CB553AF5D1801","019cf816-b281-7be7-b31a-fe7943bce15a","019cf80d-4266-7117-8a51-54e13c84aca4","","570","
                <div class=""stimulus-container"">
                    <img src=""images/schematic_sequence/interview_scheme/interview_scheme_ten.png"" class=""exp-image"">
                    <div class=""question-area"">
                        <p style=""font-size: 20px; font-weight: bold; margin: 0;"">Is there a person in this image?</p>
                    </div>
                </div>","0","main_experiment_trial","ten","interview_scheme","schematic_sequence","","","","",""
"","","","","","html-keyboard-response","163","662485","0.0-163.0","D3E5CC76D3C045988D3CB553AF5D1801","019cf816-b281-7be7-b31a-fe7943bce15a","019cf80d-4266-7117-8a51-54e13c84aca4","","null","<div style=""background-color: white; width: 100vw; height: 100vh;""></div>","null","","","","","","","","",""
"","","","","","html-keyboard-response","164","667499","0.0-164.0","D3E5CC76D3C045988D3CB553AF5D1801","019cf816-b281-7be7-b31a-fe7943bce15a","019cf80d-4266-7117-8a51-54e13c84aca4","","null","
                <div class=""stimulus-container"">
                    <img src=""images/semantic_sequence/redecorating_a_house_semantic/redecorating_a_house_semantic_1.png"" class=""exp-image"">
                    <div class=""question-area""></div> 
                </div>","null","","","","","","","","",""
"","","","","","html-button-response","165","668654","0.0-165.0","D3E5CC76D3C045988D3CB553AF5D1801","019cf816-b281-7be7-b31a-fe7943bce15a","019cf80d-4266-7117-8a51-54e13c84aca4","","1154","
                <div class=""stimulus-container"">
                    <img src=""images/semantic_sequence/redecorating_a_house_semantic/redecorating_a_house_semantic_1.png"" class=""exp-image"">
                    <div class=""question-area"">
                        <p style=""font-size: 20px; font-weight: bold; margin: 0;"">Is there a person in this image?</p>
                    </div>
                </div>","0","main_experiment_trial","1","redecorating_a_house_semantic","semantic_sequence","","","","",""
"","","","","","html-keyboard-response","166","673661","0.0-166.0","D3E5CC76D3C045988D3CB553AF5D1801","019cf816-b281-7be7-b31a-fe7943bce15a","019cf80d-4266-7117-8a51-54e13c84aca4","","null","
                <div class=""stimulus-container"">
                    <img src=""images/semantic_sequence/redecorating_a_house_semantic/redecorating_a_house_semantic_2.png"" class=""exp-image"">
                    <div class=""question-area""></div> 
                </div>","null","","","","","","","","",""
"","","","","","html-button-response","167","674424","0.0-167.0","D3E5CC76D3C045988D3CB553AF5D1801","019cf816-b281-7be7-b31a-fe7943bce15a","019cf80d-4266-7117-8a51-54e13c84aca4","","762","
                <div class=""stimulus-container"">
                    <img src=""images/semantic_sequence/redecorating_a_house_semantic/redecorating_a_house_semantic_2.png"" class=""exp-image"">
                    <div class=""question-area"">
                        <p style=""font-size: 20px; font-weight: bold; margin: 0;"">Is there a person in this image?</p>
                    </div>
                </div>","0","main_experiment_trial","2","redecorating_a_house_semantic","semantic_sequence","","","","",""
"","","","","","html-keyboard-response","168","679431","0.0-168.0","D3E5CC76D3C045988D3CB553AF5D1801","019cf816-b281-7be7-b31a-fe7943bce15a","019cf80d-4266-7117-8a51-54e13c84aca4","","null","
                <div class=""stimulus-container"">
                    <img src=""images/semantic_sequence/redecorating_a_house_semantic/redecorating_a_house_semantic_3.png"" class=""exp-image"">
                    <div class=""question-area""></div> 
                </div>","null","","","","","","","","",""
"","","","","","html-button-response","169","680490","0.0-169.0","D3E5CC76D3C045988D3CB553AF5D1801","019cf816-b281-7be7-b31a-fe7943bce15a","019cf80d-4266-7117-8a51-54e13c84aca4","","1058","
                <div class=""stimulus-container"">
                    <img src=""images/semantic_sequence/redecorating_a_house_semantic/redecorating_a_house_semantic_3.png"" class=""exp-image"">
                    <div class=""question-area"">
                        <p style=""font-size: 20px; font-weight: bold; margin: 0;"">Is there a person in this image?</p>
                    </div>
                </div>","0","main_experiment_trial","3","redecorating_a_house_semantic","semantic_sequence","","","","",""
"","","","","","html-keyboard-response","170","685505","0.0-170.0","D3E5CC76D3C045988D3CB553AF5D1801","019cf816-b281-7be7-b31a-fe7943bce15a","019cf80d-4266-7117-8a51-54e13c84aca4","","null","
                <div class=""stimulus-container"">
                    <img src=""images/semantic_sequence/redecorating_a_house_semantic/redecorating_a_house_semantic_4.png"" class=""exp-image"">
                    <div class=""question-area""></div> 
                </div>","null","","","","","","","","",""
"","","","","","html-button-response","171","686374","0.0-171.0","D3E5CC76D3C045988D3CB553AF5D1801","019cf816-b281-7be7-b31a-fe7943bce15a","019cf80d-4266-7117-8a51-54e13c84aca4","","868","
                <div class=""stimulus-container"">
                    <img src=""images/semantic_sequence/redecorating_a_house_semantic/redecorating_a_house_semantic_4.png"" class=""exp-image"">
                    <div class=""question-area"">
                        <p style=""font-size: 20px; font-weight: bold; margin: 0;"">Is there a person in this image?</p>
                    </div>
                </div>","0","main_experiment_trial","4","redecorating_a_house_semantic","semantic_sequence","","","","",""
"","","","","","html-keyboard-response","172","691375","0.0-172.0","D3E5CC76D3C045988D3CB553AF5D1801","019cf816-b281-7be7-b31a-fe7943bce15a","019cf80d-4266-7117-8a51-54e13c84aca4","","null","
                <div class=""stimulus-container"">
                    <img src=""images/semantic_sequence/redecorating_a_house_semantic/redecorating_a_house_semantic_5.png"" class=""exp-image"">
                    <div class=""question-area""></div> 
                </div>","null","","","","","","","","",""
"","","","","","html-button-response","173","692348","0.0-173.0","D3E5CC76D3C045988D3CB553AF5D1801","019cf816-b281-7be7-b31a-fe7943bce15a","019cf80d-4266-7117-8a51-54e13c84aca4","","972","
                <div class=""stimulus-container"">
                    <img src=""images/semantic_sequence/redecorating_a_house_semantic/redecorating_a_house_semantic_5.png"" class=""exp-image"">
                    <div class=""question-area"">
                        <p style=""font-size: 20px; font-weight: bold; margin: 0;"">Is there a person in this image?</p>
                    </div>
                </div>","0","main_experiment_trial","5","redecorating_a_house_semantic","semantic_sequence","","","","",""
"","","","","","html-keyboard-response","174","697365","0.0-174.0","D3E5CC76D3C045988D3CB553AF5D1801","019cf816-b281-7be7-b31a-fe7943bce15a","019cf80d-4266-7117-8a51-54e13c84aca4","","null","
                <div class=""stimulus-container"">
                    <img src=""images/semantic_sequence/redecorating_a_house_semantic/redecorating_a_house_semantic_6.png"" class=""exp-image"">
                    <div class=""question-area""></div> 
                </div>","null","","","","","","","","",""
"","","","","","html-button-response","175","698323","0.0-175.0","D3E5CC76D3C045988D3CB553AF5D1801","019cf816-b281-7be7-b31a-fe7943bce15a","019cf80d-4266-7117-8a51-54e13c84aca4","","957","
                <div class=""stimulus-container"">
                    <img src=""images/semantic_sequence/redecorating_a_house_semantic/redecorating_a_house_semantic_6.png"" class=""exp-image"">
                    <div class=""question-area"">
                        <p style=""font-size: 20px; font-weight: bold; margin: 0;"">Is there a person in this image?</p>
                    </div>
                </div>","0","main_experiment_trial","6","redecorating_a_house_semantic","semantic_sequence","","","","",""
"","","","","","html-keyboard-response","176","703338","0.0-176.0","D3E5CC76D3C045988D3CB553AF5D1801","019cf816-b281-7be7-b31a-fe7943bce15a","019cf80d-4266-7117-8a51-54e13c84aca4","","null","
                <div class=""stimulus-container"">
                    <img src=""images/semantic_sequence/redecorating_a_house_semantic/redecorating_a_house_semantic_7.png"" class=""exp-image"">
                    <div class=""question-area""></div> 
                </div>","null","","","","","","","","",""
"","","","","","html-button-response","177","704130","0.0-177.0","D3E5CC76D3C045988D3CB553AF5D1801","019cf816-b281-7be7-b31a-fe7943bce15a","019cf80d-4266-7117-8a51-54e13c84aca4","","791","
                <div class=""stimulus-container"">
                    <img src=""images/semantic_sequence/redecorating_a_house_semantic/redecorating_a_house_semantic_7.png"" class=""exp-image"">
                    <div class=""question-area"">
                        <p style=""font-size: 20px; font-weight: bold; margin: 0;"">Is there a person in this image?</p>
                    </div>
                </div>","0","main_experiment_trial","7","redecorating_a_house_semantic","semantic_sequence","","","","",""
"","","","","","html-keyboard-response","178","709131","0.0-178.0","D3E5CC76D3C045988D3CB553AF5D1801","019cf816-b281-7be7-b31a-fe7943bce15a","019cf80d-4266-7117-8a51-54e13c84aca4","","null","
                <div class=""stimulus-container"">
                    <img src=""images/semantic_sequence/redecorating_a_house_semantic/redecorating_a_house_semantic_8.png"" class=""exp-image"">
                    <div class=""question-area""></div> 
                </div>","null","","","","","","","","",""
"","","","","","html-button-response","179","710808","0.0-179.0","D3E5CC76D3C045988D3CB553AF5D1801","019cf816-b281-7be7-b31a-fe7943bce15a","019cf80d-4266-7117-8a51-54e13c84aca4","","1677","
                <div class=""stimulus-container"">
                    <img src=""images/semantic_sequence/redecorating_a_house_semantic/redecorating_a_house_semantic_8.png"" class=""exp-image"">
                    <div class=""question-area"">
                        <p style=""font-size: 20px; font-weight: bold; margin: 0;"">Is there a person in this image?</p>
                    </div>
                </div>","0","main_experiment_trial","8","redecorating_a_house_semantic","semantic_sequence","","","","",""
"","","","","","html-keyboard-response","180","715816","0.0-180.0","D3E5CC76D3C045988D3CB553AF5D1801","019cf816-b281-7be7-b31a-fe7943bce15a","019cf80d-4266-7117-8a51-54e13c84aca4","","null","
                <div class=""stimulus-container"">
                    <img src=""images/semantic_sequence/redecorating_a_house_semantic/redecorating_a_house_semantic_9.png"" class=""exp-image"">
                    <div class=""question-area""></div> 
