"success","timeout","failed_images","failed_audio","failed_video","trial_type","trial_index","time_elapsed","internal_node_id","subject_id","study_id","session_id","view_history","rt","stimulus","response","task","image_index","folder","sequence_type","presentation_order","valuable_image_index","reward_type","distance_from_x","target_X","chosen_image_index","is_x_plus_dist","correct_choice"
"true","false","[]","[]","[]","preload","0","5264","0.0-0.0","E34E2DEE098B4170986DBCBF7C5BF11B","019dac66-b74c-7fbc-a381-2ac7840b8890","019dac5b-243f-7307-af64-a10f53f1ef70","","","","","","","","","","","","","","","",""
"","","","","","instructions","1","8757","0.0-1.0","E34E2DEE098B4170986DBCBF7C5BF11B","019dac66-b74c-7fbc-a381-2ac7840b8890","019dac5b-243f-7307-af64-a10f53f1ef70","[{""page_index"":0,""viewing_time"":3492}]","3492","","","","","","","","","","","","","",""
"","","","","","instructions","2","18709","0.0-2.0","E34E2DEE098B4170986DBCBF7C5BF11B","019dac66-b74c-7fbc-a381-2ac7840b8890","019dac5b-243f-7307-af64-a10f53f1ef70","[{""page_index"":0,""viewing_time"":9952}]","9952","","","","","","","","","","","","","",""
"true","","","","","fullscreen","3","21625","0.0-3.0","E34E2DEE098B4170986DBCBF7C5BF11B","019dac66-b74c-7fbc-a381-2ac7840b8890","019dac5b-243f-7307-af64-a10f53f1ef70","","1908","","","","","","","","","","","","","",""
"","","","","","instructions","4","30587","0.0-4.0","E34E2DEE098B4170986DBCBF7C5BF11B","019dac66-b74c-7fbc-a381-2ac7840b8890","019dac5b-243f-7307-af64-a10f53f1ef70","[{""page_index"":0,""viewing_time"":8962}]","8963","","","","","","","","","","","","","",""
"","","","","","instructions","5","40024","0.0-5.0","E34E2DEE098B4170986DBCBF7C5BF11B","019dac66-b74c-7fbc-a381-2ac7840b8890","019dac5b-243f-7307-af64-a10f53f1ef70","[{""page_index"":0,""viewing_time"":9436}]","9437","","","","","","","","","","","","","",""
"","","","","","html-keyboard-response","6","44027","0.0-6.0","E34E2DEE098B4170986DBCBF7C5BF11B","019dac66-b74c-7fbc-a381-2ac7840b8890","019dac5b-243f-7307-af64-a10f53f1ef70","","null","
                <div class=""stimulus-container"">
                    <img src=""images/instructions/movie_1.png"" class=""exp-image"">
                    <div class=""question-area""></div> 
                </div>","null","","","","","","","","","","","",""
"","","","","","html-button-response","7","45643","0.0-7.0","E34E2DEE098B4170986DBCBF7C5BF11B","019dac66-b74c-7fbc-a381-2ac7840b8890","019dac5b-243f-7307-af64-a10f53f1ef70","","1614","
                <div class=""stimulus-container"">
                    <img src=""images/instructions/movie_1.png"" class=""exp-image"">
                    <div class=""question-area"">
                        <p style=""font-size: 20px; font-weight: bold; margin: 0;"">Was there a person in this image?</p>
                    </div>
                </div>","0","example_question","1","","","","","","","","","",""
"","","","","","html-keyboard-response","8","49658","0.0-8.0","E34E2DEE098B4170986DBCBF7C5BF11B","019dac66-b74c-7fbc-a381-2ac7840b8890","019dac5b-243f-7307-af64-a10f53f1ef70","","null","
                <div class=""stimulus-container"">
                    <img src=""images/instructions/movie_2.png"" class=""exp-image"">
                    <div class=""question-area""></div> 
                </div>","null","","","","","","","","","","","",""
"","","","","","html-button-response","9","51097","0.0-9.0","E34E2DEE098B4170986DBCBF7C5BF11B","019dac66-b74c-7fbc-a381-2ac7840b8890","019dac5b-243f-7307-af64-a10f53f1ef70","","1439","
                <div class=""stimulus-container"">
                    <img src=""images/instructions/movie_2.png"" class=""exp-image"">
                    <div class=""question-area"">
                        <p style=""font-size: 20px; font-weight: bold; margin: 0;"">Was there a person in this image?</p>
                    </div>
                </div>","0","example_question","2","","","","","","","","","",""
"","","","","","html-keyboard-response","10","55108","0.0-10.0","E34E2DEE098B4170986DBCBF7C5BF11B","019dac66-b74c-7fbc-a381-2ac7840b8890","019dac5b-243f-7307-af64-a10f53f1ef70","","null","
                <div class=""stimulus-container"">
                    <img src=""images/instructions/movie_3.png"" class=""exp-image"">
                    <div class=""question-area""></div> 
                </div>","null","","","","","","","","","","","",""
"","","","","","html-button-response","11","55972","0.0-11.0","E34E2DEE098B4170986DBCBF7C5BF11B","019dac66-b74c-7fbc-a381-2ac7840b8890","019dac5b-243f-7307-af64-a10f53f1ef70","","863","
                <div class=""stimulus-container"">
                    <img src=""images/instructions/movie_3.png"" class=""exp-image"">
                    <div class=""question-area"">
                        <p style=""font-size: 20px; font-weight: bold; margin: 0;"">Was there a person in this image?</p>
                    </div>
                </div>","0","example_question","3","","","","","","","","","",""
"","","","","","html-keyboard-response","12","59975","0.0-12.0","E34E2DEE098B4170986DBCBF7C5BF11B","019dac66-b74c-7fbc-a381-2ac7840b8890","019dac5b-243f-7307-af64-a10f53f1ef70","","null","
                <div class=""stimulus-container"">
                    <img src=""images/instructions/movie_4.png"" class=""exp-image"">
                    <div class=""question-area""></div> 
                </div>","null","","","","","","","","","","","",""
"","","","","","html-button-response","13","60626","0.0-13.0","E34E2DEE098B4170986DBCBF7C5BF11B","019dac66-b74c-7fbc-a381-2ac7840b8890","019dac5b-243f-7307-af64-a10f53f1ef70","","651","
                <div class=""stimulus-container"">
                    <img src=""images/instructions/movie_4.png"" class=""exp-image"">
                    <div class=""question-area"">
                        <p style=""font-size: 20px; font-weight: bold; margin: 0;"">Was there a person in this image?</p>
                    </div>
                </div>","0","example_question","4","","","","","","","","","",""
"","","","","","instructions","14","62175","0.0-14.0","E34E2DEE098B4170986DBCBF7C5BF11B","019dac66-b74c-7fbc-a381-2ac7840b8890","019dac5b-243f-7307-af64-a10f53f1ef70","[{""page_index"":0,""viewing_time"":1549}]","1549","","","","","","","","","","","","","",""
"","","","","","instructions","15","67382","0.0-15.0","E34E2DEE098B4170986DBCBF7C5BF11B","019dac66-b74c-7fbc-a381-2ac7840b8890","019dac5b-243f-7307-af64-a10f53f1ef70","[{""page_index"":0,""viewing_time"":5207}]","5207","","","","","","","","","","","","","",""
"","","","","","html-keyboard-response","16","72390","0.0-16.0","E34E2DEE098B4170986DBCBF7C5BF11B","019dac66-b74c-7fbc-a381-2ac7840b8890","019dac5b-243f-7307-af64-a10f53f1ef70","","null","<div style=""background-color: white; width: 100vw; height: 100vh;""></div>","null","","","","","","","","","","","",""
"","","","","","html-keyboard-response","17","77392","0.0-17.0","E34E2DEE098B4170986DBCBF7C5BF11B","019dac66-b74c-7fbc-a381-2ac7840b8890","019dac5b-243f-7307-af64-a10f53f1ef70","","null","
                <div class=""stimulus-container"">
                    <img src=""images/causal_sequence/museum_causal/museum_causal_1.png"" class=""exp-image"">
                    <div class=""question-area""></div> 
                </div>","null","","","","","","","","","","","",""
"","","","","","html-button-response","18","78535","0.0-18.0","E34E2DEE098B4170986DBCBF7C5BF11B","019dac66-b74c-7fbc-a381-2ac7840b8890","019dac5b-243f-7307-af64-a10f53f1ef70","","1142","
                <div class=""stimulus-container"">
                    <img src=""images/causal_sequence/museum_causal/museum_causal_1.png"" class=""exp-image"">
                    <div class=""question-area"">
                        <p style=""font-size: 20px; font-weight: bold; margin: 0;"">Is there a person in this image?</p>
                    </div>
                </div>","0","main_experiment_trial","1","museum_causal","causal_sequence","chronological","","","","","","",""
"","","","","","html-keyboard-response","19","83541","0.0-19.0","E34E2DEE098B4170986DBCBF7C5BF11B","019dac66-b74c-7fbc-a381-2ac7840b8890","019dac5b-243f-7307-af64-a10f53f1ef70","","null","
                <div class=""stimulus-container"">
                    <img src=""images/causal_sequence/museum_causal/museum_causal_2.png"" class=""exp-image"">
                    <div class=""question-area""></div> 
                </div>","null","","","","","","","","","","","",""
"","","","","","html-button-response","20","83990","0.0-20.0","E34E2DEE098B4170986DBCBF7C5BF11B","019dac66-b74c-7fbc-a381-2ac7840b8890","019dac5b-243f-7307-af64-a10f53f1ef70","","448","
                <div class=""stimulus-container"">
                    <img src=""images/causal_sequence/museum_causal/museum_causal_2.png"" class=""exp-image"">
                    <div class=""question-area"">
                        <p style=""font-size: 20px; font-weight: bold; margin: 0;"">Is there a person in this image?</p>
                    </div>
                </div>","0","main_experiment_trial","2","museum_causal","causal_sequence","chronological","","","","","","",""
"","","","","","html-keyboard-response","21","88992","0.0-21.0","E34E2DEE098B4170986DBCBF7C5BF11B","019dac66-b74c-7fbc-a381-2ac7840b8890","019dac5b-243f-7307-af64-a10f53f1ef70","","null","
                <div class=""stimulus-container"">
                    <img src=""images/causal_sequence/museum_causal/museum_causal_3.png"" class=""exp-image"">
                    <div class=""question-area""></div> 
                </div>","null","","","","","","","","","","","",""
"","","","","","html-button-response","22","89412","0.0-22.0","E34E2DEE098B4170986DBCBF7C5BF11B","019dac66-b74c-7fbc-a381-2ac7840b8890","019dac5b-243f-7307-af64-a10f53f1ef70","","419","
                <div class=""stimulus-container"">
                    <img src=""images/causal_sequence/museum_causal/museum_causal_3.png"" class=""exp-image"">
                    <div class=""question-area"">
                        <p style=""font-size: 20px; font-weight: bold; margin: 0;"">Is there a person in this image?</p>
                    </div>
                </div>","0","main_experiment_trial","3","museum_causal","causal_sequence","chronological","","","","","","",""
"","","","","","html-keyboard-response","23","94425","0.0-23.0","E34E2DEE098B4170986DBCBF7C5BF11B","019dac66-b74c-7fbc-a381-2ac7840b8890","019dac5b-243f-7307-af64-a10f53f1ef70","","null","
                <div class=""stimulus-container"">
                    <img src=""images/causal_sequence/museum_causal/museum_causal_4.png"" class=""exp-image"">
                    <div class=""question-area""></div> 
                </div>","null","","","","","","","","","","","",""
"","","","","","html-button-response","24","94963","0.0-24.0","E34E2DEE098B4170986DBCBF7C5BF11B","019dac66-b74c-7fbc-a381-2ac7840b8890","019dac5b-243f-7307-af64-a10f53f1ef70","","537","
                <div class=""stimulus-container"">
                    <img src=""images/causal_sequence/museum_causal/museum_causal_4.png"" class=""exp-image"">
                    <div class=""question-area"">
                        <p style=""font-size: 20px; font-weight: bold; margin: 0;"">Is there a person in this image?</p>
                    </div>
                </div>","1","main_experiment_trial","4","museum_causal","causal_sequence","chronological","","","","","","",""
"","","","","","html-keyboard-response","25","99976","0.0-25.0","E34E2DEE098B4170986DBCBF7C5BF11B","019dac66-b74c-7fbc-a381-2ac7840b8890","019dac5b-243f-7307-af64-a10f53f1ef70","","null","
                <div class=""stimulus-container"">
                    <img src=""images/causal_sequence/museum_causal/museum_causal_5.png"" class=""exp-image"">
                    <div class=""question-area""></div> 
                </div>","null","","","","","","","","","","","",""
"","","","","","html-button-response","26","100622","0.0-26.0","E34E2DEE098B4170986DBCBF7C5BF11B","019dac66-b74c-7fbc-a381-2ac7840b8890","019dac5b-243f-7307-af64-a10f53f1ef70","","646","
                <div class=""stimulus-container"">
                    <img src=""images/causal_sequence/museum_causal/museum_causal_5.png"" class=""exp-image"">
                    <div class=""question-area"">
                        <p style=""font-size: 20px; font-weight: bold; margin: 0;"">Is there a person in this image?</p>
                    </div>
                </div>","0","main_experiment_trial","5","museum_causal","causal_sequence","chronological","","","","","","",""
"","","","","","html-keyboard-response","27","105627","0.0-27.0","E34E2DEE098B4170986DBCBF7C5BF11B","019dac66-b74c-7fbc-a381-2ac7840b8890","019dac5b-243f-7307-af64-a10f53f1ef70","","null","
                <div class=""stimulus-container"">
                    <img src=""images/causal_sequence/museum_causal/museum_causal_6.png"" class=""exp-image"">
                    <div class=""question-area""></div> 
                </div>","null","","","","","","","","","","","",""
"","","","","","html-button-response","28","106049","0.0-28.0","E34E2DEE098B4170986DBCBF7C5BF11B","019dac66-b74c-7fbc-a381-2ac7840b8890","019dac5b-243f-7307-af64-a10f53f1ef70","","421","
                <div class=""stimulus-container"">
                    <img src=""images/causal_sequence/museum_causal/museum_causal_6.png"" class=""exp-image"">
                    <div class=""question-area"">
                        <p style=""font-size: 20px; font-weight: bold; margin: 0;"">Is there a person in this image?</p>
                    </div>
                </div>","0","main_experiment_trial","6","museum_causal","causal_sequence","chronological","","","","","","",""
"","","","","","html-keyboard-response","29","111058","0.0-29.0","E34E2DEE098B4170986DBCBF7C5BF11B","019dac66-b74c-7fbc-a381-2ac7840b8890","019dac5b-243f-7307-af64-a10f53f1ef70","","null","
                <div class=""stimulus-container"">
                    <img src=""images/causal_sequence/museum_causal/museum_causal_7.png"" class=""exp-image"">
                    <div class=""question-area""></div> 
                </div>","null","","","","","","","","","","","",""
"","","","","","html-button-response","30","111491","0.0-30.0","E34E2DEE098B4170986DBCBF7C5BF11B","019dac66-b74c-7fbc-a381-2ac7840b8890","019dac5b-243f-7307-af64-a10f53f1ef70","","432","
                <div class=""stimulus-container"">
                    <img src=""images/causal_sequence/museum_causal/museum_causal_7.png"" class=""exp-image"">
                    <div class=""question-area"">
                        <p style=""font-size: 20px; font-weight: bold; margin: 0;"">Is there a person in this image?</p>
                    </div>
                </div>","1","main_experiment_trial","7","museum_causal","causal_sequence","chronological","","","","","","",""
"","","","","","html-keyboard-response","31","116508","0.0-31.0","E34E2DEE098B4170986DBCBF7C5BF11B","019dac66-b74c-7fbc-a381-2ac7840b8890","019dac5b-243f-7307-af64-a10f53f1ef70","","null","
                <div class=""stimulus-container"">
                    <img src=""images/causal_sequence/museum_causal/museum_causal_8.png"" class=""exp-image"">
                    <div class=""question-area""></div> 
                </div>","null","","","","","","","","","","","",""
"","","","","","html-button-response","32","117294","0.0-32.0","E34E2DEE098B4170986DBCBF7C5BF11B","019dac66-b74c-7fbc-a381-2ac7840b8890","019dac5b-243f-7307-af64-a10f53f1ef70","","785","
                <div class=""stimulus-container"">
                    <img src=""images/causal_sequence/museum_causal/museum_causal_8.png"" class=""exp-image"">
                    <div class=""question-area"">
                        <p style=""font-size: 20px; font-weight: bold; margin: 0;"">Is there a person in this image?</p>
                    </div>
                </div>","0","main_experiment_trial","8","museum_causal","causal_sequence","chronological","","","","","","",""
"","","","","","html-keyboard-response","33","122310","0.0-33.0","E34E2DEE098B4170986DBCBF7C5BF11B","019dac66-b74c-7fbc-a381-2ac7840b8890","019dac5b-243f-7307-af64-a10f53f1ef70","","null","
                <div class=""stimulus-container"">
                    <img src=""images/causal_sequence/museum_causal/museum_causal_9.png"" class=""exp-image"">
                    <div class=""question-area""></div> 
                </div>","null","","","","","","","","","","","",""
"","","","","","html-button-response","34","122713","0.0-34.0","E34E2DEE098B4170986DBCBF7C5BF11B","019dac66-b74c-7fbc-a381-2ac7840b8890","019dac5b-243f-7307-af64-a10f53f1ef70","","402","
                <div class=""stimulus-container"">
                    <img src=""images/causal_sequence/museum_causal/museum_causal_9.png"" class=""exp-image"">
                    <div class=""question-area"">
                        <p style=""font-size: 20px; font-weight: bold; margin: 0;"">Is there a person in this image?</p>
                    </div>
                </div>","1","main_experiment_trial","9","museum_causal","causal_sequence","chronological","","","","","","",""
"","","","","","html-keyboard-response","35","127727","0.0-35.0","E34E2DEE098B4170986DBCBF7C5BF11B","019dac66-b74c-7fbc-a381-2ac7840b8890","019dac5b-243f-7307-af64-a10f53f1ef70","","null","
                <div class=""stimulus-container"">
                    <img src=""images/causal_sequence/museum_causal/museum_causal_ten.png"" class=""exp-image"">
                    <div class=""question-area""></div> 
                </div>","null","","","","","","","","","","","",""
"","","","","","html-button-response","36","128216","0.0-36.0","E34E2DEE098B4170986DBCBF7C5BF11B","019dac66-b74c-7fbc-a381-2ac7840b8890","019dac5b-243f-7307-af64-a10f53f1ef70","","488","
                <div class=""stimulus-container"">
                    <img src=""images/causal_sequence/museum_causal/museum_causal_ten.png"" class=""exp-image"">
                    <div class=""question-area"">
                        <p style=""font-size: 20px; font-weight: bold; margin: 0;"">Is there a person in this image?</p>
                    </div>
                </div>","0","main_experiment_trial","ten","museum_causal","causal_sequence","chronological","","","","","","",""
"","","","","","html-keyboard-response","37","133227","0.0-37.0","E34E2DEE098B4170986DBCBF7C5BF11B","019dac66-b74c-7fbc-a381-2ac7840b8890","019dac5b-243f-7307-af64-a10f53f1ef70","","null","<div style=""background-color: white; width: 100vw; height: 100vh;""></div>","null","","","","","","","","","","","",""
"","","","","","html-keyboard-response","38","138242","0.0-38.0","E34E2DEE098B4170986DBCBF7C5BF11B","019dac66-b74c-7fbc-a381-2ac7840b8890","019dac5b-243f-7307-af64-a10f53f1ef70","","null","
                <div class=""stimulus-container"">
                    <img src=""images/semantic_sequence/housework_semantic/housework_semantic_1.png"" class=""exp-image"">
                    <div class=""question-area""></div> 
                </div>","null","","","","","","","","","","","",""
"","","","","","html-button-response","39","138717","0.0-39.0","E34E2DEE098B4170986DBCBF7C5BF11B","019dac66-b74c-7fbc-a381-2ac7840b8890","019dac5b-243f-7307-af64-a10f53f1ef70","","474","
                <div class=""stimulus-container"">
                    <img src=""images/semantic_sequence/housework_semantic/housework_semantic_1.png"" class=""exp-image"">
                    <div class=""question-area"">
                        <p style=""font-size: 20px; font-weight: bold; margin: 0;"">Is there a person in this image?</p>
                    </div>
                </div>","0","main_experiment_trial","1","housework_semantic","semantic_sequence","chronological","","","","","","",""
"","","","","","html-keyboard-response","40","143725","0.0-40.0","E34E2DEE098B4170986DBCBF7C5BF11B","019dac66-b74c-7fbc-a381-2ac7840b8890","019dac5b-243f-7307-af64-a10f53f1ef70","","null","
                <div class=""stimulus-container"">
                    <img src=""images/semantic_sequence/housework_semantic/housework_semantic_2.png"" class=""exp-image"">
                    <div class=""question-area""></div> 
                </div>","null","","","","","","","","","","","",""
"","","","","","html-button-response","41","144096","0.0-41.0","E34E2DEE098B4170986DBCBF7C5BF11B","019dac66-b74c-7fbc-a381-2ac7840b8890","019dac5b-243f-7307-af64-a10f53f1ef70","","371","
                <div class=""stimulus-container"">
                    <img src=""images/semantic_sequence/housework_semantic/housework_semantic_2.png"" class=""exp-image"">
                    <div class=""question-area"">
                        <p style=""font-size: 20px; font-weight: bold; margin: 0;"">Is there a person in this image?</p>
                    </div>
                </div>","0","main_experiment_trial","2","housework_semantic","semantic_sequence","chronological","","","","","","",""
"","","","","","html-keyboard-response","42","149109","0.0-42.0","E34E2DEE098B4170986DBCBF7C5BF11B","019dac66-b74c-7fbc-a381-2ac7840b8890","019dac5b-243f-7307-af64-a10f53f1ef70","","null","
                <div class=""stimulus-container"">
                    <img src=""images/semantic_sequence/housework_semantic/housework_semantic_3.png"" class=""exp-image"">
                    <div class=""question-area""></div> 
                </div>","null","","","","","","","","","","","",""
"","","","","","html-button-response","43","149478","0.0-43.0","E34E2DEE098B4170986DBCBF7C5BF11B","019dac66-b74c-7fbc-a381-2ac7840b8890","019dac5b-243f-7307-af64-a10f53f1ef70","","369","
                <div class=""stimulus-container"">
                    <img src=""images/semantic_sequence/housework_semantic/housework_semantic_3.png"" class=""exp-image"">
                    <div class=""question-area"">
                        <p style=""font-size: 20px; font-weight: bold; margin: 0;"">Is there a person in this image?</p>
                    </div>
                </div>","0","main_experiment_trial","3","housework_semantic","semantic_sequence","chronological","","","","","","",""
"","","","","","html-keyboard-response","44","154491","0.0-44.0","E34E2DEE098B4170986DBCBF7C5BF11B","019dac66-b74c-7fbc-a381-2ac7840b8890","019dac5b-243f-7307-af64-a10f53f1ef70","","null","
                <div class=""stimulus-container"">
                    <img src=""images/semantic_sequence/housework_semantic/housework_semantic_4.png"" class=""exp-image"">
                    <div class=""question-area""></div> 
                </div>","null","","","","","","","","","","","",""
"","","","","","html-button-response","45","154873","0.0-45.0","E34E2DEE098B4170986DBCBF7C5BF11B","019dac66-b74c-7fbc-a381-2ac7840b8890","019dac5b-243f-7307-af64-a10f53f1ef70","","381","
                <div class=""stimulus-container"">
                    <img src=""images/semantic_sequence/housework_semantic/housework_semantic_4.png"" class=""exp-image"">
                    <div class=""question-area"">
                        <p style=""font-size: 20px; font-weight: bold; margin: 0;"">Is there a person in this image?</p>
                    </div>
                </div>","0","main_experiment_trial","4","housework_semantic","semantic_sequence","chronological","","","","","","",""
"","","","","","html-keyboard-response","46","159876","0.0-46.0","E34E2DEE098B4170986DBCBF7C5BF11B","019dac66-b74c-7fbc-a381-2ac7840b8890","019dac5b-243f-7307-af64-a10f53f1ef70","","null","
                <div class=""stimulus-container"">
                    <img src=""images/semantic_sequence/housework_semantic/housework_semantic_5.png"" class=""exp-image"">
                    <div class=""question-area""></div> 
                </div>","null","","","","","","","","","","","",""
"","","","","","html-button-response","47","160256","0.0-47.0","E34E2DEE098B4170986DBCBF7C5BF11B","019dac66-b74c-7fbc-a381-2ac7840b8890","019dac5b-243f-7307-af64-a10f53f1ef70","","379","
                <div class=""stimulus-container"">
                    <img src=""images/semantic_sequence/housework_semantic/housework_semantic_5.png"" class=""exp-image"">
                    <div class=""question-area"">
                        <p style=""font-size: 20px; font-weight: bold; margin: 0;"">Is there a person in this image?</p>
                    </div>
                </div>","0","main_experiment_trial","5","housework_semantic","semantic_sequence","chronological","","","","","","",""
"","","","","","html-keyboard-response","48","165258","0.0-48.0","E34E2DEE098B4170986DBCBF7C5BF11B","019dac66-b74c-7fbc-a381-2ac7840b8890","019dac5b-243f-7307-af64-a10f53f1ef70","","null","
                <div class=""stimulus-container"">
                    <img src=""images/semantic_sequence/housework_semantic/housework_semantic_6.png"" class=""exp-image"">
                    <div class=""question-area""></div> 
                </div>","null","","","","","","","","","","","",""
"","","","","","html-button-response","49","165586","0.0-49.0","E34E2DEE098B4170986DBCBF7C5BF11B","019dac66-b74c-7fbc-a381-2ac7840b8890","019dac5b-243f-7307-af64-a10f53f1ef70","","327","
                <div class=""stimulus-container"">
                    <img src=""images/semantic_sequence/housework_semantic/housework_semantic_6.png"" class=""exp-image"">
                    <div class=""question-area"">
                        <p style=""font-size: 20px; font-weight: bold; margin: 0;"">Is there a person in this image?</p>
                    </div>
                </div>","0","main_experiment_trial","6","housework_semantic","semantic_sequence","chronological","","","","","","",""
"","","","","","html-keyboard-response","50","170592","0.0-50.0","E34E2DEE098B4170986DBCBF7C5BF11B","019dac66-b74c-7fbc-a381-2ac7840b8890","019dac5b-243f-7307-af64-a10f53f1ef70","","null","
                <div class=""stimulus-container"">
                    <img src=""images/semantic_sequence/housework_semantic/housework_semantic_7.png"" class=""exp-image"">
                    <div class=""question-area""></div> 
                </div>","null","","","","","","","","","","","",""
"","","","","","html-button-response","51","170969","0.0-51.0","E34E2DEE098B4170986DBCBF7C5BF11B","019dac66-b74c-7fbc-a381-2ac7840b8890","019dac5b-243f-7307-af64-a10f53f1ef70","","377","
                <div class=""stimulus-container"">
                    <img src=""images/semantic_sequence/housework_semantic/housework_semantic_7.png"" class=""exp-image"">
                    <div class=""question-area"">
                        <p style=""font-size: 20px; font-weight: bold; margin: 0;"">Is there a person in this image?</p>
                    </div>
                </div>","0","main_experiment_trial","7","housework_semantic","semantic_sequence","chronological","","","","","","",""
"","","","","","html-keyboard-response","52","175975","0.0-52.0","E34E2DEE098B4170986DBCBF7C5BF11B","019dac66-b74c-7fbc-a381-2ac7840b8890","019dac5b-243f-7307-af64-a10f53f1ef70","","null","
                <div class=""stimulus-container"">
                    <img src=""images/semantic_sequence/housework_semantic/housework_semantic_8.png"" class=""exp-image"">
                    <div class=""question-area""></div> 
                </div>","null","","","","","","","","","","","",""
"","","","","","html-button-response","53","176368","0.0-53.0","E34E2DEE098B4170986DBCBF7C5BF11B","019dac66-b74c-7fbc-a381-2ac7840b8890","019dac5b-243f-7307-af64-a10f53f1ef70","","392","
                <div class=""stimulus-container"">
                    <img src=""images/semantic_sequence/housework_semantic/housework_semantic_8.png"" class=""exp-image"">
                    <div class=""question-area"">
                        <p style=""font-size: 20px; font-weight: bold; margin: 0;"">Is there a person in this image?</p>
                    </div>
                </div>","0","main_experiment_trial","8","housework_semantic","semantic_sequence","chronological","","","","","","",""
"","","","","","html-keyboard-response","54","181377","0.0-54.0","E34E2DEE098B4170986DBCBF7C5BF11B","019dac66-b74c-7fbc-a381-2ac7840b8890","019dac5b-243f-7307-af64-a10f53f1ef70","","null","
                <div class=""stimulus-container"">
                    <img src=""images/semantic_sequence/housework_semantic/housework_semantic_9.png"" class=""exp-image"">
                    <div class=""question-area""></div> 
                </div>","null","","","","","","","","","","","",""
"","","","","","html-button-response","55","181846","0.0-55.0","E34E2DEE098B4170986DBCBF7C5BF11B","019dac66-b74c-7fbc-a381-2ac7840b8890","019dac5b-243f-7307-af64-a10f53f1ef70","","468","
                <div class=""stimulus-container"">
                    <img src=""images/semantic_sequence/housework_semantic/housework_semantic_9.png"" class=""exp-image"">
                    <div class=""question-area"">
                        <p style=""font-size: 20px; font-weight: bold; margin: 0;"">Is there a person in this image?</p>
                    </div>
                </div>","0","main_experiment_trial","9","housework_semantic","semantic_sequence","chronological","","","","","","",""
"","","","","","html-keyboard-response","56","186859","0.0-56.0","E34E2DEE098B4170986DBCBF7C5BF11B","019dac66-b74c-7fbc-a381-2ac7840b8890","019dac5b-243f-7307-af64-a10f53f1ef70","","null","
                <div class=""stimulus-container"">
                    <img src=""images/semantic_sequence/housework_semantic/housework_semantic_ten.png"" class=""exp-image"">
                    <div class=""question-area""></div> 
                </div>","null","","","","","","","","","","","",""
"","","","","","html-button-response","57","187209","0.0-57.0","E34E2DEE098B4170986DBCBF7C5BF11B","019dac66-b74c-7fbc-a381-2ac7840b8890","019dac5b-243f-7307-af64-a10f53f1ef70","","349","
                <div class=""stimulus-container"">
                    <img src=""images/semantic_sequence/housework_semantic/housework_semantic_ten.png"" class=""exp-image"">
                    <div class=""question-area"">
                        <p style=""font-size: 20px; font-weight: bold; margin: 0;"">Is there a person in this image?</p>
                    </div>
                </div>","0","main_experiment_trial","ten","housework_semantic","semantic_sequence","chronological","","","","","","",""
"","","","","","html-keyboard-response","58","192226","0.0-58.0","E34E2DEE098B4170986DBCBF7C5BF11B","019dac66-b74c-7fbc-a381-2ac7840b8890","019dac5b-243f-7307-af64-a10f53f1ef70","","null","<div style=""background-color: white; width: 100vw; height: 100vh;""></div>","null","","","","","","","","","","","",""
"","","","","","html-keyboard-response","59","197242","0.0-59.0","E34E2DEE098B4170986DBCBF7C5BF11B","019dac66-b74c-7fbc-a381-2ac7840b8890","019dac5b-243f-7307-af64-a10f53f1ef70","","null","
                <div class=""stimulus-container"">
                    <img src=""images/causal_sequence/saving_a_cat_causal/saving_a_cat_causal_1.png"" class=""exp-image"">
                    <div class=""question-area""></div> 
                </div>","null","","","","","","","","","","","",""
"","","","","","html-button-response","60","197938","0.0-60.0","E34E2DEE098B4170986DBCBF7C5BF11B","019dac66-b74c-7fbc-a381-2ac7840b8890","019dac5b-243f-7307-af64-a10f53f1ef70","","695","
                <div class=""stimulus-container"">
                    <img src=""images/causal_sequence/saving_a_cat_causal/saving_a_cat_causal_1.png"" class=""exp-image"">
                    <div class=""question-area"">
                        <p style=""font-size: 20px; font-weight: bold; margin: 0;"">Is there a person in this image?</p>
                    </div>
                </div>","0","main_experiment_trial","1","saving_a_cat_causal","causal_sequence","chronological","","","","","","",""
"","","","","","html-keyboard-response","61","202943","0.0-61.0","E34E2DEE098B4170986DBCBF7C5BF11B","019dac66-b74c-7fbc-a381-2ac7840b8890","019dac5b-243f-7307-af64-a10f53f1ef70","","null","
                <div class=""stimulus-container"">
                    <img src=""images/causal_sequence/saving_a_cat_causal/saving_a_cat_causal_2.png"" class=""exp-image"">
                    <div class=""question-area""></div> 
                </div>","null","","","","","","","","","","","",""
"","","","","","html-button-response","62","203361","0.0-62.0","E34E2DEE098B4170986DBCBF7C5BF11B","019dac66-b74c-7fbc-a381-2ac7840b8890","019dac5b-243f-7307-af64-a10f53f1ef70","","416","
                <div class=""stimulus-container"">
                    <img src=""images/causal_sequence/saving_a_cat_causal/saving_a_cat_causal_2.png"" class=""exp-image"">
                    <div class=""question-area"">
                        <p style=""font-size: 20px; font-weight: bold; margin: 0;"">Is there a person in this image?</p>
                    </div>
                </div>","1","main_experiment_trial","2","saving_a_cat_causal","causal_sequence","chronological","","","","","","",""
"","","","","","html-keyboard-response","63","208375","0.0-63.0","E34E2DEE098B4170986DBCBF7C5BF11B","019dac66-b74c-7fbc-a381-2ac7840b8890","019dac5b-243f-7307-af64-a10f53f1ef70","","null","
                <div class=""stimulus-container"">
                    <img src=""images/causal_sequence/saving_a_cat_causal/saving_a_cat_causal_3.png"" class=""exp-image"">
                    <div class=""question-area""></div> 
                </div>","null","","","","","","","","","","","",""
"","","","","","html-button-response","64","208816","0.0-64.0","E34E2DEE098B4170986DBCBF7C5BF11B","019dac66-b74c-7fbc-a381-2ac7840b8890","019dac5b-243f-7307-af64-a10f53f1ef70","","441","
                <div class=""stimulus-container"">
                    <img src=""images/causal_sequence/saving_a_cat_causal/saving_a_cat_causal_3.png"" class=""exp-image"">
                    <div class=""question-area"">
                        <p style=""font-size: 20px; font-weight: bold; margin: 0;"">Is there a person in this image?</p>
                    </div>
                </div>","1","main_experiment_trial","3","saving_a_cat_causal","causal_sequence","chronological","","","","","","",""
"","","","","","html-keyboard-response","65","213826","0.0-65.0","E34E2DEE098B4170986DBCBF7C5BF11B","019dac66-b74c-7fbc-a381-2ac7840b8890","019dac5b-243f-7307-af64-a10f53f1ef70","","null","
                <div class=""stimulus-container"">
                    <img src=""images/causal_sequence/saving_a_cat_causal/saving_a_cat_causal_4.png"" class=""exp-image"">
                    <div class=""question-area""></div> 
                </div>","null","","","","","","","","","","","",""
"","","","","","html-button-response","66","215335","0.0-66.0","E34E2DEE098B4170986DBCBF7C5BF11B","019dac66-b74c-7fbc-a381-2ac7840b8890","019dac5b-243f-7307-af64-a10f53f1ef70","","1508","
                <div class=""stimulus-container"">
                    <img src=""images/causal_sequence/saving_a_cat_causal/saving_a_cat_causal_4.png"" class=""exp-image"">
                    <div class=""question-area"">
                        <p style=""font-size: 20px; font-weight: bold; margin: 0;"">Is there a person in this image?</p>
                    </div>
                </div>","0","main_experiment_trial","4","saving_a_cat_causal","causal_sequence","chronological","","","","","","",""
"","","","","","html-keyboard-response","67","220341","0.0-67.0","E34E2DEE098B4170986DBCBF7C5BF11B","019dac66-b74c-7fbc-a381-2ac7840b8890","019dac5b-243f-7307-af64-a10f53f1ef70","","null","
                <div class=""stimulus-container"">
                    <img src=""images/causal_sequence/saving_a_cat_causal/saving_a_cat_causal_5.png"" class=""exp-image"">
                    <div class=""question-area""></div> 
                </div>","null","","","","","","","","","","","",""
"","","","","","html-button-response","68","220758","0.0-68.0","E34E2DEE098B4170986DBCBF7C5BF11B","019dac66-b74c-7fbc-a381-2ac7840b8890","019dac5b-243f-7307-af64-a10f53f1ef70","","416","
                <div class=""stimulus-container"">
                    <img src=""images/causal_sequence/saving_a_cat_causal/saving_a_cat_causal_5.png"" class=""exp-image"">
                    <div class=""question-area"">
                        <p style=""font-size: 20px; font-weight: bold; margin: 0;"">Is there a person in this image?</p>
                    </div>
                </div>","0","main_experiment_trial","5","saving_a_cat_causal","causal_sequence","chronological","","","","","","",""
"","","","","","html-keyboard-response","69","225760","0.0-69.0","E34E2DEE098B4170986DBCBF7C5BF11B","019dac66-b74c-7fbc-a381-2ac7840b8890","019dac5b-243f-7307-af64-a10f53f1ef70","","null","
                <div class=""stimulus-container"">
                    <img src=""images/causal_sequence/saving_a_cat_causal/saving_a_cat_causal_6.png"" class=""exp-image"">
                    <div class=""question-area""></div> 
                </div>","null","","","","","","","","","","","",""
"","","","","","html-button-response","70","226160","0.0-70.0","E34E2DEE098B4170986DBCBF7C5BF11B","019dac66-b74c-7fbc-a381-2ac7840b8890","019dac5b-243f-7307-af64-a10f53f1ef70","","399","
                <div class=""stimulus-container"">
                    <img src=""images/causal_sequence/saving_a_cat_causal/saving_a_cat_causal_6.png"" class=""exp-image"">
                    <div class=""question-area"">
                        <p style=""font-size: 20px; font-weight: bold; margin: 0;"">Is there a person in this image?</p>
                    </div>
                </div>","0","main_experiment_trial","6","saving_a_cat_causal","causal_sequence","chronological","","","","","","",""
"","","","","","html-keyboard-response","71","231176","0.0-71.0","E34E2DEE098B4170986DBCBF7C5BF11B","019dac66-b74c-7fbc-a381-2ac7840b8890","019dac5b-243f-7307-af64-a10f53f1ef70","","null","
                <div class=""stimulus-container"">
                    <img src=""images/causal_sequence/saving_a_cat_causal/saving_a_cat_causal_7.png"" class=""exp-image"">
                    <div class=""question-area""></div> 
                </div>","null","","","","","","","","","","","",""
"","","","","","html-button-response","72","231671","0.0-72.0","E34E2DEE098B4170986DBCBF7C5BF11B","019dac66-b74c-7fbc-a381-2ac7840b8890","019dac5b-243f-7307-af64-a10f53f1ef70","","494","
                <div class=""stimulus-container"">
                    <img src=""images/causal_sequence/saving_a_cat_causal/saving_a_cat_causal_7.png"" class=""exp-image"">
                    <div class=""question-area"">
                        <p style=""font-size: 20px; font-weight: bold; margin: 0;"">Is there a person in this image?</p>
                    </div>
                </div>","0","main_experiment_trial","7","saving_a_cat_causal","causal_sequence","chronological","","","","","","",""
"","","","","","html-keyboard-response","73","236675","0.0-73.0","E34E2DEE098B4170986DBCBF7C5BF11B","019dac66-b74c-7fbc-a381-2ac7840b8890","019dac5b-243f-7307-af64-a10f53f1ef70","","null","
                <div class=""stimulus-container"">
                    <img src=""images/causal_sequence/saving_a_cat_causal/saving_a_cat_causal_8.png"" class=""exp-image"">
                    <div class=""question-area""></div> 
                </div>","null","","","","","","","","","","","",""
"","","","","","html-button-response","74","237038","0.0-74.0","E34E2DEE098B4170986DBCBF7C5BF11B","019dac66-b74c-7fbc-a381-2ac7840b8890","019dac5b-243f-7307-af64-a10f53f1ef70","","362","
                <div class=""stimulus-container"">
                    <img src=""images/causal_sequence/saving_a_cat_causal/saving_a_cat_causal_8.png"" class=""exp-image"">
                    <div class=""question-area"">
                        <p style=""font-size: 20px; font-weight: bold; margin: 0;"">Is there a person in this image?</p>
                    </div>
                </div>","0","main_experiment_trial","8","saving_a_cat_causal","causal_sequence","chronological","","","","","","",""
"","","","","","html-keyboard-response","75","242043","0.0-75.0","E34E2DEE098B4170986DBCBF7C5BF11B","019dac66-b74c-7fbc-a381-2ac7840b8890","019dac5b-243f-7307-af64-a10f53f1ef70","","null","
                <div class=""stimulus-container"">
                    <img src=""images/causal_sequence/saving_a_cat_causal/saving_a_cat_causal_9.png"" class=""exp-image"">
                    <div class=""question-area""></div> 
                </div>","null","","","","","","","","","","","",""
"","","","","","html-button-response","76","242745","0.0-76.0","E34E2DEE098B4170986DBCBF7C5BF11B","019dac66-b74c-7fbc-a381-2ac7840b8890","019dac5b-243f-7307-af64-a10f53f1ef70","","701","
                <div class=""stimulus-container"">
                    <img src=""images/causal_sequence/saving_a_cat_causal/saving_a_cat_causal_9.png"" class=""exp-image"">
                    <div class=""question-area"">
                        <p style=""font-size: 20px; font-weight: bold; margin: 0;"">Is there a person in this image?</p>
                    </div>
                </div>","0","main_experiment_trial","9","saving_a_cat_causal","causal_sequence","chronological","","","","","","",""
"","","","","","html-keyboard-response","77","247760","0.0-77.0","E34E2DEE098B4170986DBCBF7C5BF11B","019dac66-b74c-7fbc-a381-2ac7840b8890","019dac5b-243f-7307-af64-a10f53f1ef70","","null","
                <div class=""stimulus-container"">
                    <img src=""images/causal_sequence/saving_a_cat_causal/saving_a_cat_causal_ten.png"" class=""exp-image"">
                    <div class=""question-area""></div> 
                </div>","null","","","","","","","","","","","",""
"","","","","","html-button-response","78","248127","0.0-78.0","E34E2DEE098B4170986DBCBF7C5BF11B","019dac66-b74c-7fbc-a381-2ac7840b8890","019dac5b-243f-7307-af64-a10f53f1ef70","","365","
                <div class=""stimulus-container"">
                    <img src=""images/causal_sequence/saving_a_cat_causal/saving_a_cat_causal_ten.png"" class=""exp-image"">
                    <div class=""question-area"">
                        <p style=""font-size: 20px; font-weight: bold; margin: 0;"">Is there a person in this image?</p>
                    </div>
                </div>","0","main_experiment_trial","ten","saving_a_cat_causal","causal_sequence","chronological","","","","","","",""
"","","","","","html-keyboard-response","79","253131","0.0-79.0","E34E2DEE098B4170986DBCBF7C5BF11B","019dac66-b74c-7fbc-a381-2ac7840b8890","019dac5b-243f-7307-af64-a10f53f1ef70","","null","<div style=""background-color: white; width: 100vw; height: 100vh;""></div>","null","","","","","","","","","","","",""
"","","","","","html-keyboard-response","80","258144","0.0-80.0","E34E2DEE098B4170986DBCBF7C5BF11B","019dac66-b74c-7fbc-a381-2ac7840b8890","019dac5b-243f-7307-af64-a10f53f1ef70","","null","
                <div class=""stimulus-container"">
                    <img src=""images/semantic_sequence/maintaining_a_car_semantic/maintaining_a_car_semantic_1.png"" class=""exp-image"">
                    <div class=""question-area""></div> 
                </div>","null","","","","","","","","","","","",""
"","","","","","html-button-response","81","259001","0.0-81.0","E34E2DEE098B4170986DBCBF7C5BF11B","019dac66-b74c-7fbc-a381-2ac7840b8890","019dac5b-243f-7307-af64-a10f53f1ef70","","856","
                <div class=""stimulus-container"">
                    <img src=""images/semantic_sequence/maintaining_a_car_semantic/maintaining_a_car_semantic_1.png"" class=""exp-image"">
                    <div class=""question-area"">
                        <p style=""font-size: 20px; font-weight: bold; margin: 0;"">Is there a person in this image?</p>
                    </div>
                </div>","0","main_experiment_trial","1","maintaining_a_car_semantic","semantic_sequence","chronological","","","","","","",""
"","","","","","html-keyboard-response","82","264008","0.0-82.0","E34E2DEE098B4170986DBCBF7C5BF11B","019dac66-b74c-7fbc-a381-2ac7840b8890","019dac5b-243f-7307-af64-a10f53f1ef70","","null","
                <div class=""stimulus-container"">
                    <img src=""images/semantic_sequence/maintaining_a_car_semantic/maintaining_a_car_semantic_2.png"" class=""exp-image"">
                    <div class=""question-area""></div> 
                </div>","null","","","","","","","","","","","",""
"","","","","","html-button-response","83","264395","0.0-83.0","E34E2DEE098B4170986DBCBF7C5BF11B","019dac66-b74c-7fbc-a381-2ac7840b8890","019dac5b-243f-7307-af64-a10f53f1ef70","","386","
                <div class=""stimulus-container"">
                    <img src=""images/semantic_sequence/maintaining_a_car_semantic/maintaining_a_car_semantic_2.png"" class=""exp-image"">
                    <div class=""question-area"">
                        <p style=""font-size: 20px; font-weight: bold; margin: 0;"">Is there a person in this image?</p>
                    </div>
                </div>","0","main_experiment_trial","2","maintaining_a_car_semantic","semantic_sequence","chronological","","","","","","",""
"","","","","","html-keyboard-response","84","269409","0.0-84.0","E34E2DEE098B4170986DBCBF7C5BF11B","019dac66-b74c-7fbc-a381-2ac7840b8890","019dac5b-243f-7307-af64-a10f53f1ef70","","null","
                <div class=""stimulus-container"">
                    <img src=""images/semantic_sequence/maintaining_a_car_semantic/maintaining_a_car_semantic_3.png"" class=""exp-image"">
                    <div class=""question-area""></div> 
                </div>","null","","","","","","","","","","","",""
"","","","","","html-button-response","85","269878","0.0-85.0","E34E2DEE098B4170986DBCBF7C5BF11B","019dac66-b74c-7fbc-a381-2ac7840b8890","019dac5b-243f-7307-af64-a10f53f1ef70","","468","
                <div class=""stimulus-container"">
                    <img src=""images/semantic_sequence/maintaining_a_car_semantic/maintaining_a_car_semantic_3.png"" class=""exp-image"">
                    <div class=""question-area"">
                        <p style=""font-size: 20px; font-weight: bold; margin: 0;"">Is there a person in this image?</p>
                    </div>
                </div>","0","main_experiment_trial","3","maintaining_a_car_semantic","semantic_sequence","chronological","","","","","","",""
"","","","","","html-keyboard-response","86","274893","0.0-86.0","E34E2DEE098B4170986DBCBF7C5BF11B","019dac66-b74c-7fbc-a381-2ac7840b8890","019dac5b-243f-7307-af64-a10f53f1ef70","","null","
                <div class=""stimulus-container"">
                    <img src=""images/semantic_sequence/maintaining_a_car_semantic/maintaining_a_car_semantic_4.png"" class=""exp-image"">
                    <div class=""question-area""></div> 
                </div>","null","","","","","","","","","","","",""
"","","","","","html-button-response","87","275321","0.0-87.0","E34E2DEE098B4170986DBCBF7C5BF11B","019dac66-b74c-7fbc-a381-2ac7840b8890","019dac5b-243f-7307-af64-a10f53f1ef70","","427","
                <div class=""stimulus-container"">
                    <img src=""images/semantic_sequence/maintaining_a_car_semantic/maintaining_a_car_semantic_4.png"" class=""exp-image"">
                    <div class=""question-area"">
                        <p style=""font-size: 20px; font-weight: bold; margin: 0;"">Is there a person in this image?</p>
                    </div>
                </div>","0","main_experiment_trial","4","maintaining_a_car_semantic","semantic_sequence","chronological","","","","","","",""
"","","","","","html-keyboard-response","88","280327","0.0-88.0","E34E2DEE098B4170986DBCBF7C5BF11B","019dac66-b74c-7fbc-a381-2ac7840b8890","019dac5b-243f-7307-af64-a10f53f1ef70","","null","
                <div class=""stimulus-container"">
                    <img src=""images/semantic_sequence/maintaining_a_car_semantic/maintaining_a_car_semantic_5.png"" class=""exp-image"">
                    <div class=""question-area""></div> 
                </div>","null","","","","","","","","","","","",""
"","","","","","html-button-response","89","280699","0.0-89.0","E34E2DEE098B4170986DBCBF7C5BF11B","019dac66-b74c-7fbc-a381-2ac7840b8890","019dac5b-243f-7307-af64-a10f53f1ef70","","371","
                <div class=""stimulus-container"">
                    <img src=""images/semantic_sequence/maintaining_a_car_semantic/maintaining_a_car_semantic_5.png"" class=""exp-image"">
                    <div class=""question-area"">
                        <p style=""font-size: 20px; font-weight: bold; margin: 0;"">Is there a person in this image?</p>
                    </div>
                </div>","0","main_experiment_trial","5","maintaining_a_car_semantic","semantic_sequence","chronological","","","","","","",""
"","","","","","html-keyboard-response","90","285709","0.0-90.0","E34E2DEE098B4170986DBCBF7C5BF11B","019dac66-b74c-7fbc-a381-2ac7840b8890","019dac5b-243f-7307-af64-a10f53f1ef70","","null","
                <div class=""stimulus-container"">
                    <img src=""images/semantic_sequence/maintaining_a_car_semantic/maintaining_a_car_semantic_6.png"" class=""exp-image"">
                    <div class=""question-area""></div> 
                </div>","null","","","","","","","","","","","",""
"","","","","","html-button-response","91","286282","0.0-91.0","E34E2DEE098B4170986DBCBF7C5BF11B","019dac66-b74c-7fbc-a381-2ac7840b8890","019dac5b-243f-7307-af64-a10f53f1ef70","","573","
                <div class=""stimulus-container"">
                    <img src=""images/semantic_sequence/maintaining_a_car_semantic/maintaining_a_car_semantic_6.png"" class=""exp-image"">
                    <div class=""question-area"">
                        <p style=""font-size: 20px; font-weight: bold; margin: 0;"">Is there a person in this image?</p>
                    </div>
                </div>","0","main_experiment_trial","6","maintaining_a_car_semantic","semantic_sequence","chronological","","","","","","",""
"","","","","","html-keyboard-response","92","291292","0.0-92.0","E34E2DEE098B4170986DBCBF7C5BF11B","019dac66-b74c-7fbc-a381-2ac7840b8890","019dac5b-243f-7307-af64-a10f53f1ef70","","null","
                <div class=""stimulus-container"">
                    <img src=""images/semantic_sequence/maintaining_a_car_semantic/maintaining_a_car_semantic_7.png"" class=""exp-image"">
                    <div class=""question-area""></div> 
                </div>","null","","","","","","","","","","","",""
"","","","","","html-button-response","93","291681","0.0-93.0","E34E2DEE098B4170986DBCBF7C5BF11B","019dac66-b74c-7fbc-a381-2ac7840b8890","019dac5b-243f-7307-af64-a10f53f1ef70","","388","
                <div class=""stimulus-container"">
                    <img src=""images/semantic_sequence/maintaining_a_car_semantic/maintaining_a_car_semantic_7.png"" class=""exp-image"">
                    <div class=""question-area"">
                        <p style=""font-size: 20px; font-weight: bold; margin: 0;"">Is there a person in this image?</p>
                    </div>
                </div>","0","main_experiment_trial","7","maintaining_a_car_semantic","semantic_sequence","chronological","","","","","","",""
"","","","","","html-keyboard-response","94","296692","0.0-94.0","E34E2DEE098B4170986DBCBF7C5BF11B","019dac66-b74c-7fbc-a381-2ac7840b8890","019dac5b-243f-7307-af64-a10f53f1ef70","","null","
                <div class=""stimulus-container"">
                    <img src=""images/semantic_sequence/maintaining_a_car_semantic/maintaining_a_car_semantic_8.png"" class=""exp-image"">
                    <div class=""question-area""></div> 
                </div>","null","","","","","","","","","","","",""
"","","","","","html-button-response","95","297176","0.0-95.0","E34E2DEE098B4170986DBCBF7C5BF11B","019dac66-b74c-7fbc-a381-2ac7840b8890","019dac5b-243f-7307-af64-a10f53f1ef70","","484","
                <div class=""stimulus-container"">
                    <img src=""images/semantic_sequence/maintaining_a_car_semantic/maintaining_a_car_semantic_8.png"" class=""exp-image"">
                    <div class=""question-area"">
                        <p style=""font-size: 20px; font-weight: bold; margin: 0;"">Is there a person in this image?</p>
                    </div>
                </div>","0","main_experiment_trial","8","maintaining_a_car_semantic","semantic_sequence","chronological","","","","","","",""
"","","","","","html-keyboard-response","96","302178","0.0-96.0","E34E2DEE098B4170986DBCBF7C5BF11B","019dac66-b74c-7fbc-a381-2ac7840b8890","019dac5b-243f-7307-af64-a10f53f1ef70","","null","
                <div class=""stimulus-container"">
                    <img src=""images/semantic_sequence/maintaining_a_car_semantic/maintaining_a_car_semantic_9.png"" class=""exp-image"">
                    <div class=""question-area""></div> 
                </div>","null","","","","","","","","","","","",""
"","","","","","html-button-response","97","302850","0.0-97.0","E34E2DEE098B4170986DBCBF7C5BF11B","019dac66-b74c-7fbc-a381-2ac7840b8890","019dac5b-243f-7307-af64-a10f53f1ef70","","671","
                <div class=""stimulus-container"">
                    <img src=""images/semantic_sequence/maintaining_a_car_semantic/maintaining_a_car_semantic_9.png"" class=""exp-image"">
                    <div class=""question-area"">
                        <p style=""font-size: 20px; font-weight: bold; margin: 0;"">Is there a person in this image?</p>
                    </div>
                </div>","0","main_experiment_trial","9","maintaining_a_car_semantic","semantic_sequence","chronological","","","","","","",""
"","","","","","html-keyboard-response","98","307859","0.0-98.0","E34E2DEE098B4170986DBCBF7C5BF11B","019dac66-b74c-7fbc-a381-2ac7840b8890","019dac5b-243f-7307-af64-a10f53f1ef70","","null","
                <div class=""stimulus-container"">
                    <img src=""images/semantic_sequence/maintaining_a_car_semantic/maintaining_a_car_semantic_ten.png"" class=""exp-image"">
                    <div class=""question-area""></div> 
                </div>","null","","","","","","","","","","","",""
"","","","","","html-button-response","99","308497","0.0-99.0","E34E2DEE098B4170986DBCBF7C5BF11B","019dac66-b74c-7fbc-a381-2ac7840b8890","019dac5b-243f-7307-af64-a10f53f1ef70","","636","
                <div class=""stimulus-container"">
                    <img src=""images/semantic_sequence/maintaining_a_car_semantic/maintaining_a_car_semantic_ten.png"" class=""exp-image"">
                    <div class=""question-area"">
                        <p style=""font-size: 20px; font-weight: bold; margin: 0;"">Is there a person in this image?</p>
                    </div>
                </div>","0","main_experiment_trial","ten","maintaining_a_car_semantic","semantic_sequence","chronological","","","","","","",""
"","","","","","html-keyboard-response","100","313509","0.0-100.0","E34E2DEE098B4170986DBCBF7C5BF11B","019dac66-b74c-7fbc-a381-2ac7840b8890","019dac5b-243f-7307-af64-a10f53f1ef70","","null","<div style=""background-color: white; width: 100vw; height: 100vh;""></div>","null","","","","","","","","","","","",""
"","","","","","html-keyboard-response","101","318510","0.0-101.0","E34E2DEE098B4170986DBCBF7C5BF11B","019dac66-b74c-7fbc-a381-2ac7840b8890","019dac5b-243f-7307-af64-a10f53f1ef70","","null","
                <div class=""stimulus-container"">
                    <img src=""images/semantic_sequence/physical_activity_semantic/physical_activity_semantic_1.png"" class=""exp-image"">
                    <div class=""question-area""></div> 
                </div>","null","","","","","","","","","","","",""
"","","","","","html-button-response","102","319263","0.0-102.0","E34E2DEE098B4170986DBCBF7C5BF11B","019dac66-b74c-7fbc-a381-2ac7840b8890","019dac5b-243f-7307-af64-a10f53f1ef70","","753","
                <div class=""stimulus-container"">
                    <img src=""images/semantic_sequence/physical_activity_semantic/physical_activity_semantic_1.png"" class=""exp-image"">
                    <div class=""question-area"">
                        <p style=""font-size: 20px; font-weight: bold; margin: 0;"">Is there a person in this image?</p>
                    </div>
                </div>","0","main_experiment_trial","1","physical_activity_semantic","semantic_sequence","chronological","","","","","","",""
"","","","","","html-keyboard-response","103","324277","0.0-103.0","E34E2DEE098B4170986DBCBF7C5BF11B","019dac66-b74c-7fbc-a381-2ac7840b8890","019dac5b-243f-7307-af64-a10f53f1ef70","","null","
                <div class=""stimulus-container"">
                    <img src=""images/semantic_sequence/physical_activity_semantic/physical_activity_semantic_2.png"" class=""exp-image"">
                    <div class=""question-area""></div> 
                </div>","null","","","","","","","","","","","",""
"","","","","","html-button-response","104","324765","0.0-104.0","E34E2DEE098B4170986DBCBF7C5BF11B","019dac66-b74c-7fbc-a381-2ac7840b8890","019dac5b-243f-7307-af64-a10f53f1ef70","","487","
                <div class=""stimulus-container"">
                    <img src=""images/semantic_sequence/physical_activity_semantic/physical_activity_semantic_2.png"" class=""exp-image"">
                    <div class=""question-area"">
                        <p style=""font-size: 20px; font-weight: bold; margin: 0;"">Is there a person in this image?</p>
                    </div>
                </div>","0","main_experiment_trial","2","physical_activity_semantic","semantic_sequence","chronological","","","","","","",""
"","","","","","html-keyboard-response","105","329777","0.0-105.0","E34E2DEE098B4170986DBCBF7C5BF11B","019dac66-b74c-7fbc-a381-2ac7840b8890","019dac5b-243f-7307-af64-a10f53f1ef70","","null","
                <div class=""stimulus-container"">
                    <img src=""images/semantic_sequence/physical_activity_semantic/physical_activity_semantic_3.png"" class=""exp-image"">
                    <div class=""question-area""></div> 
                </div>","null","","","","","","","","","","","",""
"","","","","","html-button-response","106","330192","0.0-106.0","E34E2DEE098B4170986DBCBF7C5BF11B","019dac66-b74c-7fbc-a381-2ac7840b8890","019dac5b-243f-7307-af64-a10f53f1ef70","","414","
                <div class=""stimulus-container"">
                    <img src=""images/semantic_sequence/physical_activity_semantic/physical_activity_semantic_3.png"" class=""exp-image"">
                    <div class=""question-area"">
                        <p style=""font-size: 20px; font-weight: bold; margin: 0;"">Is there a person in this image?</p>
                    </div>
                </div>","0","main_experiment_trial","3","physical_activity_semantic","semantic_sequence","chronological","","","","","","",""
"","","","","","html-keyboard-response","107","335209","0.0-107.0","E34E2DEE098B4170986DBCBF7C5BF11B","019dac66-b74c-7fbc-a381-2ac7840b8890","019dac5b-243f-7307-af64-a10f53f1ef70","","null","
                <div class=""stimulus-container"">
                    <img src=""images/semantic_sequence/physical_activity_semantic/physical_activity_semantic_4.png"" class=""exp-image"">
                    <div class=""question-area""></div> 
                </div>","null","","","","","","","","","","","",""
"","","","","","html-button-response","108","336035","0.0-108.0","E34E2DEE098B4170986DBCBF7C5BF11B","019dac66-b74c-7fbc-a381-2ac7840b8890","019dac5b-243f-7307-af64-a10f53f1ef70","","826","
                <div class=""stimulus-container"">
                    <img src=""images/semantic_sequence/physical_activity_semantic/physical_activity_semantic_4.png"" class=""exp-image"">
                    <div class=""question-area"">
                        <p style=""font-size: 20px; font-weight: bold; margin: 0;"">Is there a person in this image?</p>
                    </div>
                </div>","0","main_experiment_trial","4","physical_activity_semantic","semantic_sequence","chronological","","","","","","",""
"","","","","","html-keyboard-response","109","341043","0.0-109.0","E34E2DEE098B4170986DBCBF7C5BF11B","019dac66-b74c-7fbc-a381-2ac7840b8890","019dac5b-243f-7307-af64-a10f53f1ef70","","null","
                <div class=""stimulus-container"">
                    <img src=""images/semantic_sequence/physical_activity_semantic/physical_activity_semantic_5.png"" class=""exp-image"">
                    <div class=""question-area""></div> 
                </div>","null","","","","","","","","","","","",""
"","","","","","html-button-response","110","341450","0.0-110.0","E34E2DEE098B4170986DBCBF7C5BF11B","019dac66-b74c-7fbc-a381-2ac7840b8890","019dac5b-243f-7307-af64-a10f53f1ef70","","406","
                <div class=""stimulus-container"">
                    <img src=""images/semantic_sequence/physical_activity_semantic/physical_activity_semantic_5.png"" class=""exp-image"">
                    <div class=""question-area"">
                        <p style=""font-size: 20px; font-weight: bold; margin: 0;"">Is there a person in this image?</p>
                    </div>
                </div>","0","main_experiment_trial","5","physical_activity_semantic","semantic_sequence","chronological","","","","","","",""
"","","","","","html-keyboard-response","111","346458","0.0-111.0","E34E2DEE098B4170986DBCBF7C5BF11B","019dac66-b74c-7fbc-a381-2ac7840b8890","019dac5b-243f-7307-af64-a10f53f1ef70","","null","
                <div class=""stimulus-container"">
                    <img src=""images/semantic_sequence/physical_activity_semantic/physical_activity_semantic_6.png"" class=""exp-image"">
                    <div class=""question-area""></div> 
                </div>","null","","","","","","","","","","","",""
"","","","","","html-button-response","112","346844","0.0-112.0","E34E2DEE098B4170986DBCBF7C5BF11B","019dac66-b74c-7fbc-a381-2ac7840b8890","019dac5b-243f-7307-af64-a10f53f1ef70","","385","
                <div class=""stimulus-container"">
                    <img src=""images/semantic_sequence/physical_activity_semantic/physical_activity_semantic_6.png"" class=""exp-image"">
                    <div class=""question-area"">
                        <p style=""font-size: 20px; font-weight: bold; margin: 0;"">Is there a person in this image?</p>
                    </div>
                </div>","0","main_experiment_trial","6","physical_activity_semantic","semantic_sequence","chronological","","","","","","",""
"","","","","","html-keyboard-response","113","351859","0.0-113.0","E34E2DEE098B4170986DBCBF7C5BF11B","019dac66-b74c-7fbc-a381-2ac7840b8890","019dac5b-243f-7307-af64-a10f53f1ef70","","null","
                <div class=""stimulus-container"">
                    <img src=""images/semantic_sequence/physical_activity_semantic/physical_activity_semantic_7.png"" class=""exp-image"">
                    <div class=""question-area""></div> 
                </div>","null","","","","","","","","","","","",""
"","","","","","html-button-response","114","354861","0.0-114.0","E34E2DEE098B4170986DBCBF7C5BF11B","019dac66-b74c-7fbc-a381-2ac7840b8890","019dac5b-243f-7307-af64-a10f53f1ef70","","null","
                <div class=""stimulus-container"">
                    <img src=""images/semantic_sequence/physical_activity_semantic/physical_activity_semantic_7.png"" class=""exp-image"">
                    <div class=""question-area"">
                        <p style=""font-size: 20px; font-weight: bold; margin: 0;"">Is there a person in this image?</p>
                    </div>
                </div>","null","main_experiment_trial","7","physical_activity_semantic","semantic_sequence","chronological","","","","","","",""
"","","","","","html-keyboard-response","115","359875","0.0-115.0","E34E2DEE098B4170986DBCBF7C5BF11B","019dac66-b74c-7fbc-a381-2ac7840b8890","019dac5b-243f-7307-af64-a10f53f1ef70","","null","
                <div class=""stimulus-container"">
                    <img src=""images/semantic_sequence/physical_activity_semantic/physical_activity_semantic_8.png"" class=""exp-image"">
                    <div class=""question-area""></div> 
                </div>","null","","","","","","","","","","","",""
"","","","","","html-button-response","116","360291","0.0-116.0","E34E2DEE098B4170986DBCBF7C5BF11B","019dac66-b74c-7fbc-a381-2ac7840b8890","019dac5b-243f-7307-af64-a10f53f1ef70","","415","
                <div class=""stimulus-container"">
                    <img src=""images/semantic_sequence/physical_activity_semantic/physical_activity_semantic_8.png"" class=""exp-image"">
                    <div class=""question-area"">
                        <p style=""font-size: 20px; font-weight: bold; margin: 0;"">Is there a person in this image?</p>
                    </div>
                </div>","0","main_experiment_trial","8","physical_activity_semantic","semantic_sequence","chronological","","","","","","",""
"","","","","","html-keyboard-response","117","365294","0.0-117.0","E34E2DEE098B4170986DBCBF7C5BF11B","019dac66-b74c-7fbc-a381-2ac7840b8890","019dac5b-243f-7307-af64-a10f53f1ef70","","null","
                <div class=""stimulus-container"">
                    <img src=""images/semantic_sequence/physical_activity_semantic/physical_activity_semantic_9.png"" class=""exp-image"">
                    <div class=""question-area""></div> 
                </div>","null","","","","","","","","","","","",""
"","","","","","html-button-response","118","366078","0.0-118.0","E34E2DEE098B4170986DBCBF7C5BF11B","019dac66-b74c-7fbc-a381-2ac7840b8890","019dac5b-243f-7307-af64-a10f53f1ef70","","783","
                <div class=""stimulus-container"">
                    <img src=""images/semantic_sequence/physical_activity_semantic/physical_activity_semantic_9.png"" class=""exp-image"">
                    <div class=""question-area"">
                        <p style=""font-size: 20px; font-weight: bold; margin: 0;"">Is there a person in this image?</p>
                    </div>
                </div>","0","main_experiment_trial","9","physical_activity_semantic","semantic_sequence","chronological","","","","","","",""
"","","","","","html-keyboard-response","119","371092","0.0-119.0","E34E2DEE098B4170986DBCBF7C5BF11B","019dac66-b74c-7fbc-a381-2ac7840b8890","019dac5b-243f-7307-af64-a10f53f1ef70","","null","
                <div class=""stimulus-container"">
                    <img src=""images/semantic_sequence/physical_activity_semantic/physical_activity_semantic_ten.png"" class=""exp-image"">
                    <div class=""question-area""></div> 
                </div>","null","","","","","","","","","","","",""
"","","","","","html-button-response","120","371597","0.0-120.0","E34E2DEE098B4170986DBCBF7C5BF11B","019dac66-b74c-7fbc-a381-2ac7840b8890","019dac5b-243f-7307-af64-a10f53f1ef70","","504","
                <div class=""stimulus-container"">
                    <img src=""images/semantic_sequence/physical_activity_semantic/physical_activity_semantic_ten.png"" class=""exp-image"">
                    <div class=""question-area"">
                        <p style=""font-size: 20px; font-weight: bold; margin: 0;"">Is there a person in this image?</p>
                    </div>
                </div>","0","main_experiment_trial","ten","physical_activity_semantic","semantic_sequence","chronological","","","","","","",""
"","","","","","html-keyboard-response","121","376610","0.0-121.0","E34E2DEE098B4170986DBCBF7C5BF11B","019dac66-b74c-7fbc-a381-2ac7840b8890","019dac5b-243f-7307-af64-a10f53f1ef70","","null","<div style=""background-color: white; width: 100vw; height: 100vh;""></div>","null","","","","","","","","","","","",""
"","","","","","html-keyboard-response","122","381625","0.0-122.0","E34E2DEE098B4170986DBCBF7C5BF11B","019dac66-b74c-7fbc-a381-2ac7840b8890","019dac5b-243f-7307-af64-a10f53f1ef70","","null","
                <div class=""stimulus-container"">
                    <img src=""images/semantic_sequence/self_care_activities_semantic/self_care_activities_semantic_1.png"" class=""exp-image"">
                    <div class=""question-area""></div> 
                </div>","null","","","","","","","","","","","",""
"","","","","","html-button-response","123","382082","0.0-123.0","E34E2DEE098B4170986DBCBF7C5BF11B","019dac66-b74c-7fbc-a381-2ac7840b8890","019dac5b-243f-7307-af64-a10f53f1ef70","","456","
                <div class=""stimulus-container"">
                    <img src=""images/semantic_sequence/self_care_activities_semantic/self_care_activities_semantic_1.png"" class=""exp-image"">
                    <div class=""question-area"">
                        <p style=""font-size: 20px; font-weight: bold; margin: 0;"">Is there a person in this image?</p>
                    </div>
                </div>","0","main_experiment_trial","1","self_care_activities_semantic","semantic_sequence","chronological","","","","","","",""
"","","","","","html-keyboard-response","124","387092","0.0-124.0","E34E2DEE098B4170986DBCBF7C5BF11B","019dac66-b74c-7fbc-a381-2ac7840b8890","019dac5b-243f-7307-af64-a10f53f1ef70","","null","
                <div class=""stimulus-container"">
                    <img src=""images/semantic_sequence/self_care_activities_semantic/self_care_activities_semantic_2.png"" class=""exp-image"">
                    <div class=""question-area""></div> 
                </div>","null","","","","","","","","","","","",""
"","","","","","html-button-response","125","387560","0.0-125.0","E34E2DEE098B4170986DBCBF7C5BF11B","019dac66-b74c-7fbc-a381-2ac7840b8890","019dac5b-243f-7307-af64-a10f53f1ef70","","467","
                <div class=""stimulus-container"">
                    <img src=""images/semantic_sequence/self_care_activities_semantic/self_care_activities_semantic_2.png"" class=""exp-image"">
                    <div class=""question-area"">
                        <p style=""font-size: 20px; font-weight: bold; margin: 0;"">Is there a person in this image?</p>
                    </div>
                </div>","0","main_experiment_trial","2","self_care_activities_semantic","semantic_sequence","chronological","","","","","","",""
"","","","","","html-keyboard-response","126","392561","0.0-126.0","E34E2DEE098B4170986DBCBF7C5BF11B","019dac66-b74c-7fbc-a381-2ac7840b8890","019dac5b-243f-7307-af64-a10f53f1ef70","","null","
                <div class=""stimulus-container"">
                    <img src=""images/semantic_sequence/self_care_activities_semantic/self_care_activities_semantic_3.png"" class=""exp-image"">
                    <div class=""question-area""></div> 
                </div>","null","","","","","","","","","","","",""
"","","","","","html-button-response","127","392939","0.0-127.0","E34E2DEE098B4170986DBCBF7C5BF11B","019dac66-b74c-7fbc-a381-2ac7840b8890","019dac5b-243f-7307-af64-a10f53f1ef70","","377","
                <div class=""stimulus-container"">
                    <img src=""images/semantic_sequence/self_care_activities_semantic/self_care_activities_semantic_3.png"" class=""exp-image"">
                    <div class=""question-area"">
                        <p style=""font-size: 20px; font-weight: bold; margin: 0;"">Is there a person in this image?</p>
                    </div>
                </div>","0","main_experiment_trial","3","self_care_activities_semantic","semantic_sequence","chronological","","","","","","",""
"","","","","","html-keyboard-response","128","397942","0.0-128.0","E34E2DEE098B4170986DBCBF7C5BF11B","019dac66-b74c-7fbc-a381-2ac7840b8890","019dac5b-243f-7307-af64-a10f53f1ef70","","null","
                <div class=""stimulus-container"">
                    <img src=""images/semantic_sequence/self_care_activities_semantic/self_care_activities_semantic_4.png"" class=""exp-image"">
                    <div class=""question-area""></div> 
                </div>","null","","","","","","","","","","","",""
"","","","","","html-button-response","129","398398","0.0-129.0","E34E2DEE098B4170986DBCBF7C5BF11B","019dac66-b74c-7fbc-a381-2ac7840b8890","019dac5b-243f-7307-af64-a10f53f1ef70","","455","
                <div class=""stimulus-container"">
                    <img src=""images/semantic_sequence/self_care_activities_semantic/self_care_activities_semantic_4.png"" class=""exp-image"">
                    <div class=""question-area"">
                        <p style=""font-size: 20px; font-weight: bold; margin: 0;"">Is there a person in this image?</p>
                    </div>
                </div>","0","main_experiment_trial","4","self_care_activities_semantic","semantic_sequence","chronological","","","","","","",""
"","","","","","html-keyboard-response","130","403409","0.0-130.0","E34E2DEE098B4170986DBCBF7C5BF11B","019dac66-b74c-7fbc-a381-2ac7840b8890","019dac5b-243f-7307-af64-a10f53f1ef70","","null","
                <div class=""stimulus-container"">
                    <img src=""images/semantic_sequence/self_care_activities_semantic/self_care_activities_semantic_5.png"" class=""exp-image"">
                    <div class=""question-area""></div> 
                </div>","null","","","","","","","","","","","",""
"","","","","","html-button-response","131","403873","0.0-131.0","E34E2DEE098B4170986DBCBF7C5BF11B","019dac66-b74c-7fbc-a381-2ac7840b8890","019dac5b-243f-7307-af64-a10f53f1ef70","","463","
                <div class=""stimulus-container"">
                    <img src=""images/semantic_sequence/self_care_activities_semantic/self_care_activities_semantic_5.png"" class=""exp-image"">
                    <div class=""question-area"">
                        <p style=""font-size: 20px; font-weight: bold; margin: 0;"">Is there a person in this image?</p>
                    </div>
                </div>","0","main_experiment_trial","5","self_care_activities_semantic","semantic_sequence","chronological","","","","","","",""
"","","","","","html-keyboard-response","132","408876","0.0-132.0","E34E2DEE098B4170986DBCBF7C5BF11B","019dac66-b74c-7fbc-a381-2ac7840b8890","019dac5b-243f-7307-af64-a10f53f1ef70","","null","
                <div class=""stimulus-container"">
                    <img src=""images/semantic_sequence/self_care_activities_semantic/self_care_activities_semantic_6.png"" class=""exp-image"">
                    <div class=""question-area""></div> 
                </div>","null","","","","","","","","","","","",""
"","","","","","html-button-response","133","409259","0.0-133.0","E34E2DEE098B4170986DBCBF7C5BF11B","019dac66-b74c-7fbc-a381-2ac7840b8890","019dac5b-243f-7307-af64-a10f53f1ef70","","382","
                <div class=""stimulus-container"">
                    <img src=""images/semantic_sequence/self_care_activities_semantic/self_care_activities_semantic_6.png"" class=""exp-image"">
                    <div class=""question-area"">
                        <p style=""font-size: 20px; font-weight: bold; margin: 0;"">Is there a person in this image?</p>
                    </div>
                </div>","0","main_experiment_trial","6","self_care_activities_semantic","semantic_sequence","chronological","","","","","","",""
"","","","","","html-keyboard-response","134","414261","0.0-134.0","E34E2DEE098B4170986DBCBF7C5BF11B","019dac66-b74c-7fbc-a381-2ac7840b8890","019dac5b-243f-7307-af64-a10f53f1ef70","","null","
                <div class=""stimulus-container"">
                    <img src=""images/semantic_sequence/self_care_activities_semantic/self_care_activities_semantic_7.png"" class=""exp-image"">
                    <div class=""question-area""></div> 
                </div>","null","","","","","","","","","","","",""
"","","","","","html-button-response","135","414793","0.0-135.0","E34E2DEE098B4170986DBCBF7C5BF11B","019dac66-b74c-7fbc-a381-2ac7840b8890","019dac5b-243f-7307-af64-a10f53f1ef70","","532","
                <div class=""stimulus-container"">
                    <img src=""images/semantic_sequence/self_care_activities_semantic/self_care_activities_semantic_7.png"" class=""exp-image"">
                    <div class=""question-area"">
                        <p style=""font-size: 20px; font-weight: bold; margin: 0;"">Is there a person in this image?</p>
                    </div>
                </div>","0","main_experiment_trial","7","self_care_activities_semantic","semantic_sequence","chronological","","","","","","",""
"","","","","","html-keyboard-response","136","419810","0.0-136.0","E34E2DEE098B4170986DBCBF7C5BF11B","019dac66-b74c-7fbc-a381-2ac7840b8890","019dac5b-243f-7307-af64-a10f53f1ef70","","null","
                <div class=""stimulus-container"">
                    <img src=""images/semantic_sequence/self_care_activities_semantic/self_care_activities_semantic_8.png"" class=""exp-image"">
                    <div class=""question-area""></div> 
                </div>","null","","","","","","","","","","","",""
"","","","","","html-button-response","137","420397","0.0-137.0","E34E2DEE098B4170986DBCBF7C5BF11B","019dac66-b74c-7fbc-a381-2ac7840b8890","019dac5b-243f-7307-af64-a10f53f1ef70","","586","
                <div class=""stimulus-container"">
                    <img src=""images/semantic_sequence/self_care_activities_semantic/self_care_activities_semantic_8.png"" class=""exp-image"">
                    <div class=""question-area"">
                        <p style=""font-size: 20px; font-weight: bold; margin: 0;"">Is there a person in this image?</p>
                    </div>
                </div>","0","main_experiment_trial","8","self_care_activities_semantic","semantic_sequence","chronological","","","","","","",""
"","","","","","html-keyboard-response","138","425409","0.0-138.0","E34E2DEE098B4170986DBCBF7C5BF11B","019dac66-b74c-7fbc-a381-2ac7840b8890","019dac5b-243f-7307-af64-a10f53f1ef70","","null","
                <div class=""stimulus-container"">
                    <img src=""images/semantic_sequence/self_care_activities_semantic/self_care_activities_semantic_9.png"" class=""exp-image"">
                    <div class=""question-area""></div> 
                </div>","null","","","","","","","","","","","",""
"","","","","","html-button-response","139","426180","0.0-139.0","E34E2DEE098B4170986DBCBF7C5BF11B","019dac66-b74c-7fbc-a381-2ac7840b8890","019dac5b-243f-7307-af64-a10f53f1ef70","","770","
                <div class=""stimulus-container"">
                    <img src=""images/semantic_sequence/self_care_activities_semantic/self_care_activities_semantic_9.png"" class=""exp-image"">
                    <div class=""question-area"">
                        <p style=""font-size: 20px; font-weight: bold; margin: 0;"">Is there a person in this image?</p>
                    </div>
                </div>","0","main_experiment_trial","9","self_care_activities_semantic","semantic_sequence","chronological","","","","","","",""
"","","","","","html-keyboard-response","140","431193","0.0-140.0","E34E2DEE098B4170986DBCBF7C5BF11B","019dac66-b74c-7fbc-a381-2ac7840b8890","019dac5b-243f-7307-af64-a10f53f1ef70","","null","
                <div class=""stimulus-container"">
                    <img src=""images/semantic_sequence/self_care_activities_semantic/self_care_activities_semantic_ten.png"" class=""exp-image"">
                    <div class=""question-area""></div> 
                </div>","null","","","","","","","","","","","",""
"","","","","","html-button-response","141","431618","0.0-141.0","E34E2DEE098B4170986DBCBF7C5BF11B","019dac66-b74c-7fbc-a381-2ac7840b8890","019dac5b-243f-7307-af64-a10f53f1ef70","","424","
                <div class=""stimulus-container"">
                    <img src=""images/semantic_sequence/self_care_activities_semantic/self_care_activities_semantic_ten.png"" class=""exp-image"">
                    <div class=""question-area"">
                        <p style=""font-size: 20px; font-weight: bold; margin: 0;"">Is there a person in this image?</p>
                    </div>
                </div>","0","main_experiment_trial","ten","self_care_activities_semantic","semantic_sequence","chronological","","","","","","",""
"","","","","","html-keyboard-response","142","436627","0.0-142.0","E34E2DEE098B4170986DBCBF7C5BF11B","019dac66-b74c-7fbc-a381-2ac7840b8890","019dac5b-243f-7307-af64-a10f53f1ef70","","null","<div style=""background-color: white; width: 100vw; height: 100vh;""></div>","null","","","","","","","","","","","",""
"","","","","","html-keyboard-response","143","441629","0.0-143.0","E34E2DEE098B4170986DBCBF7C5BF11B","019dac66-b74c-7fbc-a381-2ac7840b8890","019dac5b-243f-7307-af64-a10f53f1ef70","","null","
                <div class=""stimulus-container"">
                    <img src=""images/semantic_sequence/visiting_cities_semantic/visiting_cities_semantic_1.png"" class=""exp-image"">
                    <div class=""question-area""></div> 
                </div>","null","","","","","","","","","","","",""
"","","","","","html-button-response","144","443748","0.0-144.0","E34E2DEE098B4170986DBCBF7C5BF11B","019dac66-b74c-7fbc-a381-2ac7840b8890","019dac5b-243f-7307-af64-a10f53f1ef70","","2117","
                <div class=""stimulus-container"">
                    <img src=""images/semantic_sequence/visiting_cities_semantic/visiting_cities_semantic_1.png"" class=""exp-image"">
                    <div class=""question-area"">
                        <p style=""font-size: 20px; font-weight: bold; margin: 0;"">Is there a person in this image?</p>
                    </div>
                </div>","0","main_experiment_trial","1","visiting_cities_semantic","semantic_sequence","chronological","","","","","","",""
"","","","","","html-keyboard-response","145","448759","0.0-145.0","E34E2DEE098B4170986DBCBF7C5BF11B","019dac66-b74c-7fbc-a381-2ac7840b8890","019dac5b-243f-7307-af64-a10f53f1ef70","","null","
                <div class=""stimulus-container"">
                    <img src=""images/semantic_sequence/visiting_cities_semantic/visiting_cities_semantic_2.png"" class=""exp-image"">
                    <div class=""question-area""></div> 
                </div>","null","","","","","","","","","","","",""
"","","","","","html-button-response","146","449651","0.0-146.0","E34E2DEE098B4170986DBCBF7C5BF11B","019dac66-b74c-7fbc-a381-2ac7840b8890","019dac5b-243f-7307-af64-a10f53f1ef70","","891","
                <div class=""stimulus-container"">
                    <img src=""images/semantic_sequence/visiting_cities_semantic/visiting_cities_semantic_2.png"" class=""exp-image"">
                    <div class=""question-area"">
                        <p style=""font-size: 20px; font-weight: bold; margin: 0;"">Is there a person in this image?</p>
                    </div>
                </div>","1","main_experiment_trial","2","visiting_cities_semantic","semantic_sequence","chronological","","","","","","",""
"","","","","","html-keyboard-response","147","454661","0.0-147.0","E34E2DEE098B4170986DBCBF7C5BF11B","019dac66-b74c-7fbc-a381-2ac7840b8890","019dac5b-243f-7307-af64-a10f53f1ef70","","null","
                <div class=""stimulus-container"">
                    <img src=""images/semantic_sequence/visiting_cities_semantic/visiting_cities_semantic_3.png"" class=""exp-image"">
                    <div class=""question-area""></div> 
                </div>","null","","","","","","","","","","","",""
"","","","","","html-button-response","148","455110","0.0-148.0","E34E2DEE098B4170986DBCBF7C5BF11B","019dac66-b74c-7fbc-a381-2ac7840b8890","019dac5b-243f-7307-af64-a10f53f1ef70","","448","
                <div class=""stimulus-container"">
                    <img src=""images/semantic_sequence/visiting_cities_semantic/visiting_cities_semantic_3.png"" class=""exp-image"">
                    <div class=""question-area"">
                        <p style=""font-size: 20px; font-weight: bold; margin: 0;"">Is there a person in this image?</p>
                    </div>
                </div>","1","main_experiment_trial","3","visiting_cities_semantic","semantic_sequence","chronological","","","","","","",""
"","","","","","html-keyboard-response","149","460111","0.0-149.0","E34E2DEE098B4170986DBCBF7C5BF11B","019dac66-b74c-7fbc-a381-2ac7840b8890","019dac5b-243f-7307-af64-a10f53f1ef70","","null","
                <div class=""stimulus-container"">
                    <img src=""images/semantic_sequence/visiting_cities_semantic/visiting_cities_semantic_4.png"" class=""exp-image"">
                    <div class=""question-area""></div> 
                </div>","null","","","","","","","","","","","",""
"","","","","","html-button-response","150","460760","0.0-150.0","E34E2DEE098B4170986DBCBF7C5BF11B","019dac66-b74c-7fbc-a381-2ac7840b8890","019dac5b-243f-7307-af64-a10f53f1ef70","","648","
                <div class=""stimulus-container"">
                    <img src=""images/semantic_sequence/visiting_cities_semantic/visiting_cities_semantic_4.png"" class=""exp-image"">
                    <div class=""question-area"">
                        <p style=""font-size: 20px; font-weight: bold; margin: 0;"">Is there a person in this image?</p>
                    </div>
                </div>","1","main_experiment_trial","4","visiting_cities_semantic","semantic_sequence","chronological","","","","","","",""
"","","","","","html-keyboard-response","151","465775","0.0-151.0","E34E2DEE098B4170986DBCBF7C5BF11B","019dac66-b74c-7fbc-a381-2ac7840b8890","019dac5b-243f-7307-af64-a10f53f1ef70","","null","
                <div class=""stimulus-container"">
                    <img src=""images/semantic_sequence/visiting_cities_semantic/visiting_cities_semantic_5.png"" class=""exp-image"">
                    <div class=""question-area""></div> 
                </div>","null","","","","","","","","","","","",""
"","","","","","html-button-response","152","466400","0.0-152.0","E34E2DEE098B4170986DBCBF7C5BF11B","019dac66-b74c-7fbc-a381-2ac7840b8890","019dac5b-243f-7307-af64-a10f53f1ef70","","623","
                <div class=""stimulus-container"">
                    <img src=""images/semantic_sequence/visiting_cities_semantic/visiting_cities_semantic_5.png"" class=""exp-image"">
                    <div class=""question-area"">
                        <p style=""font-size: 20px; font-weight: bold; margin: 0;"">Is there a person in this image?</p>
                    </div>
                </div>","1","main_experiment_trial","5","visiting_cities_semantic","semantic_sequence","chronological","","","","","","",""
"","","","","","html-keyboard-response","153","471409","0.0-153.0","E34E2DEE098B4170986DBCBF7C5BF11B","019dac66-b74c-7fbc-a381-2ac7840b8890","019dac5b-243f-7307-af64-a10f53f1ef70","","null","
                <div class=""stimulus-container"">
                    <img src=""images/semantic_sequence/visiting_cities_semantic/visiting_cities_semantic_6.png"" class=""exp-image"">
                    <div class=""question-area""></div> 
                </div>","null","","","","","","","","","","","",""
"","","","","","html-button-response","154","471834","0.0-154.0","E34E2DEE098B4170986DBCBF7C5BF11B","019dac66-b74c-7fbc-a381-2ac7840b8890","019dac5b-243f-7307-af64-a10f53f1ef70","","424","
                <div class=""stimulus-container"">
                    <img src=""images/semantic_sequence/visiting_cities_semantic/visiting_cities_semantic_6.png"" class=""exp-image"">
                    <div class=""question-area"">
                        <p style=""font-size: 20px; font-weight: bold; margin: 0;"">Is there a person in this image?</p>
                    </div>
                </div>","1","main_experiment_trial","6","visiting_cities_semantic","semantic_sequence","chronological","","","","","","",""
"","","","","","html-keyboard-response","155","476842","0.0-155.0","E34E2DEE098B4170986DBCBF7C5BF11B","019dac66-b74c-7fbc-a381-2ac7840b8890","019dac5b-243f-7307-af64-a10f53f1ef70","","null","
                <div class=""stimulus-container"">
                    <img src=""images/semantic_sequence/visiting_cities_semantic/visiting_cities_semantic_7.png"" class=""exp-image"">
                    <div class=""question-area""></div> 
                </div>","null","","","","","","","","","","","",""
"","","","","","html-button-response","156","477437","0.0-156.0","E34E2DEE098B4170986DBCBF7C5BF11B","019dac66-b74c-7fbc-a381-2ac7840b8890","019dac5b-243f-7307-af64-a10f53f1ef70","","594","
                <div class=""stimulus-container"">
                    <img src=""images/semantic_sequence/visiting_cities_semantic/visiting_cities_semantic_7.png"" class=""exp-image"">
                    <div class=""question-area"">
                        <p style=""font-size: 20px; font-weight: bold; margin: 0;"">Is there a person in this image?</p>
                    </div>
                </div>","0","main_experiment_trial","7","visiting_cities_semantic","semantic_sequence","chronological","","","","","","",""
"","","","","","html-keyboard-response","157","482443","0.0-157.0","E34E2DEE098B4170986DBCBF7C5BF11B","019dac66-b74c-7fbc-a381-2ac7840b8890","019dac5b-243f-7307-af64-a10f53f1ef70","","null","
                <div class=""stimulus-container"">
                    <img src=""images/semantic_sequence/visiting_cities_semantic/visiting_cities_semantic_8.png"" class=""exp-image"">
                    <div class=""question-area""></div> 
                </div>","null","","","","","","","","","","","",""
"","","","","","html-button-response","158","484200","0.0-158.0","E34E2DEE098B4170986DBCBF7C5BF11B","019dac66-b74c-7fbc-a381-2ac7840b8890","019dac5b-243f-7307-af64-a10f53f1ef70","","1755","
                <div class=""stimulus-container"">
                    <img src=""images/semantic_sequence/visiting_cities_semantic/visiting_cities_semantic_8.png"" class=""exp-image"">
                    <div class=""question-area"">
                        <p style=""font-size: 20px; font-weight: bold; margin: 0;"">Is there a person in this image?</p>
                    </div>
                </div>","0","main_experiment_trial","8","visiting_cities_semantic","semantic_sequence","chronological","","","","","","",""
"","","","","","html-keyboard-response","159","489210","0.0-159.0","E34E2DEE098B4170986DBCBF7C5BF11B","019dac66-b74c-7fbc-a381-2ac7840b8890","019dac5b-243f-7307-af64-a10f53f1ef70","","null","
                <div class=""stimulus-container"">
                    <img src=""images/semantic_sequence/visiting_cities_semantic/visiting_cities_semantic_9.png"" class=""exp-image"">
                    <div class=""question-area""></div> 
                </div>","null","","","","","","","","","","","",""
"","","","","","html-button-response","160","490179","0.0-160.0","E34E2DEE098B4170986DBCBF7C5BF11B","019dac66-b74c-7fbc-a381-2ac7840b8890","019dac5b-243f-7307-af64-a10f53f1ef70","","968","
                <div class=""stimulus-container"">
                    <img src=""images/semantic_sequence/visiting_cities_semantic/visiting_cities_semantic_9.png"" class=""exp-image"">
                    <div class=""question-area"">
                        <p style=""font-size: 20px; font-weight: bold; margin: 0;"">Is there a person in this image?</p>
                    </div>
                </div>","1","main_experiment_trial","9","visiting_cities_semantic","semantic_sequence","chronological","","","","","","",""
"","","","","","html-keyboard-response","161","495194","0.0-161.0","E34E2DEE098B4170986DBCBF7C5BF11B","019dac66-b74c-7fbc-a381-2ac7840b8890","019dac5b-243f-7307-af64-a10f53f1ef70","","null","
                <div class=""stimulus-container"">
                    <img src=""images/semantic_sequence/visiting_cities_semantic/visiting_cities_semantic_ten.png"" class=""exp-image"">
                    <div class=""question-area""></div> 
                </div>","null","","","","","","","","","","","",""
"","","","","","html-button-response","162","495842","0.0-162.0","E34E2DEE098B4170986DBCBF7C5BF11B","019dac66-b74c-7fbc-a381-2ac7840b8890","019dac5b-243f-7307-af64-a10f53f1ef70","","646","
                <div class=""stimulus-container"">
                    <img src=""images/semantic_sequence/visiting_cities_semantic/visiting_cities_semantic_ten.png"" class=""exp-image"">
                    <div class=""question-area"">
                        <p style=""font-size: 20px; font-weight: bold; margin: 0;"">Is there a person in this image?</p>
                    </div>
                </div>","0","main_experiment_trial","ten","visiting_cities_semantic","semantic_sequence","chronological","","","","","","",""
"","","","","","html-keyboard-response","163","500844","0.0-163.0","E34E2DEE098B4170986DBCBF7C5BF11B","019dac66-b74c-7fbc-a381-2ac7840b8890","019dac5b-243f-7307-af64-a10f53f1ef70","","null","<div style=""background-color: white; width: 100vw; height: 100vh;""></div>","null","","","","","","","","","","","",""
"","","","","","html-keyboard-response","164","505859","0.0-164.0","E34E2DEE098B4170986DBCBF7C5BF11B","019dac66-b74c-7fbc-a381-2ac7840b8890","019dac5b-243f-7307-af64-a10f53f1ef70","","null","
                <div class=""stimulus-container"">
                    <img src=""images/causal_sequence/dog_causal/dog_causal_1.png"" class=""exp-image"">
                    <div class=""question-area""></div> 
                </div>","null","","","","","","","","","","","",""
"","","","","","html-button-response","165","506848","0.0-165.0","E34E2DEE098B4170986DBCBF7C5BF11B","019dac66-b74c-7fbc-a381-2ac7840b8890","019dac5b-243f-7307-af64-a10f53f1ef70","","988","
                <div class=""stimulus-container"">
                    <img src=""images/causal_sequence/dog_causal/dog_causal_1.png"" class=""exp-image"">
                    <div class=""question-area"">
                        <p style=""font-size: 20px; font-weight: bold; margin: 0;"">Is there a person in this image?</p>
                    </div>
                </div>","0","main_experiment_trial","1","dog_causal","causal_sequence","chronological","","","","","","",""
"","","","","","html-keyboard-response","166","511859","0.0-166.0","E34E2DEE098B4170986DBCBF7C5BF11B","019dac66-b74c-7fbc-a381-2ac7840b8890","019dac5b-243f-7307-af64-a10f53f1ef70","","null","
                <div class=""stimulus-container"">
                    <img src=""images/causal_sequence/dog_causal/dog_causal_2.png"" class=""exp-image"">
                    <div class=""question-area""></div> 
                </div>","null","","","","","","","","","","","",""
"","","","","","html-button-response","167","512414","0.0-167.0","E34E2DEE098B4170986DBCBF7C5BF11B","019dac66-b74c-7fbc-a381-2ac7840b8890","019dac5b-243f-7307-af64-a10f53f1ef70","","554","
                <div class=""stimulus-container"">
                    <img src=""images/causal_sequence/dog_causal/dog_causal_2.png"" class=""exp-image"">
                    <div class=""question-area"">
                        <p style=""font-size: 20px; font-weight: bold; margin: 0;"">Is there a person in this image?</p>
                    </div>
                </div>","0","main_experiment_trial","2","dog_causal","causal_sequence","chronological","","","","","","",""
"","","","","","html-keyboard-response","168","517426","0.0-168.0","E34E2DEE098B4170986DBCBF7C5BF11B","019dac66-b74c-7fbc-a381-2ac7840b8890","019dac5b-243f-7307-af64-a10f53f1ef70","","null","
                <div class=""stimulus-container"">
                    <img src=""images/causal_sequence/dog_causal/dog_causal_3.png"" class=""exp-image"">
                    <div class=""question-area""></div> 
                </div>","null","","","","","","","","","","","",""
"","","","","","html-button-response","169","517828","0.0-169.0","E34E2DEE098B4170986DBCBF7C5BF11B","019dac66-b74c-7fbc-a381-2ac7840b8890","019dac5b-243f-7307-af64-a10f53f1ef70","","401","
                <div class=""stimulus-container"">
                    <img src=""images/causal_sequence/dog_causal/dog_causal_3.png"" class=""exp-image"">
                    <div class=""question-area"">
                        <p style=""font-size: 20px; font-weight: bold; margin: 0;"">Is there a person in this image?</p>
                    </div>
                </div>","0","main_experiment_trial","3","dog_causal","causal_sequence","chronological","","","","","","",""
"","","","","","html-keyboard-response","170","522843","0.0-170.0","E34E2DEE098B4170986DBCBF7C5BF11B","019dac66-b74c-7fbc-a381-2ac7840b8890","019dac5b-243f-7307-af64-a10f53f1ef70","","null","
                <div class=""stimulus-container"">
                    <img src=""images/causal_sequence/dog_causal/dog_causal_4.png"" class=""exp-image"">
                    <div class=""question-area""></div> 
                </div>","null","","","","","","","","","","","",""
"","","","","","html-button-response","171","523264","0.0-171.0","E34E2DEE098B4170986DBCBF7C5BF11B","019dac66-b74c-7fbc-a381-2ac7840b8890","019dac5b-243f-7307-af64-a10f53f1ef70","","419","
                <div class=""stimulus-container"">
                    <img src=""images/causal_sequence/dog_causal/dog_causal_4.png"" class=""exp-image"">
                    <div class=""question-area"">
                        <p style=""font-size: 20px; font-weight: bold; margin: 0;"">Is there a person in this image?</p>
                    </div>
                </div>","0","main_experiment_trial","4","dog_causal","causal_sequence","chronological","","","","","","",""
"","","","","","html-keyboard-response","172","528266","0.0-172.0","E34E2DEE098B4170986DBCBF7C5BF11B","019dac66-b74c-7fbc-a381-2ac7840b8890","019dac5b-243f-7307-af64-a10f53f1ef70","","null","
                <div class=""stimulus-container"">
                    <img src=""images/causal_sequence/dog_causal/dog_causal_5.png"" class=""exp-image"">
                    <div class=""question-area""></div> 
                </div>","null","","","","","","","","","","","",""
"","","","","","html-button-response","173","530067","0.0-173.0","E34E2DEE098B4170986DBCBF7C5BF11B","019dac66-b74c-7fbc-a381-2ac7840b8890","019dac5b-243f-7307-af64-a10f53f1ef70","","1800","
                <div class=""stimulus-container"">
                    <img src=""images/causal_sequence/dog_causal/dog_causal_5.png"" class=""exp-image"">
                    <div class=""question-area"">
                        <p style=""font-size: 20px; font-weight: bold; margin: 0;"">Is there a person in this image?</p>
                    </div>
                </div>","0","main_experiment_trial","5","dog_causal","causal_sequence","chronological","","","","","","",""
"","","","","","html-keyboard-response","174","535075","0.0-174.0","E34E2DEE098B4170986DBCBF7C5BF11B","019dac66-b74c-7fbc-a381-2ac7840b8890","019dac5b-243f-7307-af64-a10f53f1ef70","","null","
                <div class=""stimulus-container"">
                    <img src=""images/causal_sequence/dog_causal/dog_causal_6.png"" class=""exp-image"">
                    <div class=""question-area""></div> 
                </div>","null","","","","","","","","","","","",""
"","","","","","html-button-response","175","536482","0.0-175.0","E34E2DEE098B4170986DBCBF7C5BF11B","019dac66-b74c-7fbc-a381-2ac7840b8890","019dac5b-243f-7307-af64-a10f53f1ef70","","1405","
                <div class=""stimulus-container"">
                    <img src=""images/causal_sequence/dog_causal/dog_causal_6.png"" class=""exp-image"">
                    <div class=""question-area"">
