"success","timeout","failed_images","failed_audio","failed_video","trial_type","trial_index","time_elapsed","internal_node_id","subject_id","study_id","session_id","view_history","rt","stimulus","response","task","image_index","folder","sequence_type","presentation_order","valuable_image_index","reward_type","distance_from_x","target_X","chosen_image_index","is_x_plus_dist","correct_choice"
"true","false","[]","[]","[]","preload","0","7579","0.0-0.0","A692729E73D24CA1921D9B6064D17C62","019cfa6f-703d-7135-b79f-3b4a0df60174","019cfa3a-388e-72ab-ad58-bdeb258f96cd","","","","","","","","","","","","","","","",""
"","","","","","instructions","1","11071","0.0-1.0","A692729E73D24CA1921D9B6064D17C62","019cfa6f-703d-7135-b79f-3b4a0df60174","019cfa3a-388e-72ab-ad58-bdeb258f96cd","[{""page_index"":0,""viewing_time"":3491}]","3492","","","","","","","","","","","","","",""
"","","","","","instructions","2","16183","0.0-2.0","A692729E73D24CA1921D9B6064D17C62","019cfa6f-703d-7135-b79f-3b4a0df60174","019cfa3a-388e-72ab-ad58-bdeb258f96cd","[{""page_index"":0,""viewing_time"":5110}]","5111","","","","","","","","","","","","","",""
"true","","","","","fullscreen","3","19443","0.0-3.0","A692729E73D24CA1921D9B6064D17C62","019cfa6f-703d-7135-b79f-3b4a0df60174","019cfa3a-388e-72ab-ad58-bdeb258f96cd","","2236","","","","","","","","","","","","","",""
"","","","","","instructions","4","30458","0.0-4.0","A692729E73D24CA1921D9B6064D17C62","019cfa6f-703d-7135-b79f-3b4a0df60174","019cfa3a-388e-72ab-ad58-bdeb258f96cd","[{""page_index"":0,""viewing_time"":11014}]","11014","","","","","","","","","","","","","",""
"","","","","","instructions","5","37860","0.0-5.0","A692729E73D24CA1921D9B6064D17C62","019cfa6f-703d-7135-b79f-3b4a0df60174","019cfa3a-388e-72ab-ad58-bdeb258f96cd","[{""page_index"":0,""viewing_time"":7402}]","7402","","","","","","","","","","","","","",""
"","","","","","html-keyboard-response","6","41867","0.0-6.0","A692729E73D24CA1921D9B6064D17C62","019cfa6f-703d-7135-b79f-3b4a0df60174","019cfa3a-388e-72ab-ad58-bdeb258f96cd","","null","
                <div class=""stimulus-container"">
                    <img src=""images/instructions/movie_1.png"" class=""exp-image"">
                    <div class=""question-area""></div> 
                </div>","null","","","","","","","","","","","",""
"","","","","","html-button-response","7","43624","0.0-7.0","A692729E73D24CA1921D9B6064D17C62","019cfa6f-703d-7135-b79f-3b4a0df60174","019cfa3a-388e-72ab-ad58-bdeb258f96cd","","1754","
                <div class=""stimulus-container"">
                    <img src=""images/instructions/movie_1.png"" class=""exp-image"">
                    <div class=""question-area"">
                        <p style=""font-size: 20px; font-weight: bold; margin: 0;"">Was there a person in this image?</p>
                    </div>
                </div>","0","example_question","1","","","","","","","","","",""
"","","","","","html-keyboard-response","8","47626","0.0-8.0","A692729E73D24CA1921D9B6064D17C62","019cfa6f-703d-7135-b79f-3b4a0df60174","019cfa3a-388e-72ab-ad58-bdeb258f96cd","","null","
                <div class=""stimulus-container"">
                    <img src=""images/instructions/movie_2.png"" class=""exp-image"">
                    <div class=""question-area""></div> 
                </div>","null","","","","","","","","","","","",""
"","","","","","html-button-response","9","49692","0.0-9.0","A692729E73D24CA1921D9B6064D17C62","019cfa6f-703d-7135-b79f-3b4a0df60174","019cfa3a-388e-72ab-ad58-bdeb258f96cd","","2065","
                <div class=""stimulus-container"">
                    <img src=""images/instructions/movie_2.png"" class=""exp-image"">
                    <div class=""question-area"">
                        <p style=""font-size: 20px; font-weight: bold; margin: 0;"">Was there a person in this image?</p>
                    </div>
                </div>","1","example_question","2","","","","","","","","","",""
"","","","","","html-keyboard-response","10","53706","0.0-10.0","A692729E73D24CA1921D9B6064D17C62","019cfa6f-703d-7135-b79f-3b4a0df60174","019cfa3a-388e-72ab-ad58-bdeb258f96cd","","null","
                <div class=""stimulus-container"">
                    <img src=""images/instructions/movie_3.png"" class=""exp-image"">
                    <div class=""question-area""></div> 
                </div>","null","","","","","","","","","","","",""
"","","","","","html-button-response","11","54810","0.0-11.0","A692729E73D24CA1921D9B6064D17C62","019cfa6f-703d-7135-b79f-3b4a0df60174","019cfa3a-388e-72ab-ad58-bdeb258f96cd","","1102","
                <div class=""stimulus-container"">
                    <img src=""images/instructions/movie_3.png"" class=""exp-image"">
                    <div class=""question-area"">
                        <p style=""font-size: 20px; font-weight: bold; margin: 0;"">Was there a person in this image?</p>
                    </div>
                </div>","0","example_question","3","","","","","","","","","",""
"","","","","","html-keyboard-response","12","58827","0.0-12.0","A692729E73D24CA1921D9B6064D17C62","019cfa6f-703d-7135-b79f-3b4a0df60174","019cfa3a-388e-72ab-ad58-bdeb258f96cd","","null","
                <div class=""stimulus-container"">
                    <img src=""images/instructions/movie_4.png"" class=""exp-image"">
                    <div class=""question-area""></div> 
                </div>","null","","","","","","","","","","","",""
"","","","","","html-button-response","13","59533","0.0-13.0","A692729E73D24CA1921D9B6064D17C62","019cfa6f-703d-7135-b79f-3b4a0df60174","019cfa3a-388e-72ab-ad58-bdeb258f96cd","","704","
                <div class=""stimulus-container"">
                    <img src=""images/instructions/movie_4.png"" class=""exp-image"">
                    <div class=""question-area"">
                        <p style=""font-size: 20px; font-weight: bold; margin: 0;"">Was there a person in this image?</p>
                    </div>
                </div>","0","example_question","4","","","","","","","","","",""
"","","","","","instructions","14","61484","0.0-14.0","A692729E73D24CA1921D9B6064D17C62","019cfa6f-703d-7135-b79f-3b4a0df60174","019cfa3a-388e-72ab-ad58-bdeb258f96cd","[{""page_index"":0,""viewing_time"":1950}]","1951","","","","","","","","","","","","","",""
"","","","","","instructions","15","65515","0.0-15.0","A692729E73D24CA1921D9B6064D17C62","019cfa6f-703d-7135-b79f-3b4a0df60174","019cfa3a-388e-72ab-ad58-bdeb258f96cd","[{""page_index"":0,""viewing_time"":4030}]","4030","","","","","","","","","","","","","",""
"","","","","","html-keyboard-response","16","70518","0.0-16.0","A692729E73D24CA1921D9B6064D17C62","019cfa6f-703d-7135-b79f-3b4a0df60174","019cfa3a-388e-72ab-ad58-bdeb258f96cd","","null","<div style=""background-color: white; width: 100vw; height: 100vh;""></div>","null","","","","","","","","","","","",""
"","","","","","html-keyboard-response","17","71533","0.0-17.0","A692729E73D24CA1921D9B6064D17C62","019cfa6f-703d-7135-b79f-3b4a0df60174","019cfa3a-388e-72ab-ad58-bdeb258f96cd","","null","
                <div class=""stimulus-container"">
                    <img src=""images/causal_sequence/package_causal/package_causal_1.png"" class=""exp-image"">
                    <div class=""question-area""></div> 
                </div>","null","","","","","","","","","","","",""
"","","","","","html-button-response","18","74538","0.0-18.0","A692729E73D24CA1921D9B6064D17C62","019cfa6f-703d-7135-b79f-3b4a0df60174","019cfa3a-388e-72ab-ad58-bdeb258f96cd","","null","
                <div class=""stimulus-container"">
                    <img src=""images/causal_sequence/package_causal/package_causal_1.png"" class=""exp-image"">
                    <div class=""question-area"">
                        <p style=""font-size: 20px; font-weight: bold; margin: 0;"">Is there a person in this image?</p>
                    </div>
                </div>","null","main_experiment_trial","1","package_causal","causal_sequence","chronological","","","","","","",""
"","","","","","html-keyboard-response","19","75546","0.0-19.0","A692729E73D24CA1921D9B6064D17C62","019cfa6f-703d-7135-b79f-3b4a0df60174","019cfa3a-388e-72ab-ad58-bdeb258f96cd","","null","
                <div class=""stimulus-container"">
                    <img src=""images/causal_sequence/package_causal/package_causal_2.png"" class=""exp-image"">
                    <div class=""question-area""></div> 
                </div>","null","","","","","","","","","","","",""
"","","","","","html-button-response","20","77024","0.0-20.0","A692729E73D24CA1921D9B6064D17C62","019cfa6f-703d-7135-b79f-3b4a0df60174","019cfa3a-388e-72ab-ad58-bdeb258f96cd","","1476","
                <div class=""stimulus-container"">
                    <img src=""images/causal_sequence/package_causal/package_causal_2.png"" class=""exp-image"">
                    <div class=""question-area"">
                        <p style=""font-size: 20px; font-weight: bold; margin: 0;"">Is there a person in this image?</p>
                    </div>
                </div>","0","main_experiment_trial","2","package_causal","causal_sequence","chronological","","","","","","",""
"","","","","","html-keyboard-response","21","78039","0.0-21.0","A692729E73D24CA1921D9B6064D17C62","019cfa6f-703d-7135-b79f-3b4a0df60174","019cfa3a-388e-72ab-ad58-bdeb258f96cd","","null","
                <div class=""stimulus-container"">
                    <img src=""images/causal_sequence/package_causal/package_causal_3.png"" class=""exp-image"">
                    <div class=""question-area""></div> 
                </div>","null","","","","","","","","","","","",""
"","","","","","html-button-response","22","78706","0.0-22.0","A692729E73D24CA1921D9B6064D17C62","019cfa6f-703d-7135-b79f-3b4a0df60174","019cfa3a-388e-72ab-ad58-bdeb258f96cd","","665","
                <div class=""stimulus-container"">
                    <img src=""images/causal_sequence/package_causal/package_causal_3.png"" class=""exp-image"">
                    <div class=""question-area"">
                        <p style=""font-size: 20px; font-weight: bold; margin: 0;"">Is there a person in this image?</p>
                    </div>
                </div>","0","main_experiment_trial","3","package_causal","causal_sequence","chronological","","","","","","",""
"","","","","","html-keyboard-response","23","79711","0.0-23.0","A692729E73D24CA1921D9B6064D17C62","019cfa6f-703d-7135-b79f-3b4a0df60174","019cfa3a-388e-72ab-ad58-bdeb258f96cd","","null","
                <div class=""stimulus-container"">
                    <img src=""images/causal_sequence/package_causal/package_causal_4.png"" class=""exp-image"">
                    <div class=""question-area""></div> 
                </div>","null","","","","","","","","","","","",""
"","","","","","html-button-response","24","81082","0.0-24.0","A692729E73D24CA1921D9B6064D17C62","019cfa6f-703d-7135-b79f-3b4a0df60174","019cfa3a-388e-72ab-ad58-bdeb258f96cd","","1370","
                <div class=""stimulus-container"">
                    <img src=""images/causal_sequence/package_causal/package_causal_4.png"" class=""exp-image"">
                    <div class=""question-area"">
                        <p style=""font-size: 20px; font-weight: bold; margin: 0;"">Is there a person in this image?</p>
                    </div>
                </div>","1","main_experiment_trial","4","package_causal","causal_sequence","chronological","","","","","","",""
"","","","","","html-keyboard-response","25","82092","0.0-25.0","A692729E73D24CA1921D9B6064D17C62","019cfa6f-703d-7135-b79f-3b4a0df60174","019cfa3a-388e-72ab-ad58-bdeb258f96cd","","null","
                <div class=""stimulus-container"">
                    <img src=""images/causal_sequence/package_causal/package_causal_5.png"" class=""exp-image"">
                    <div class=""question-area""></div> 
                </div>","null","","","","","","","","","","","",""
"","","","","","html-button-response","26","83140","0.0-26.0","A692729E73D24CA1921D9B6064D17C62","019cfa6f-703d-7135-b79f-3b4a0df60174","019cfa3a-388e-72ab-ad58-bdeb258f96cd","","1047","
                <div class=""stimulus-container"">
                    <img src=""images/causal_sequence/package_causal/package_causal_5.png"" class=""exp-image"">
                    <div class=""question-area"">
                        <p style=""font-size: 20px; font-weight: bold; margin: 0;"">Is there a person in this image?</p>
                    </div>
                </div>","0","main_experiment_trial","5","package_causal","causal_sequence","chronological","","","","","","",""
"","","","","","html-keyboard-response","27","84148","0.0-27.0","A692729E73D24CA1921D9B6064D17C62","019cfa6f-703d-7135-b79f-3b4a0df60174","019cfa3a-388e-72ab-ad58-bdeb258f96cd","","null","
                <div class=""stimulus-container"">
                    <img src=""images/causal_sequence/package_causal/package_causal_6.png"" class=""exp-image"">
                    <div class=""question-area""></div> 
                </div>","null","","","","","","","","","","","",""
"","","","","","html-button-response","28","84773","0.0-28.0","A692729E73D24CA1921D9B6064D17C62","019cfa6f-703d-7135-b79f-3b4a0df60174","019cfa3a-388e-72ab-ad58-bdeb258f96cd","","623","
                <div class=""stimulus-container"">
                    <img src=""images/causal_sequence/package_causal/package_causal_6.png"" class=""exp-image"">
                    <div class=""question-area"">
                        <p style=""font-size: 20px; font-weight: bold; margin: 0;"">Is there a person in this image?</p>
                    </div>
                </div>","0","main_experiment_trial","6","package_causal","causal_sequence","chronological","","","","","","",""
"","","","","","html-keyboard-response","29","85786","0.0-29.0","A692729E73D24CA1921D9B6064D17C62","019cfa6f-703d-7135-b79f-3b4a0df60174","019cfa3a-388e-72ab-ad58-bdeb258f96cd","","null","
                <div class=""stimulus-container"">
                    <img src=""images/causal_sequence/package_causal/package_causal_7.png"" class=""exp-image"">
                    <div class=""question-area""></div> 
                </div>","null","","","","","","","","","","","",""
"","","","","","html-button-response","30","86279","0.0-30.0","A692729E73D24CA1921D9B6064D17C62","019cfa6f-703d-7135-b79f-3b4a0df60174","019cfa3a-388e-72ab-ad58-bdeb258f96cd","","491","
                <div class=""stimulus-container"">
                    <img src=""images/causal_sequence/package_causal/package_causal_7.png"" class=""exp-image"">
                    <div class=""question-area"">
                        <p style=""font-size: 20px; font-weight: bold; margin: 0;"">Is there a person in this image?</p>
                    </div>
                </div>","0","main_experiment_trial","7","package_causal","causal_sequence","chronological","","","","","","",""
"","","","","","html-keyboard-response","31","87286","0.0-31.0","A692729E73D24CA1921D9B6064D17C62","019cfa6f-703d-7135-b79f-3b4a0df60174","019cfa3a-388e-72ab-ad58-bdeb258f96cd","","null","
                <div class=""stimulus-container"">
                    <img src=""images/causal_sequence/package_causal/package_causal_8.png"" class=""exp-image"">
                    <div class=""question-area""></div> 
                </div>","null","","","","","","","","","","","",""
"","","","","","html-button-response","32","88499","0.0-32.0","A692729E73D24CA1921D9B6064D17C62","019cfa6f-703d-7135-b79f-3b4a0df60174","019cfa3a-388e-72ab-ad58-bdeb258f96cd","","1210","
                <div class=""stimulus-container"">
                    <img src=""images/causal_sequence/package_causal/package_causal_8.png"" class=""exp-image"">
                    <div class=""question-area"">
                        <p style=""font-size: 20px; font-weight: bold; margin: 0;"">Is there a person in this image?</p>
                    </div>
                </div>","0","main_experiment_trial","8","package_causal","causal_sequence","chronological","","","","","","",""
"","","","","","html-keyboard-response","33","89515","0.0-33.0","A692729E73D24CA1921D9B6064D17C62","019cfa6f-703d-7135-b79f-3b4a0df60174","019cfa3a-388e-72ab-ad58-bdeb258f96cd","","null","
                <div class=""stimulus-container"">
                    <img src=""images/causal_sequence/package_causal/package_causal_9.png"" class=""exp-image"">
                    <div class=""question-area""></div> 
                </div>","null","","","","","","","","","","","",""
"","","","","","html-button-response","34","90090","0.0-34.0","A692729E73D24CA1921D9B6064D17C62","019cfa6f-703d-7135-b79f-3b4a0df60174","019cfa3a-388e-72ab-ad58-bdeb258f96cd","","573","
                <div class=""stimulus-container"">
                    <img src=""images/causal_sequence/package_causal/package_causal_9.png"" class=""exp-image"">
                    <div class=""question-area"">
                        <p style=""font-size: 20px; font-weight: bold; margin: 0;"">Is there a person in this image?</p>
                    </div>
                </div>","0","main_experiment_trial","9","package_causal","causal_sequence","chronological","","","","","","",""
"","","","","","html-keyboard-response","35","91102","0.0-35.0","A692729E73D24CA1921D9B6064D17C62","019cfa6f-703d-7135-b79f-3b4a0df60174","019cfa3a-388e-72ab-ad58-bdeb258f96cd","","null","
                <div class=""stimulus-container"">
                    <img src=""images/causal_sequence/package_causal/package_causal_ten.png"" class=""exp-image"">
                    <div class=""question-area""></div> 
                </div>","null","","","","","","","","","","","",""
"","","","","","html-button-response","36","91497","0.0-36.0","A692729E73D24CA1921D9B6064D17C62","019cfa6f-703d-7135-b79f-3b4a0df60174","019cfa3a-388e-72ab-ad58-bdeb258f96cd","","394","
                <div class=""stimulus-container"">
                    <img src=""images/causal_sequence/package_causal/package_causal_ten.png"" class=""exp-image"">
                    <div class=""question-area"">
                        <p style=""font-size: 20px; font-weight: bold; margin: 0;"">Is there a person in this image?</p>
                    </div>
                </div>","0","main_experiment_trial","ten","package_causal","causal_sequence","chronological","","","","","","",""
"","","","","","html-keyboard-response","37","96503","0.0-37.0","A692729E73D24CA1921D9B6064D17C62","019cfa6f-703d-7135-b79f-3b4a0df60174","019cfa3a-388e-72ab-ad58-bdeb258f96cd","","null","<div style=""background-color: white; width: 100vw; height: 100vh;""></div>","null","","","","","","","","","","","",""
"","","","","","html-keyboard-response","38","97506","0.0-38.0","A692729E73D24CA1921D9B6064D17C62","019cfa6f-703d-7135-b79f-3b4a0df60174","019cfa3a-388e-72ab-ad58-bdeb258f96cd","","null","
                <div class=""stimulus-container"">
                    <img src=""images/causal_sequence/museum_causal/museum_causal_1.png"" class=""exp-image"">
                    <div class=""question-area""></div> 
                </div>","null","","","","","","","","","","","",""
"","","","","","html-button-response","39","98491","0.0-39.0","A692729E73D24CA1921D9B6064D17C62","019cfa6f-703d-7135-b79f-3b4a0df60174","019cfa3a-388e-72ab-ad58-bdeb258f96cd","","983","
                <div class=""stimulus-container"">
                    <img src=""images/causal_sequence/museum_causal/museum_causal_1.png"" class=""exp-image"">
                    <div class=""question-area"">
                        <p style=""font-size: 20px; font-weight: bold; margin: 0;"">Is there a person in this image?</p>
                    </div>
                </div>","0","main_experiment_trial","1","museum_causal","causal_sequence","chronological","","","","","","",""
"","","","","","html-keyboard-response","40","99494","0.0-40.0","A692729E73D24CA1921D9B6064D17C62","019cfa6f-703d-7135-b79f-3b4a0df60174","019cfa3a-388e-72ab-ad58-bdeb258f96cd","","null","
                <div class=""stimulus-container"">
                    <img src=""images/causal_sequence/museum_causal/museum_causal_2.png"" class=""exp-image"">
                    <div class=""question-area""></div> 
                </div>","null","","","","","","","","","","","",""
"","","","","","html-button-response","41","100767","0.0-41.0","A692729E73D24CA1921D9B6064D17C62","019cfa6f-703d-7135-b79f-3b4a0df60174","019cfa3a-388e-72ab-ad58-bdeb258f96cd","","1272","
                <div class=""stimulus-container"">
                    <img src=""images/causal_sequence/museum_causal/museum_causal_2.png"" class=""exp-image"">
                    <div class=""question-area"">
                        <p style=""font-size: 20px; font-weight: bold; margin: 0;"">Is there a person in this image?</p>
                    </div>
                </div>","0","main_experiment_trial","2","museum_causal","causal_sequence","chronological","","","","","","",""
"","","","","","html-keyboard-response","42","101781","0.0-42.0","A692729E73D24CA1921D9B6064D17C62","019cfa6f-703d-7135-b79f-3b4a0df60174","019cfa3a-388e-72ab-ad58-bdeb258f96cd","","null","
                <div class=""stimulus-container"">
                    <img src=""images/causal_sequence/museum_causal/museum_causal_3.png"" class=""exp-image"">
                    <div class=""question-area""></div> 
                </div>","null","","","","","","","","","","","",""
"","","","","","html-button-response","43","102831","0.0-43.0","A692729E73D24CA1921D9B6064D17C62","019cfa6f-703d-7135-b79f-3b4a0df60174","019cfa3a-388e-72ab-ad58-bdeb258f96cd","","1049","
                <div class=""stimulus-container"">
                    <img src=""images/causal_sequence/museum_causal/museum_causal_3.png"" class=""exp-image"">
                    <div class=""question-area"">
                        <p style=""font-size: 20px; font-weight: bold; margin: 0;"">Is there a person in this image?</p>
                    </div>
                </div>","0","main_experiment_trial","3","museum_causal","causal_sequence","chronological","","","","","","",""
"","","","","","html-keyboard-response","44","103835","0.0-44.0","A692729E73D24CA1921D9B6064D17C62","019cfa6f-703d-7135-b79f-3b4a0df60174","019cfa3a-388e-72ab-ad58-bdeb258f96cd","","null","
                <div class=""stimulus-container"">
                    <img src=""images/causal_sequence/museum_causal/museum_causal_4.png"" class=""exp-image"">
                    <div class=""question-area""></div> 
                </div>","null","","","","","","","","","","","",""
"","","","","","html-button-response","45","104444","0.0-45.0","A692729E73D24CA1921D9B6064D17C62","019cfa6f-703d-7135-b79f-3b4a0df60174","019cfa3a-388e-72ab-ad58-bdeb258f96cd","","607","
                <div class=""stimulus-container"">
                    <img src=""images/causal_sequence/museum_causal/museum_causal_4.png"" class=""exp-image"">
                    <div class=""question-area"">
                        <p style=""font-size: 20px; font-weight: bold; margin: 0;"">Is there a person in this image?</p>
                    </div>
                </div>","1","main_experiment_trial","4","museum_causal","causal_sequence","chronological","","","","","","",""
"","","","","","html-keyboard-response","46","105458","0.0-46.0","A692729E73D24CA1921D9B6064D17C62","019cfa6f-703d-7135-b79f-3b4a0df60174","019cfa3a-388e-72ab-ad58-bdeb258f96cd","","null","
                <div class=""stimulus-container"">
                    <img src=""images/causal_sequence/museum_causal/museum_causal_5.png"" class=""exp-image"">
                    <div class=""question-area""></div> 
                </div>","null","","","","","","","","","","","",""
"","","","","","html-button-response","47","106360","0.0-47.0","A692729E73D24CA1921D9B6064D17C62","019cfa6f-703d-7135-b79f-3b4a0df60174","019cfa3a-388e-72ab-ad58-bdeb258f96cd","","900","
                <div class=""stimulus-container"">
                    <img src=""images/causal_sequence/museum_causal/museum_causal_5.png"" class=""exp-image"">
                    <div class=""question-area"">
                        <p style=""font-size: 20px; font-weight: bold; margin: 0;"">Is there a person in this image?</p>
                    </div>
                </div>","0","main_experiment_trial","5","museum_causal","causal_sequence","chronological","","","","","","",""
"","","","","","html-keyboard-response","48","107371","0.0-48.0","A692729E73D24CA1921D9B6064D17C62","019cfa6f-703d-7135-b79f-3b4a0df60174","019cfa3a-388e-72ab-ad58-bdeb258f96cd","","null","
                <div class=""stimulus-container"">
                    <img src=""images/causal_sequence/museum_causal/museum_causal_6.png"" class=""exp-image"">
                    <div class=""question-area""></div> 
                </div>","null","","","","","","","","","","","",""
"","","","","","html-button-response","49","107859","0.0-49.0","A692729E73D24CA1921D9B6064D17C62","019cfa6f-703d-7135-b79f-3b4a0df60174","019cfa3a-388e-72ab-ad58-bdeb258f96cd","","486","
                <div class=""stimulus-container"">
                    <img src=""images/causal_sequence/museum_causal/museum_causal_6.png"" class=""exp-image"">
                    <div class=""question-area"">
                        <p style=""font-size: 20px; font-weight: bold; margin: 0;"">Is there a person in this image?</p>
                    </div>
                </div>","0","main_experiment_trial","6","museum_causal","causal_sequence","chronological","","","","","","",""
"","","","","","html-keyboard-response","50","108868","0.0-50.0","A692729E73D24CA1921D9B6064D17C62","019cfa6f-703d-7135-b79f-3b4a0df60174","019cfa3a-388e-72ab-ad58-bdeb258f96cd","","null","
                <div class=""stimulus-container"">
                    <img src=""images/causal_sequence/museum_causal/museum_causal_7.png"" class=""exp-image"">
                    <div class=""question-area""></div> 
                </div>","null","","","","","","","","","","","",""
"","","","","","html-button-response","51","109796","0.0-51.0","A692729E73D24CA1921D9B6064D17C62","019cfa6f-703d-7135-b79f-3b4a0df60174","019cfa3a-388e-72ab-ad58-bdeb258f96cd","","926","
                <div class=""stimulus-container"">
                    <img src=""images/causal_sequence/museum_causal/museum_causal_7.png"" class=""exp-image"">
                    <div class=""question-area"">
                        <p style=""font-size: 20px; font-weight: bold; margin: 0;"">Is there a person in this image?</p>
                    </div>
                </div>","1","main_experiment_trial","7","museum_causal","causal_sequence","chronological","","","","","","",""
"","","","","","html-keyboard-response","52","110800","0.0-52.0","A692729E73D24CA1921D9B6064D17C62","019cfa6f-703d-7135-b79f-3b4a0df60174","019cfa3a-388e-72ab-ad58-bdeb258f96cd","","null","
                <div class=""stimulus-container"">
                    <img src=""images/causal_sequence/museum_causal/museum_causal_8.png"" class=""exp-image"">
                    <div class=""question-area""></div> 
                </div>","null","","","","","","","","","","","",""
"","","","","","html-button-response","53","111670","0.0-53.0","A692729E73D24CA1921D9B6064D17C62","019cfa6f-703d-7135-b79f-3b4a0df60174","019cfa3a-388e-72ab-ad58-bdeb258f96cd","","869","
                <div class=""stimulus-container"">
                    <img src=""images/causal_sequence/museum_causal/museum_causal_8.png"" class=""exp-image"">
                    <div class=""question-area"">
                        <p style=""font-size: 20px; font-weight: bold; margin: 0;"">Is there a person in this image?</p>
                    </div>
                </div>","0","main_experiment_trial","8","museum_causal","causal_sequence","chronological","","","","","","",""
"","","","","","html-keyboard-response","54","112680","0.0-54.0","A692729E73D24CA1921D9B6064D17C62","019cfa6f-703d-7135-b79f-3b4a0df60174","019cfa3a-388e-72ab-ad58-bdeb258f96cd","","null","
                <div class=""stimulus-container"">
                    <img src=""images/causal_sequence/museum_causal/museum_causal_9.png"" class=""exp-image"">
                    <div class=""question-area""></div> 
                </div>","null","","","","","","","","","","","",""
"","","","","","html-button-response","55","113608","0.0-55.0","A692729E73D24CA1921D9B6064D17C62","019cfa6f-703d-7135-b79f-3b4a0df60174","019cfa3a-388e-72ab-ad58-bdeb258f96cd","","926","
                <div class=""stimulus-container"">
                    <img src=""images/causal_sequence/museum_causal/museum_causal_9.png"" class=""exp-image"">
                    <div class=""question-area"">
                        <p style=""font-size: 20px; font-weight: bold; margin: 0;"">Is there a person in this image?</p>
                    </div>
                </div>","1","main_experiment_trial","9","museum_causal","causal_sequence","chronological","","","","","","",""
"","","","","","html-keyboard-response","56","114617","0.0-56.0","A692729E73D24CA1921D9B6064D17C62","019cfa6f-703d-7135-b79f-3b4a0df60174","019cfa3a-388e-72ab-ad58-bdeb258f96cd","","null","
                <div class=""stimulus-container"">
                    <img src=""images/causal_sequence/museum_causal/museum_causal_ten.png"" class=""exp-image"">
                    <div class=""question-area""></div> 
                </div>","null","","","","","","","","","","","",""
"","","","","","html-button-response","57","115043","0.0-57.0","A692729E73D24CA1921D9B6064D17C62","019cfa6f-703d-7135-b79f-3b4a0df60174","019cfa3a-388e-72ab-ad58-bdeb258f96cd","","425","
                <div class=""stimulus-container"">
                    <img src=""images/causal_sequence/museum_causal/museum_causal_ten.png"" class=""exp-image"">
                    <div class=""question-area"">
                        <p style=""font-size: 20px; font-weight: bold; margin: 0;"">Is there a person in this image?</p>
                    </div>
                </div>","0","main_experiment_trial","ten","museum_causal","causal_sequence","chronological","","","","","","",""
"","","","","","html-keyboard-response","58","120051","0.0-58.0","A692729E73D24CA1921D9B6064D17C62","019cfa6f-703d-7135-b79f-3b4a0df60174","019cfa3a-388e-72ab-ad58-bdeb258f96cd","","null","<div style=""background-color: white; width: 100vw; height: 100vh;""></div>","null","","","","","","","","","","","",""
"","","","","","html-keyboard-response","59","121062","0.0-59.0","A692729E73D24CA1921D9B6064D17C62","019cfa6f-703d-7135-b79f-3b4a0df60174","019cfa3a-388e-72ab-ad58-bdeb258f96cd","","null","
                <div class=""stimulus-container"">
                    <img src=""images/semantic_sequence/visiting_cities_semantic/visiting_cities_semantic_1.png"" class=""exp-image"">
                    <div class=""question-area""></div> 
                </div>","null","","","","","","","","","","","",""
"","","","","","html-button-response","60","123076","0.0-60.0","A692729E73D24CA1921D9B6064D17C62","019cfa6f-703d-7135-b79f-3b4a0df60174","019cfa3a-388e-72ab-ad58-bdeb258f96cd","","2013","
                <div class=""stimulus-container"">
                    <img src=""images/semantic_sequence/visiting_cities_semantic/visiting_cities_semantic_1.png"" class=""exp-image"">
                    <div class=""question-area"">
                        <p style=""font-size: 20px; font-weight: bold; margin: 0;"">Is there a person in this image?</p>
                    </div>
                </div>","1","main_experiment_trial","1","visiting_cities_semantic","semantic_sequence","chronological","","","","","","",""
"","","","","","html-keyboard-response","61","124082","0.0-61.0","A692729E73D24CA1921D9B6064D17C62","019cfa6f-703d-7135-b79f-3b4a0df60174","019cfa3a-388e-72ab-ad58-bdeb258f96cd","","null","
                <div class=""stimulus-container"">
                    <img src=""images/semantic_sequence/visiting_cities_semantic/visiting_cities_semantic_2.png"" class=""exp-image"">
                    <div class=""question-area""></div> 
                </div>","null","","","","","","","","","","","",""
"","","","","","html-button-response","62","124837","0.0-62.0","A692729E73D24CA1921D9B6064D17C62","019cfa6f-703d-7135-b79f-3b4a0df60174","019cfa3a-388e-72ab-ad58-bdeb258f96cd","","753","
                <div class=""stimulus-container"">
                    <img src=""images/semantic_sequence/visiting_cities_semantic/visiting_cities_semantic_2.png"" class=""exp-image"">
                    <div class=""question-area"">
                        <p style=""font-size: 20px; font-weight: bold; margin: 0;"">Is there a person in this image?</p>
                    </div>
                </div>","1","main_experiment_trial","2","visiting_cities_semantic","semantic_sequence","chronological","","","","","","",""
"","","","","","html-keyboard-response","63","125845","0.0-63.0","A692729E73D24CA1921D9B6064D17C62","019cfa6f-703d-7135-b79f-3b4a0df60174","019cfa3a-388e-72ab-ad58-bdeb258f96cd","","null","
                <div class=""stimulus-container"">
                    <img src=""images/semantic_sequence/visiting_cities_semantic/visiting_cities_semantic_3.png"" class=""exp-image"">
                    <div class=""question-area""></div> 
                </div>","null","","","","","","","","","","","",""
"","","","","","html-button-response","64","126265","0.0-64.0","A692729E73D24CA1921D9B6064D17C62","019cfa6f-703d-7135-b79f-3b4a0df60174","019cfa3a-388e-72ab-ad58-bdeb258f96cd","","418","
                <div class=""stimulus-container"">
                    <img src=""images/semantic_sequence/visiting_cities_semantic/visiting_cities_semantic_3.png"" class=""exp-image"">
                    <div class=""question-area"">
                        <p style=""font-size: 20px; font-weight: bold; margin: 0;"">Is there a person in this image?</p>
                    </div>
                </div>","1","main_experiment_trial","3","visiting_cities_semantic","semantic_sequence","chronological","","","","","","",""
"","","","","","html-keyboard-response","65","127278","0.0-65.0","A692729E73D24CA1921D9B6064D17C62","019cfa6f-703d-7135-b79f-3b4a0df60174","019cfa3a-388e-72ab-ad58-bdeb258f96cd","","null","
                <div class=""stimulus-container"">
                    <img src=""images/semantic_sequence/visiting_cities_semantic/visiting_cities_semantic_4.png"" class=""exp-image"">
                    <div class=""question-area""></div> 
                </div>","null","","","","","","","","","","","",""
"","","","","","html-button-response","66","127686","0.0-66.0","A692729E73D24CA1921D9B6064D17C62","019cfa6f-703d-7135-b79f-3b4a0df60174","019cfa3a-388e-72ab-ad58-bdeb258f96cd","","407","
                <div class=""stimulus-container"">
                    <img src=""images/semantic_sequence/visiting_cities_semantic/visiting_cities_semantic_4.png"" class=""exp-image"">
                    <div class=""question-area"">
                        <p style=""font-size: 20px; font-weight: bold; margin: 0;"">Is there a person in this image?</p>
                    </div>
                </div>","1","main_experiment_trial","4","visiting_cities_semantic","semantic_sequence","chronological","","","","","","",""
"","","","","","html-keyboard-response","67","128701","0.0-67.0","A692729E73D24CA1921D9B6064D17C62","019cfa6f-703d-7135-b79f-3b4a0df60174","019cfa3a-388e-72ab-ad58-bdeb258f96cd","","null","
                <div class=""stimulus-container"">
                    <img src=""images/semantic_sequence/visiting_cities_semantic/visiting_cities_semantic_5.png"" class=""exp-image"">
                    <div class=""question-area""></div> 
                </div>","null","","","","","","","","","","","",""
"","","","","","html-button-response","68","129270","0.0-68.0","A692729E73D24CA1921D9B6064D17C62","019cfa6f-703d-7135-b79f-3b4a0df60174","019cfa3a-388e-72ab-ad58-bdeb258f96cd","","568","
                <div class=""stimulus-container"">
                    <img src=""images/semantic_sequence/visiting_cities_semantic/visiting_cities_semantic_5.png"" class=""exp-image"">
                    <div class=""question-area"">
                        <p style=""font-size: 20px; font-weight: bold; margin: 0;"">Is there a person in this image?</p>
                    </div>
                </div>","1","main_experiment_trial","5","visiting_cities_semantic","semantic_sequence","chronological","","","","","","",""
"","","","","","html-keyboard-response","69","130282","0.0-69.0","A692729E73D24CA1921D9B6064D17C62","019cfa6f-703d-7135-b79f-3b4a0df60174","019cfa3a-388e-72ab-ad58-bdeb258f96cd","","null","
                <div class=""stimulus-container"">
                    <img src=""images/semantic_sequence/visiting_cities_semantic/visiting_cities_semantic_6.png"" class=""exp-image"">
                    <div class=""question-area""></div> 
                </div>","null","","","","","","","","","","","",""
"","","","","","html-button-response","70","130678","0.0-70.0","A692729E73D24CA1921D9B6064D17C62","019cfa6f-703d-7135-b79f-3b4a0df60174","019cfa3a-388e-72ab-ad58-bdeb258f96cd","","395","
                <div class=""stimulus-container"">
                    <img src=""images/semantic_sequence/visiting_cities_semantic/visiting_cities_semantic_6.png"" class=""exp-image"">
                    <div class=""question-area"">
                        <p style=""font-size: 20px; font-weight: bold; margin: 0;"">Is there a person in this image?</p>
                    </div>
                </div>","1","main_experiment_trial","6","visiting_cities_semantic","semantic_sequence","chronological","","","","","","",""
"","","","","","html-keyboard-response","71","131682","0.0-71.0","A692729E73D24CA1921D9B6064D17C62","019cfa6f-703d-7135-b79f-3b4a0df60174","019cfa3a-388e-72ab-ad58-bdeb258f96cd","","null","
                <div class=""stimulus-container"">
                    <img src=""images/semantic_sequence/visiting_cities_semantic/visiting_cities_semantic_7.png"" class=""exp-image"">
                    <div class=""question-area""></div> 
                </div>","null","","","","","","","","","","","",""
"","","","","","html-button-response","72","132665","0.0-72.0","A692729E73D24CA1921D9B6064D17C62","019cfa6f-703d-7135-b79f-3b4a0df60174","019cfa3a-388e-72ab-ad58-bdeb258f96cd","","980","
                <div class=""stimulus-container"">
                    <img src=""images/semantic_sequence/visiting_cities_semantic/visiting_cities_semantic_7.png"" class=""exp-image"">
                    <div class=""question-area"">
                        <p style=""font-size: 20px; font-weight: bold; margin: 0;"">Is there a person in this image?</p>
                    </div>
                </div>","0","main_experiment_trial","7","visiting_cities_semantic","semantic_sequence","chronological","","","","","","",""
"","","","","","html-keyboard-response","73","133668","0.0-73.0","A692729E73D24CA1921D9B6064D17C62","019cfa6f-703d-7135-b79f-3b4a0df60174","019cfa3a-388e-72ab-ad58-bdeb258f96cd","","null","
                <div class=""stimulus-container"">
                    <img src=""images/semantic_sequence/visiting_cities_semantic/visiting_cities_semantic_8.png"" class=""exp-image"">
                    <div class=""question-area""></div> 
                </div>","null","","","","","","","","","","","",""
"","","","","","html-button-response","74","134786","0.0-74.0","A692729E73D24CA1921D9B6064D17C62","019cfa6f-703d-7135-b79f-3b4a0df60174","019cfa3a-388e-72ab-ad58-bdeb258f96cd","","1116","
                <div class=""stimulus-container"">
                    <img src=""images/semantic_sequence/visiting_cities_semantic/visiting_cities_semantic_8.png"" class=""exp-image"">
                    <div class=""question-area"">
                        <p style=""font-size: 20px; font-weight: bold; margin: 0;"">Is there a person in this image?</p>
                    </div>
                </div>","1","main_experiment_trial","8","visiting_cities_semantic","semantic_sequence","chronological","","","","","","",""
"","","","","","html-keyboard-response","75","135805","0.0-75.0","A692729E73D24CA1921D9B6064D17C62","019cfa6f-703d-7135-b79f-3b4a0df60174","019cfa3a-388e-72ab-ad58-bdeb258f96cd","","null","
                <div class=""stimulus-container"">
                    <img src=""images/semantic_sequence/visiting_cities_semantic/visiting_cities_semantic_9.png"" class=""exp-image"">
                    <div class=""question-area""></div> 
                </div>","null","","","","","","","","","","","",""
"","","","","","html-button-response","76","135946","0.0-76.0","A692729E73D24CA1921D9B6064D17C62","019cfa6f-703d-7135-b79f-3b4a0df60174","019cfa3a-388e-72ab-ad58-bdeb258f96cd","","139","
                <div class=""stimulus-container"">
                    <img src=""images/semantic_sequence/visiting_cities_semantic/visiting_cities_semantic_9.png"" class=""exp-image"">
                    <div class=""question-area"">
                        <p style=""font-size: 20px; font-weight: bold; margin: 0;"">Is there a person in this image?</p>
                    </div>
                </div>","1","main_experiment_trial","9","visiting_cities_semantic","semantic_sequence","chronological","","","","","","",""
"","","","","","html-keyboard-response","77","136953","0.0-77.0","A692729E73D24CA1921D9B6064D17C62","019cfa6f-703d-7135-b79f-3b4a0df60174","019cfa3a-388e-72ab-ad58-bdeb258f96cd","","null","
                <div class=""stimulus-container"">
                    <img src=""images/semantic_sequence/visiting_cities_semantic/visiting_cities_semantic_ten.png"" class=""exp-image"">
                    <div class=""question-area""></div> 
                </div>","null","","","","","","","","","","","",""
"","","","","","html-button-response","78","137621","0.0-78.0","A692729E73D24CA1921D9B6064D17C62","019cfa6f-703d-7135-b79f-3b4a0df60174","019cfa3a-388e-72ab-ad58-bdeb258f96cd","","667","
                <div class=""stimulus-container"">
                    <img src=""images/semantic_sequence/visiting_cities_semantic/visiting_cities_semantic_ten.png"" class=""exp-image"">
                    <div class=""question-area"">
                        <p style=""font-size: 20px; font-weight: bold; margin: 0;"">Is there a person in this image?</p>
                    </div>
                </div>","1","main_experiment_trial","ten","visiting_cities_semantic","semantic_sequence","chronological","","","","","","",""
"","","","","","html-keyboard-response","79","142623","0.0-79.0","A692729E73D24CA1921D9B6064D17C62","019cfa6f-703d-7135-b79f-3b4a0df60174","019cfa3a-388e-72ab-ad58-bdeb258f96cd","","null","<div style=""background-color: white; width: 100vw; height: 100vh;""></div>","null","","","","","","","","","","","",""
"","","","","","html-keyboard-response","80","143639","0.0-80.0","A692729E73D24CA1921D9B6064D17C62","019cfa6f-703d-7135-b79f-3b4a0df60174","019cfa3a-388e-72ab-ad58-bdeb258f96cd","","null","
                <div class=""stimulus-container"">
                    <img src=""images/causal_sequence/saving_a_cat_causal/saving_a_cat_causal_1.png"" class=""exp-image"">
                    <div class=""question-area""></div> 
                </div>","null","","","","","","","","","","","",""
"","","","","","html-button-response","81","144551","0.0-81.0","A692729E73D24CA1921D9B6064D17C62","019cfa6f-703d-7135-b79f-3b4a0df60174","019cfa3a-388e-72ab-ad58-bdeb258f96cd","","911","
                <div class=""stimulus-container"">
                    <img src=""images/causal_sequence/saving_a_cat_causal/saving_a_cat_causal_1.png"" class=""exp-image"">
                    <div class=""question-area"">
                        <p style=""font-size: 20px; font-weight: bold; margin: 0;"">Is there a person in this image?</p>
                    </div>
                </div>","0","main_experiment_trial","1","saving_a_cat_causal","causal_sequence","chronological","","","","","","",""
"","","","","","html-keyboard-response","82","145555","0.0-82.0","A692729E73D24CA1921D9B6064D17C62","019cfa6f-703d-7135-b79f-3b4a0df60174","019cfa3a-388e-72ab-ad58-bdeb258f96cd","","null","
                <div class=""stimulus-container"">
                    <img src=""images/causal_sequence/saving_a_cat_causal/saving_a_cat_causal_2.png"" class=""exp-image"">
                    <div class=""question-area""></div> 
                </div>","null","","","","","","","","","","","",""
"","","","","","html-button-response","83","146241","0.0-83.0","A692729E73D24CA1921D9B6064D17C62","019cfa6f-703d-7135-b79f-3b4a0df60174","019cfa3a-388e-72ab-ad58-bdeb258f96cd","","684","
                <div class=""stimulus-container"">
                    <img src=""images/causal_sequence/saving_a_cat_causal/saving_a_cat_causal_2.png"" class=""exp-image"">
                    <div class=""question-area"">
                        <p style=""font-size: 20px; font-weight: bold; margin: 0;"">Is there a person in this image?</p>
                    </div>
                </div>","1","main_experiment_trial","2","saving_a_cat_causal","causal_sequence","chronological","","","","","","",""
"","","","","","html-keyboard-response","84","147255","0.0-84.0","A692729E73D24CA1921D9B6064D17C62","019cfa6f-703d-7135-b79f-3b4a0df60174","019cfa3a-388e-72ab-ad58-bdeb258f96cd","","null","
                <div class=""stimulus-container"">
                    <img src=""images/causal_sequence/saving_a_cat_causal/saving_a_cat_causal_3.png"" class=""exp-image"">
                    <div class=""question-area""></div> 
                </div>","null","","","","","","","","","","","",""
"","","","","","html-button-response","85","147740","0.0-85.0","A692729E73D24CA1921D9B6064D17C62","019cfa6f-703d-7135-b79f-3b4a0df60174","019cfa3a-388e-72ab-ad58-bdeb258f96cd","","484","
                <div class=""stimulus-container"">
                    <img src=""images/causal_sequence/saving_a_cat_causal/saving_a_cat_causal_3.png"" class=""exp-image"">
                    <div class=""question-area"">
                        <p style=""font-size: 20px; font-weight: bold; margin: 0;"">Is there a person in this image?</p>
                    </div>
                </div>","1","main_experiment_trial","3","saving_a_cat_causal","causal_sequence","chronological","","","","","","",""
"","","","","","html-keyboard-response","86","148743","0.0-86.0","A692729E73D24CA1921D9B6064D17C62","019cfa6f-703d-7135-b79f-3b4a0df60174","019cfa3a-388e-72ab-ad58-bdeb258f96cd","","null","
                <div class=""stimulus-container"">
                    <img src=""images/causal_sequence/saving_a_cat_causal/saving_a_cat_causal_4.png"" class=""exp-image"">
                    <div class=""question-area""></div> 
                </div>","null","","","","","","","","","","","",""
"","","","","","html-button-response","87","149281","0.0-87.0","A692729E73D24CA1921D9B6064D17C62","019cfa6f-703d-7135-b79f-3b4a0df60174","019cfa3a-388e-72ab-ad58-bdeb258f96cd","","537","
                <div class=""stimulus-container"">
                    <img src=""images/causal_sequence/saving_a_cat_causal/saving_a_cat_causal_4.png"" class=""exp-image"">
                    <div class=""question-area"">
                        <p style=""font-size: 20px; font-weight: bold; margin: 0;"">Is there a person in this image?</p>
                    </div>
                </div>","0","main_experiment_trial","4","saving_a_cat_causal","causal_sequence","chronological","","","","","","",""
"","","","","","html-keyboard-response","88","150291","0.0-88.0","A692729E73D24CA1921D9B6064D17C62","019cfa6f-703d-7135-b79f-3b4a0df60174","019cfa3a-388e-72ab-ad58-bdeb258f96cd","","null","
                <div class=""stimulus-container"">
                    <img src=""images/causal_sequence/saving_a_cat_causal/saving_a_cat_causal_5.png"" class=""exp-image"">
                    <div class=""question-area""></div> 
                </div>","null","","","","","","","","","","","",""
"","","","","","html-button-response","89","150716","0.0-89.0","A692729E73D24CA1921D9B6064D17C62","019cfa6f-703d-7135-b79f-3b4a0df60174","019cfa3a-388e-72ab-ad58-bdeb258f96cd","","423","
                <div class=""stimulus-container"">
                    <img src=""images/causal_sequence/saving_a_cat_causal/saving_a_cat_causal_5.png"" class=""exp-image"">
                    <div class=""question-area"">
                        <p style=""font-size: 20px; font-weight: bold; margin: 0;"">Is there a person in this image?</p>
                    </div>
                </div>","0","main_experiment_trial","5","saving_a_cat_causal","causal_sequence","chronological","","","","","","",""
"","","","","","html-keyboard-response","90","151726","0.0-90.0","A692729E73D24CA1921D9B6064D17C62","019cfa6f-703d-7135-b79f-3b4a0df60174","019cfa3a-388e-72ab-ad58-bdeb258f96cd","","null","
                <div class=""stimulus-container"">
                    <img src=""images/causal_sequence/saving_a_cat_causal/saving_a_cat_causal_6.png"" class=""exp-image"">
                    <div class=""question-area""></div> 
                </div>","null","","","","","","","","","","","",""
"","","","","","html-button-response","91","152519","0.0-91.0","A692729E73D24CA1921D9B6064D17C62","019cfa6f-703d-7135-b79f-3b4a0df60174","019cfa3a-388e-72ab-ad58-bdeb258f96cd","","792","
                <div class=""stimulus-container"">
                    <img src=""images/causal_sequence/saving_a_cat_causal/saving_a_cat_causal_6.png"" class=""exp-image"">
                    <div class=""question-area"">
                        <p style=""font-size: 20px; font-weight: bold; margin: 0;"">Is there a person in this image?</p>
                    </div>
                </div>","0","main_experiment_trial","6","saving_a_cat_causal","causal_sequence","chronological","","","","","","",""
"","","","","","html-keyboard-response","92","153522","0.0-92.0","A692729E73D24CA1921D9B6064D17C62","019cfa6f-703d-7135-b79f-3b4a0df60174","019cfa3a-388e-72ab-ad58-bdeb258f96cd","","null","
                <div class=""stimulus-container"">
                    <img src=""images/causal_sequence/saving_a_cat_causal/saving_a_cat_causal_7.png"" class=""exp-image"">
                    <div class=""question-area""></div> 
                </div>","null","","","","","","","","","","","",""
"","","","","","html-button-response","93","154619","0.0-93.0","A692729E73D24CA1921D9B6064D17C62","019cfa6f-703d-7135-b79f-3b4a0df60174","019cfa3a-388e-72ab-ad58-bdeb258f96cd","","1096","
                <div class=""stimulus-container"">
                    <img src=""images/causal_sequence/saving_a_cat_causal/saving_a_cat_causal_7.png"" class=""exp-image"">
                    <div class=""question-area"">
                        <p style=""font-size: 20px; font-weight: bold; margin: 0;"">Is there a person in this image?</p>
                    </div>
                </div>","0","main_experiment_trial","7","saving_a_cat_causal","causal_sequence","chronological","","","","","","",""
"","","","","","html-keyboard-response","94","155622","0.0-94.0","A692729E73D24CA1921D9B6064D17C62","019cfa6f-703d-7135-b79f-3b4a0df60174","019cfa3a-388e-72ab-ad58-bdeb258f96cd","","null","
                <div class=""stimulus-container"">
                    <img src=""images/causal_sequence/saving_a_cat_causal/saving_a_cat_causal_8.png"" class=""exp-image"">
                    <div class=""question-area""></div> 
                </div>","null","","","","","","","","","","","",""
"","","","","","html-button-response","95","156373","0.0-95.0","A692729E73D24CA1921D9B6064D17C62","019cfa6f-703d-7135-b79f-3b4a0df60174","019cfa3a-388e-72ab-ad58-bdeb258f96cd","","750","
                <div class=""stimulus-container"">
                    <img src=""images/causal_sequence/saving_a_cat_causal/saving_a_cat_causal_8.png"" class=""exp-image"">
                    <div class=""question-area"">
                        <p style=""font-size: 20px; font-weight: bold; margin: 0;"">Is there a person in this image?</p>
                    </div>
                </div>","0","main_experiment_trial","8","saving_a_cat_causal","causal_sequence","chronological","","","","","","",""
"","","","","","html-keyboard-response","96","157387","0.0-96.0","A692729E73D24CA1921D9B6064D17C62","019cfa6f-703d-7135-b79f-3b4a0df60174","019cfa3a-388e-72ab-ad58-bdeb258f96cd","","null","
                <div class=""stimulus-container"">
                    <img src=""images/causal_sequence/saving_a_cat_causal/saving_a_cat_causal_9.png"" class=""exp-image"">
                    <div class=""question-area""></div> 
                </div>","null","","","","","","","","","","","",""
"","","","","","html-button-response","97","158254","0.0-97.0","A692729E73D24CA1921D9B6064D17C62","019cfa6f-703d-7135-b79f-3b4a0df60174","019cfa3a-388e-72ab-ad58-bdeb258f96cd","","866","
                <div class=""stimulus-container"">
                    <img src=""images/causal_sequence/saving_a_cat_causal/saving_a_cat_causal_9.png"" class=""exp-image"">
                    <div class=""question-area"">
                        <p style=""font-size: 20px; font-weight: bold; margin: 0;"">Is there a person in this image?</p>
                    </div>
                </div>","0","main_experiment_trial","9","saving_a_cat_causal","causal_sequence","chronological","","","","","","",""
"","","","","","html-keyboard-response","98","159258","0.0-98.0","A692729E73D24CA1921D9B6064D17C62","019cfa6f-703d-7135-b79f-3b4a0df60174","019cfa3a-388e-72ab-ad58-bdeb258f96cd","","null","
                <div class=""stimulus-container"">
                    <img src=""images/causal_sequence/saving_a_cat_causal/saving_a_cat_causal_ten.png"" class=""exp-image"">
                    <div class=""question-area""></div> 
                </div>","null","","","","","","","","","","","",""
"","","","","","html-button-response","99","160524","0.0-99.0","A692729E73D24CA1921D9B6064D17C62","019cfa6f-703d-7135-b79f-3b4a0df60174","019cfa3a-388e-72ab-ad58-bdeb258f96cd","","1264","
                <div class=""stimulus-container"">
                    <img src=""images/causal_sequence/saving_a_cat_causal/saving_a_cat_causal_ten.png"" class=""exp-image"">
                    <div class=""question-area"">
                        <p style=""font-size: 20px; font-weight: bold; margin: 0;"">Is there a person in this image?</p>
                    </div>
                </div>","0","main_experiment_trial","ten","saving_a_cat_causal","causal_sequence","chronological","","","","","","",""
"","","","","","html-keyboard-response","100","165527","0.0-100.0","A692729E73D24CA1921D9B6064D17C62","019cfa6f-703d-7135-b79f-3b4a0df60174","019cfa3a-388e-72ab-ad58-bdeb258f96cd","","null","<div style=""background-color: white; width: 100vw; height: 100vh;""></div>","null","","","","","","","","","","","",""
"","","","","","html-keyboard-response","101","166529","0.0-101.0","A692729E73D24CA1921D9B6064D17C62","019cfa6f-703d-7135-b79f-3b4a0df60174","019cfa3a-388e-72ab-ad58-bdeb258f96cd","","null","
                <div class=""stimulus-container"">
                    <img src=""images/semantic_sequence/physical_activity_semantic/physical_activity_semantic_1.png"" class=""exp-image"">
                    <div class=""question-area""></div> 
                </div>","null","","","","","","","","","","","",""
"","","","","","html-button-response","102","167742","0.0-102.0","A692729E73D24CA1921D9B6064D17C62","019cfa6f-703d-7135-b79f-3b4a0df60174","019cfa3a-388e-72ab-ad58-bdeb258f96cd","","1213","
                <div class=""stimulus-container"">
                    <img src=""images/semantic_sequence/physical_activity_semantic/physical_activity_semantic_1.png"" class=""exp-image"">
                    <div class=""question-area"">
                        <p style=""font-size: 20px; font-weight: bold; margin: 0;"">Is there a person in this image?</p>
                    </div>
                </div>","0","main_experiment_trial","1","physical_activity_semantic","semantic_sequence","chronological","","","","","","",""
"","","","","","html-keyboard-response","103","168757","0.0-103.0","A692729E73D24CA1921D9B6064D17C62","019cfa6f-703d-7135-b79f-3b4a0df60174","019cfa3a-388e-72ab-ad58-bdeb258f96cd","","null","
                <div class=""stimulus-container"">
                    <img src=""images/semantic_sequence/physical_activity_semantic/physical_activity_semantic_2.png"" class=""exp-image"">
                    <div class=""question-area""></div> 
                </div>","null","","","","","","","","","","","",""
"","","","","","html-button-response","104","169630","0.0-104.0","A692729E73D24CA1921D9B6064D17C62","019cfa6f-703d-7135-b79f-3b4a0df60174","019cfa3a-388e-72ab-ad58-bdeb258f96cd","","871","
                <div class=""stimulus-container"">
                    <img src=""images/semantic_sequence/physical_activity_semantic/physical_activity_semantic_2.png"" class=""exp-image"">
                    <div class=""question-area"">
                        <p style=""font-size: 20px; font-weight: bold; margin: 0;"">Is there a person in this image?</p>
                    </div>
                </div>","0","main_experiment_trial","2","physical_activity_semantic","semantic_sequence","chronological","","","","","","",""
"","","","","","html-keyboard-response","105","170645","0.0-105.0","A692729E73D24CA1921D9B6064D17C62","019cfa6f-703d-7135-b79f-3b4a0df60174","019cfa3a-388e-72ab-ad58-bdeb258f96cd","","null","
                <div class=""stimulus-container"">
                    <img src=""images/semantic_sequence/physical_activity_semantic/physical_activity_semantic_3.png"" class=""exp-image"">
                    <div class=""question-area""></div> 
                </div>","null","","","","","","","","","","","",""
"","","","","","html-button-response","106","171136","0.0-106.0","A692729E73D24CA1921D9B6064D17C62","019cfa6f-703d-7135-b79f-3b4a0df60174","019cfa3a-388e-72ab-ad58-bdeb258f96cd","","489","
                <div class=""stimulus-container"">
                    <img src=""images/semantic_sequence/physical_activity_semantic/physical_activity_semantic_3.png"" class=""exp-image"">
                    <div class=""question-area"">
                        <p style=""font-size: 20px; font-weight: bold; margin: 0;"">Is there a person in this image?</p>
                    </div>
                </div>","0","main_experiment_trial","3","physical_activity_semantic","semantic_sequence","chronological","","","","","","",""
"","","","","","html-keyboard-response","107","172140","0.0-107.0","A692729E73D24CA1921D9B6064D17C62","019cfa6f-703d-7135-b79f-3b4a0df60174","019cfa3a-388e-72ab-ad58-bdeb258f96cd","","null","
                <div class=""stimulus-container"">
                    <img src=""images/semantic_sequence/physical_activity_semantic/physical_activity_semantic_4.png"" class=""exp-image"">
                    <div class=""question-area""></div> 
                </div>","null","","","","","","","","","","","",""
"","","","","","html-button-response","108","172522","0.0-108.0","A692729E73D24CA1921D9B6064D17C62","019cfa6f-703d-7135-b79f-3b4a0df60174","019cfa3a-388e-72ab-ad58-bdeb258f96cd","","381","
                <div class=""stimulus-container"">
                    <img src=""images/semantic_sequence/physical_activity_semantic/physical_activity_semantic_4.png"" class=""exp-image"">
                    <div class=""question-area"">
                        <p style=""font-size: 20px; font-weight: bold; margin: 0;"">Is there a person in this image?</p>
                    </div>
                </div>","0","main_experiment_trial","4","physical_activity_semantic","semantic_sequence","chronological","","","","","","",""
"","","","","","html-keyboard-response","109","173527","0.0-109.0","A692729E73D24CA1921D9B6064D17C62","019cfa6f-703d-7135-b79f-3b4a0df60174","019cfa3a-388e-72ab-ad58-bdeb258f96cd","","null","
                <div class=""stimulus-container"">
                    <img src=""images/semantic_sequence/physical_activity_semantic/physical_activity_semantic_5.png"" class=""exp-image"">
                    <div class=""question-area""></div> 
                </div>","null","","","","","","","","","","","",""
"","","","","","html-button-response","110","174198","0.0-110.0","A692729E73D24CA1921D9B6064D17C62","019cfa6f-703d-7135-b79f-3b4a0df60174","019cfa3a-388e-72ab-ad58-bdeb258f96cd","","669","
                <div class=""stimulus-container"">
                    <img src=""images/semantic_sequence/physical_activity_semantic/physical_activity_semantic_5.png"" class=""exp-image"">
                    <div class=""question-area"">
                        <p style=""font-size: 20px; font-weight: bold; margin: 0;"">Is there a person in this image?</p>
                    </div>
                </div>","0","main_experiment_trial","5","physical_activity_semantic","semantic_sequence","chronological","","","","","","",""
"","","","","","html-keyboard-response","111","175206","0.0-111.0","A692729E73D24CA1921D9B6064D17C62","019cfa6f-703d-7135-b79f-3b4a0df60174","019cfa3a-388e-72ab-ad58-bdeb258f96cd","","null","
                <div class=""stimulus-container"">
                    <img src=""images/semantic_sequence/physical_activity_semantic/physical_activity_semantic_6.png"" class=""exp-image"">
                    <div class=""question-area""></div> 
                </div>","null","","","","","","","","","","","",""
"","","","","","html-button-response","112","175760","0.0-112.0","A692729E73D24CA1921D9B6064D17C62","019cfa6f-703d-7135-b79f-3b4a0df60174","019cfa3a-388e-72ab-ad58-bdeb258f96cd","","553","
                <div class=""stimulus-container"">
                    <img src=""images/semantic_sequence/physical_activity_semantic/physical_activity_semantic_6.png"" class=""exp-image"">
                    <div class=""question-area"">
                        <p style=""font-size: 20px; font-weight: bold; margin: 0;"">Is there a person in this image?</p>
                    </div>
                </div>","0","main_experiment_trial","6","physical_activity_semantic","semantic_sequence","chronological","","","","","","",""
"","","","","","html-keyboard-response","113","176774","0.0-113.0","A692729E73D24CA1921D9B6064D17C62","019cfa6f-703d-7135-b79f-3b4a0df60174","019cfa3a-388e-72ab-ad58-bdeb258f96cd","","null","
                <div class=""stimulus-container"">
                    <img src=""images/semantic_sequence/physical_activity_semantic/physical_activity_semantic_7.png"" class=""exp-image"">
                    <div class=""question-area""></div> 
                </div>","null","","","","","","","","","","","",""
"","","","","","html-button-response","114","177253","0.0-114.0","A692729E73D24CA1921D9B6064D17C62","019cfa6f-703d-7135-b79f-3b4a0df60174","019cfa3a-388e-72ab-ad58-bdeb258f96cd","","477","
                <div class=""stimulus-container"">
                    <img src=""images/semantic_sequence/physical_activity_semantic/physical_activity_semantic_7.png"" class=""exp-image"">
                    <div class=""question-area"">
                        <p style=""font-size: 20px; font-weight: bold; margin: 0;"">Is there a person in this image?</p>
                    </div>
                </div>","0","main_experiment_trial","7","physical_activity_semantic","semantic_sequence","chronological","","","","","","",""
"","","","","","html-keyboard-response","115","178269","0.0-115.0","A692729E73D24CA1921D9B6064D17C62","019cfa6f-703d-7135-b79f-3b4a0df60174","019cfa3a-388e-72ab-ad58-bdeb258f96cd","","null","
                <div class=""stimulus-container"">
                    <img src=""images/semantic_sequence/physical_activity_semantic/physical_activity_semantic_8.png"" class=""exp-image"">
                    <div class=""question-area""></div> 
                </div>","null","","","","","","","","","","","",""
"","","","","","html-button-response","116","178717","0.0-116.0","A692729E73D24CA1921D9B6064D17C62","019cfa6f-703d-7135-b79f-3b4a0df60174","019cfa3a-388e-72ab-ad58-bdeb258f96cd","","447","
                <div class=""stimulus-container"">
                    <img src=""images/semantic_sequence/physical_activity_semantic/physical_activity_semantic_8.png"" class=""exp-image"">
                    <div class=""question-area"">
                        <p style=""font-size: 20px; font-weight: bold; margin: 0;"">Is there a person in this image?</p>
                    </div>
                </div>","0","main_experiment_trial","8","physical_activity_semantic","semantic_sequence","chronological","","","","","","",""
"","","","","","html-keyboard-response","117","179732","0.0-117.0","A692729E73D24CA1921D9B6064D17C62","019cfa6f-703d-7135-b79f-3b4a0df60174","019cfa3a-388e-72ab-ad58-bdeb258f96cd","","null","
                <div class=""stimulus-container"">
                    <img src=""images/semantic_sequence/physical_activity_semantic/physical_activity_semantic_9.png"" class=""exp-image"">
                    <div class=""question-area""></div> 
                </div>","null","","","","","","","","","","","",""
"","","","","","html-button-response","118","180188","0.0-118.0","A692729E73D24CA1921D9B6064D17C62","019cfa6f-703d-7135-b79f-3b4a0df60174","019cfa3a-388e-72ab-ad58-bdeb258f96cd","","454","
                <div class=""stimulus-container"">
                    <img src=""images/semantic_sequence/physical_activity_semantic/physical_activity_semantic_9.png"" class=""exp-image"">
                    <div class=""question-area"">
                        <p style=""font-size: 20px; font-weight: bold; margin: 0;"">Is there a person in this image?</p>
                    </div>
                </div>","0","main_experiment_trial","9","physical_activity_semantic","semantic_sequence","chronological","","","","","","",""
"","","","","","html-keyboard-response","119","181195","0.0-119.0","A692729E73D24CA1921D9B6064D17C62","019cfa6f-703d-7135-b79f-3b4a0df60174","019cfa3a-388e-72ab-ad58-bdeb258f96cd","","null","
                <div class=""stimulus-container"">
                    <img src=""images/semantic_sequence/physical_activity_semantic/physical_activity_semantic_ten.png"" class=""exp-image"">
                    <div class=""question-area""></div> 
                </div>","null","","","","","","","","","","","",""
"","","","","","html-button-response","120","181645","0.0-120.0","A692729E73D24CA1921D9B6064D17C62","019cfa6f-703d-7135-b79f-3b4a0df60174","019cfa3a-388e-72ab-ad58-bdeb258f96cd","","448","
                <div class=""stimulus-container"">
                    <img src=""images/semantic_sequence/physical_activity_semantic/physical_activity_semantic_ten.png"" class=""exp-image"">
                    <div class=""question-area"">
                        <p style=""font-size: 20px; font-weight: bold; margin: 0;"">Is there a person in this image?</p>
                    </div>
                </div>","0","main_experiment_trial","ten","physical_activity_semantic","semantic_sequence","chronological","","","","","","",""
"","","","","","html-keyboard-response","121","186646","0.0-121.0","A692729E73D24CA1921D9B6064D17C62","019cfa6f-703d-7135-b79f-3b4a0df60174","019cfa3a-388e-72ab-ad58-bdeb258f96cd","","null","<div style=""background-color: white; width: 100vw; height: 100vh;""></div>","null","","","","","","","","","","","",""
"","","","","","html-keyboard-response","122","187659","0.0-122.0","A692729E73D24CA1921D9B6064D17C62","019cfa6f-703d-7135-b79f-3b4a0df60174","019cfa3a-388e-72ab-ad58-bdeb258f96cd","","null","
                <div class=""stimulus-container"">
                    <img src=""images/semantic_sequence/market_semantic/market_semantic_1.png"" class=""exp-image"">
                    <div class=""question-area""></div> 
                </div>","null","","","","","","","","","","","",""
"","","","","","html-button-response","123","188984","0.0-123.0","A692729E73D24CA1921D9B6064D17C62","019cfa6f-703d-7135-b79f-3b4a0df60174","019cfa3a-388e-72ab-ad58-bdeb258f96cd","","1324","
                <div class=""stimulus-container"">
                    <img src=""images/semantic_sequence/market_semantic/market_semantic_1.png"" class=""exp-image"">
                    <div class=""question-area"">
                        <p style=""font-size: 20px; font-weight: bold; margin: 0;"">Is there a person in this image?</p>
                    </div>
                </div>","1","main_experiment_trial","1","market_semantic","semantic_sequence","chronological","","","","","","",""
"","","","","","html-keyboard-response","124","189989","0.0-124.0","A692729E73D24CA1921D9B6064D17C62","019cfa6f-703d-7135-b79f-3b4a0df60174","019cfa3a-388e-72ab-ad58-bdeb258f96cd","","null","
                <div class=""stimulus-container"">
                    <img src=""images/semantic_sequence/market_semantic/market_semantic_2.png"" class=""exp-image"">
                    <div class=""question-area""></div> 
                </div>","null","","","","","","","","","","","",""
"","","","","","html-button-response","125","190257","0.0-125.0","A692729E73D24CA1921D9B6064D17C62","019cfa6f-703d-7135-b79f-3b4a0df60174","019cfa3a-388e-72ab-ad58-bdeb258f96cd","","266","
                <div class=""stimulus-container"">
                    <img src=""images/semantic_sequence/market_semantic/market_semantic_2.png"" class=""exp-image"">
                    <div class=""question-area"">
                        <p style=""font-size: 20px; font-weight: bold; margin: 0;"">Is there a person in this image?</p>
                    </div>
                </div>","1","main_experiment_trial","2","market_semantic","semantic_sequence","chronological","","","","","","",""
"","","","","","html-keyboard-response","126","191264","0.0-126.0","A692729E73D24CA1921D9B6064D17C62","019cfa6f-703d-7135-b79f-3b4a0df60174","019cfa3a-388e-72ab-ad58-bdeb258f96cd","","null","
                <div class=""stimulus-container"">
                    <img src=""images/semantic_sequence/market_semantic/market_semantic_3.png"" class=""exp-image"">
                    <div class=""question-area""></div> 
                </div>","null","","","","","","","","","","","",""
"","","","","","html-button-response","127","191777","0.0-127.0","A692729E73D24CA1921D9B6064D17C62","019cfa6f-703d-7135-b79f-3b4a0df60174","019cfa3a-388e-72ab-ad58-bdeb258f96cd","","511","
                <div class=""stimulus-container"">
                    <img src=""images/semantic_sequence/market_semantic/market_semantic_3.png"" class=""exp-image"">
                    <div class=""question-area"">
                        <p style=""font-size: 20px; font-weight: bold; margin: 0;"">Is there a person in this image?</p>
                    </div>
                </div>","1","main_experiment_trial","3","market_semantic","semantic_sequence","chronological","","","","","","",""
"","","","","","html-keyboard-response","128","192787","0.0-128.0","A692729E73D24CA1921D9B6064D17C62","019cfa6f-703d-7135-b79f-3b4a0df60174","019cfa3a-388e-72ab-ad58-bdeb258f96cd","","null","
                <div class=""stimulus-container"">
                    <img src=""images/semantic_sequence/market_semantic/market_semantic_4.png"" class=""exp-image"">
                    <div class=""question-area""></div> 
                </div>","null","","","","","","","","","","","",""
"","","","","","html-button-response","129","193298","0.0-129.0","A692729E73D24CA1921D9B6064D17C62","019cfa6f-703d-7135-b79f-3b4a0df60174","019cfa3a-388e-72ab-ad58-bdeb258f96cd","","509","
                <div class=""stimulus-container"">
                    <img src=""images/semantic_sequence/market_semantic/market_semantic_4.png"" class=""exp-image"">
                    <div class=""question-area"">
                        <p style=""font-size: 20px; font-weight: bold; margin: 0;"">Is there a person in this image?</p>
                    </div>
                </div>","0","main_experiment_trial","4","market_semantic","semantic_sequence","chronological","","","","","","",""
"","","","","","html-keyboard-response","130","194306","0.0-130.0","A692729E73D24CA1921D9B6064D17C62","019cfa6f-703d-7135-b79f-3b4a0df60174","019cfa3a-388e-72ab-ad58-bdeb258f96cd","","null","
                <div class=""stimulus-container"">
                    <img src=""images/semantic_sequence/market_semantic/market_semantic_5.png"" class=""exp-image"">
                    <div class=""question-area""></div> 
                </div>","null","","","","","","","","","","","",""
"","","","","","html-button-response","131","194860","0.0-131.0","A692729E73D24CA1921D9B6064D17C62","019cfa6f-703d-7135-b79f-3b4a0df60174","019cfa3a-388e-72ab-ad58-bdeb258f96cd","","553","
                <div class=""stimulus-container"">
                    <img src=""images/semantic_sequence/market_semantic/market_semantic_5.png"" class=""exp-image"">
                    <div class=""question-area"">
                        <p style=""font-size: 20px; font-weight: bold; margin: 0;"">Is there a person in this image?</p>
                    </div>
                </div>","1","main_experiment_trial","5","market_semantic","semantic_sequence","chronological","","","","","","",""
"","","","","","html-keyboard-response","132","195868","0.0-132.0","A692729E73D24CA1921D9B6064D17C62","019cfa6f-703d-7135-b79f-3b4a0df60174","019cfa3a-388e-72ab-ad58-bdeb258f96cd","","null","
                <div class=""stimulus-container"">
                    <img src=""images/semantic_sequence/market_semantic/market_semantic_6.png"" class=""exp-image"">
                    <div class=""question-area""></div> 
                </div>","null","","","","","","","","","","","",""
"","","","","","html-button-response","133","197122","0.0-133.0","A692729E73D24CA1921D9B6064D17C62","019cfa6f-703d-7135-b79f-3b4a0df60174","019cfa3a-388e-72ab-ad58-bdeb258f96cd","","1253","
                <div class=""stimulus-container"">
                    <img src=""images/semantic_sequence/market_semantic/market_semantic_6.png"" class=""exp-image"">
                    <div class=""question-area"">
                        <p style=""font-size: 20px; font-weight: bold; margin: 0;"">Is there a person in this image?</p>
                    </div>
                </div>","1","main_experiment_trial","6","market_semantic","semantic_sequence","chronological","","","","","","",""
"","","","","","html-keyboard-response","134","198134","0.0-134.0","A692729E73D24CA1921D9B6064D17C62","019cfa6f-703d-7135-b79f-3b4a0df60174","019cfa3a-388e-72ab-ad58-bdeb258f96cd","","null","
                <div class=""stimulus-container"">
                    <img src=""images/semantic_sequence/market_semantic/market_semantic_7.png"" class=""exp-image"">
                    <div class=""question-area""></div> 
                </div>","null","","","","","","","","","","","",""
"","","","","","html-button-response","135","199837","0.0-135.0","A692729E73D24CA1921D9B6064D17C62","019cfa6f-703d-7135-b79f-3b4a0df60174","019cfa3a-388e-72ab-ad58-bdeb258f96cd","","1702","
                <div class=""stimulus-container"">
                    <img src=""images/semantic_sequence/market_semantic/market_semantic_7.png"" class=""exp-image"">
                    <div class=""question-area"">
                        <p style=""font-size: 20px; font-weight: bold; margin: 0;"">Is there a person in this image?</p>
                    </div>
                </div>","0","main_experiment_trial","7","market_semantic","semantic_sequence","chronological","","","","","","",""
"","","","","","html-keyboard-response","136","200840","0.0-136.0","A692729E73D24CA1921D9B6064D17C62","019cfa6f-703d-7135-b79f-3b4a0df60174","019cfa3a-388e-72ab-ad58-bdeb258f96cd","","null","
                <div class=""stimulus-container"">
                    <img src=""images/semantic_sequence/market_semantic/market_semantic_8.png"" class=""exp-image"">
                    <div class=""question-area""></div> 
                </div>","null","","","","","","","","","","","",""
"","","","","","html-button-response","137","201371","0.0-137.0","A692729E73D24CA1921D9B6064D17C62","019cfa6f-703d-7135-b79f-3b4a0df60174","019cfa3a-388e-72ab-ad58-bdeb258f96cd","","529","
                <div class=""stimulus-container"">
                    <img src=""images/semantic_sequence/market_semantic/market_semantic_8.png"" class=""exp-image"">
                    <div class=""question-area"">
                        <p style=""font-size: 20px; font-weight: bold; margin: 0;"">Is there a person in this image?</p>
                    </div>
                </div>","1","main_experiment_trial","8","market_semantic","semantic_sequence","chronological","","","","","","",""
"","","","","","html-keyboard-response","138","202382","0.0-138.0","A692729E73D24CA1921D9B6064D17C62","019cfa6f-703d-7135-b79f-3b4a0df60174","019cfa3a-388e-72ab-ad58-bdeb258f96cd","","null","
                <div class=""stimulus-container"">
                    <img src=""images/semantic_sequence/market_semantic/market_semantic_9.png"" class=""exp-image"">
                    <div class=""question-area""></div> 
                </div>","null","","","","","","","","","","","",""
"","","","","","html-button-response","139","203033","0.0-139.0","A692729E73D24CA1921D9B6064D17C62","019cfa6f-703d-7135-b79f-3b4a0df60174","019cfa3a-388e-72ab-ad58-bdeb258f96cd","","650","
                <div class=""stimulus-container"">
                    <img src=""images/semantic_sequence/market_semantic/market_semantic_9.png"" class=""exp-image"">
                    <div class=""question-area"">
                        <p style=""font-size: 20px; font-weight: bold; margin: 0;"">Is there a person in this image?</p>
                    </div>
                </div>","1","main_experiment_trial","9","market_semantic","semantic_sequence","chronological","","","","","","",""
"","","","","","html-keyboard-response","140","204048","0.0-140.0","A692729E73D24CA1921D9B6064D17C62","019cfa6f-703d-7135-b79f-3b4a0df60174","019cfa3a-388e-72ab-ad58-bdeb258f96cd","","null","
                <div class=""stimulus-container"">
                    <img src=""images/semantic_sequence/market_semantic/market_semantic_ten.png"" class=""exp-image"">
                    <div class=""question-area""></div> 
                </div>","null","","","","","","","","","","","",""
"","","","","","html-button-response","141","204298","0.0-141.0","A692729E73D24CA1921D9B6064D17C62","019cfa6f-703d-7135-b79f-3b4a0df60174","019cfa3a-388e-72ab-ad58-bdeb258f96cd","","249","
                <div class=""stimulus-container"">
                    <img src=""images/semantic_sequence/market_semantic/market_semantic_ten.png"" class=""exp-image"">
                    <div class=""question-area"">
                        <p style=""font-size: 20px; font-weight: bold; margin: 0;"">Is there a person in this image?</p>
                    </div>
                </div>","1","main_experiment_trial","ten","market_semantic","semantic_sequence","chronological","","","","","","",""
"","","","","","html-keyboard-response","142","209314","0.0-142.0","A692729E73D24CA1921D9B6064D17C62","019cfa6f-703d-7135-b79f-3b4a0df60174","019cfa3a-388e-72ab-ad58-bdeb258f96cd","","null","<div style=""background-color: white; width: 100vw; height: 100vh;""></div>","null","","","","","","","","","","","",""
"","","","","","html-keyboard-response","143","210324","0.0-143.0","A692729E73D24CA1921D9B6064D17C62","019cfa6f-703d-7135-b79f-3b4a0df60174","019cfa3a-388e-72ab-ad58-bdeb258f96cd","","null","
                <div class=""stimulus-container"">
                    <img src=""images/semantic_sequence/self_care_activities_semantic/self_care_activities_semantic_1.png"" class=""exp-image"">
                    <div class=""question-area""></div> 
                </div>","null","","","","","","","","","","","",""
"","","","","","html-button-response","144","211615","0.0-144.0","A692729E73D24CA1921D9B6064D17C62","019cfa6f-703d-7135-b79f-3b4a0df60174","019cfa3a-388e-72ab-ad58-bdeb258f96cd","","1290","
                <div class=""stimulus-container"">
                    <img src=""images/semantic_sequence/self_care_activities_semantic/self_care_activities_semantic_1.png"" class=""exp-image"">
                    <div class=""question-area"">
                        <p style=""font-size: 20px; font-weight: bold; margin: 0;"">Is there a person in this image?</p>
                    </div>
                </div>","0","main_experiment_trial","1","self_care_activities_semantic","semantic_sequence","chronological","","","","","","",""
"","","","","","html-keyboard-response","145","212619","0.0-145.0","A692729E73D24CA1921D9B6064D17C62","019cfa6f-703d-7135-b79f-3b4a0df60174","019cfa3a-388e-72ab-ad58-bdeb258f96cd","","null","
                <div class=""stimulus-container"">
                    <img src=""images/semantic_sequence/self_care_activities_semantic/self_care_activities_semantic_2.png"" class=""exp-image"">
                    <div class=""question-area""></div> 
                </div>","null","","","","","","","","","","","",""
"","","","","","html-button-response","146","213468","0.0-146.0","A692729E73D24CA1921D9B6064D17C62","019cfa6f-703d-7135-b79f-3b4a0df60174","019cfa3a-388e-72ab-ad58-bdeb258f96cd","","847","
                <div class=""stimulus-container"">
                    <img src=""images/semantic_sequence/self_care_activities_semantic/self_care_activities_semantic_2.png"" class=""exp-image"">
                    <div class=""question-area"">
                        <p style=""font-size: 20px; font-weight: bold; margin: 0;"">Is there a person in this image?</p>
                    </div>
                </div>","0","main_experiment_trial","2","self_care_activities_semantic","semantic_sequence","chronological","","","","","","",""
"","","","","","html-keyboard-response","147","214473","0.0-147.0","A692729E73D24CA1921D9B6064D17C62","019cfa6f-703d-7135-b79f-3b4a0df60174","019cfa3a-388e-72ab-ad58-bdeb258f96cd","","null","
                <div class=""stimulus-container"">
                    <img src=""images/semantic_sequence/self_care_activities_semantic/self_care_activities_semantic_3.png"" class=""exp-image"">
                    <div class=""question-area""></div> 
                </div>","null","","","","","","","","","","","",""
"","","","","","html-button-response","148","214854","0.0-148.0","A692729E73D24CA1921D9B6064D17C62","019cfa6f-703d-7135-b79f-3b4a0df60174","019cfa3a-388e-72ab-ad58-bdeb258f96cd","","379","
                <div class=""stimulus-container"">
                    <img src=""images/semantic_sequence/self_care_activities_semantic/self_care_activities_semantic_3.png"" class=""exp-image"">
                    <div class=""question-area"">
                        <p style=""font-size: 20px; font-weight: bold; margin: 0;"">Is there a person in this image?</p>
                    </div>
                </div>","0","main_experiment_trial","3","self_care_activities_semantic","semantic_sequence","chronological","","","","","","",""
"","","","","","html-keyboard-response","149","215863","0.0-149.0","A692729E73D24CA1921D9B6064D17C62","019cfa6f-703d-7135-b79f-3b4a0df60174","019cfa3a-388e-72ab-ad58-bdeb258f96cd","","null","
                <div class=""stimulus-container"">
                    <img src=""images/semantic_sequence/self_care_activities_semantic/self_care_activities_semantic_4.png"" class=""exp-image"">
                    <div class=""question-area""></div> 
                </div>","null","","","","","","","","","","","",""
"","","","","","html-button-response","150","216396","0.0-150.0","A692729E73D24CA1921D9B6064D17C62","019cfa6f-703d-7135-b79f-3b4a0df60174","019cfa3a-388e-72ab-ad58-bdeb258f96cd","","530","
                <div class=""stimulus-container"">
                    <img src=""images/semantic_sequence/self_care_activities_semantic/self_care_activities_semantic_4.png"" class=""exp-image"">
                    <div class=""question-area"">
                        <p style=""font-size: 20px; font-weight: bold; margin: 0;"">Is there a person in this image?</p>
                    </div>
                </div>","0","main_experiment_trial","4","self_care_activities_semantic","semantic_sequence","chronological","","","","","","",""
"","","","","","html-keyboard-response","151","217398","0.0-151.0","A692729E73D24CA1921D9B6064D17C62","019cfa6f-703d-7135-b79f-3b4a0df60174","019cfa3a-388e-72ab-ad58-bdeb258f96cd","","null","
                <div class=""stimulus-container"">
                    <img src=""images/semantic_sequence/self_care_activities_semantic/self_care_activities_semantic_5.png"" class=""exp-image"">
                    <div class=""question-area""></div> 
                </div>","null","","","","","","","","","","","",""
"","","","","","html-button-response","152","217778","0.0-152.0","A692729E73D24CA1921D9B6064D17C62","019cfa6f-703d-7135-b79f-3b4a0df60174","019cfa3a-388e-72ab-ad58-bdeb258f96cd","","375","
                <div class=""stimulus-container"">
                    <img src=""images/semantic_sequence/self_care_activities_semantic/self_care_activities_semantic_5.png"" class=""exp-image"">
                    <div class=""question-area"">
                        <p style=""font-size: 20px; font-weight: bold; margin: 0;"">Is there a person in this image?</p>
                    </div>
                </div>","0","main_experiment_trial","5","self_care_activities_semantic","semantic_sequence","chronological","","","","","","",""
"","","","","","html-keyboard-response","153","218779","0.0-153.0","A692729E73D24CA1921D9B6064D17C62","019cfa6f-703d-7135-b79f-3b4a0df60174","019cfa3a-388e-72ab-ad58-bdeb258f96cd","","null","
                <div class=""stimulus-container"">
                    <img src=""images/semantic_sequence/self_care_activities_semantic/self_care_activities_semantic_6.png"" class=""exp-image"">
                    <div class=""question-area""></div> 
                </div>","null","","","","","","","","","","","",""
"","","","","","html-button-response","154","219465","0.0-154.0","A692729E73D24CA1921D9B6064D17C62","019cfa6f-703d-7135-b79f-3b4a0df60174","019cfa3a-388e-72ab-ad58-bdeb258f96cd","","684","
                <div class=""stimulus-container"">
                    <img src=""images/semantic_sequence/self_care_activities_semantic/self_care_activities_semantic_6.png"" class=""exp-image"">
                    <div class=""question-area"">
                        <p style=""font-size: 20px; font-weight: bold; margin: 0;"">Is there a person in this image?</p>
                    </div>
                </div>","1","main_experiment_trial","6","self_care_activities_semantic","semantic_sequence","chronological","","","","","","",""
"","","","","","html-keyboard-response","155","220467","0.0-155.0","A692729E73D24CA1921D9B6064D17C62","019cfa6f-703d-7135-b79f-3b4a0df60174","019cfa3a-388e-72ab-ad58-bdeb258f96cd","","null","
                <div class=""stimulus-container"">
                    <img src=""images/semantic_sequence/self_care_activities_semantic/self_care_activities_semantic_7.png"" class=""exp-image"">
                    <div class=""question-area""></div> 
                </div>","null","","","","","","","","","","","",""
"","","","","","html-button-response","156","221175","0.0-156.0","A692729E73D24CA1921D9B6064D17C62","019cfa6f-703d-7135-b79f-3b4a0df60174","019cfa3a-388e-72ab-ad58-bdeb258f96cd","","707","
                <div class=""stimulus-container"">
                    <img src=""images/semantic_sequence/self_care_activities_semantic/self_care_activities_semantic_7.png"" class=""exp-image"">
                    <div class=""question-area"">
                        <p style=""font-size: 20px; font-weight: bold; margin: 0;"">Is there a person in this image?</p>
                    </div>
                </div>","0","main_experiment_trial","7","self_care_activities_semantic","semantic_sequence","chronological","","","","","","",""
"","","","","","html-keyboard-response","157","222183","0.0-157.0","A692729E73D24CA1921D9B6064D17C62","019cfa6f-703d-7135-b79f-3b4a0df60174","019cfa3a-388e-72ab-ad58-bdeb258f96cd","","null","
                <div class=""stimulus-container"">
                    <img src=""images/semantic_sequence/self_care_activities_semantic/self_care_activities_semantic_8.png"" class=""exp-image"">
                    <div class=""question-area""></div> 
                </div>","null","","","","","","","","","","","",""
"","","","","","html-button-response","158","222610","0.0-158.0","A692729E73D24CA1921D9B6064D17C62","019cfa6f-703d-7135-b79f-3b4a0df60174","019cfa3a-388e-72ab-ad58-bdeb258f96cd","","426","
                <div class=""stimulus-container"">
                    <img src=""images/semantic_sequence/self_care_activities_semantic/self_care_activities_semantic_8.png"" class=""exp-image"">
                    <div class=""question-area"">
                        <p style=""font-size: 20px; font-weight: bold; margin: 0;"">Is there a person in this image?</p>
                    </div>
                </div>","0","main_experiment_trial","8","self_care_activities_semantic","semantic_sequence","chronological","","","","","","",""
"","","","","","html-keyboard-response","159","223620","0.0-159.0","A692729E73D24CA1921D9B6064D17C62","019cfa6f-703d-7135-b79f-3b4a0df60174","019cfa3a-388e-72ab-ad58-bdeb258f96cd","","null","
                <div class=""stimulus-container"">
                    <img src=""images/semantic_sequence/self_care_activities_semantic/self_care_activities_semantic_9.png"" class=""exp-image"">
                    <div class=""question-area""></div> 
                </div>","null","","","","","","","","","","","",""
"","","","","","html-button-response","160","224124","0.0-160.0","A692729E73D24CA1921D9B6064D17C62","019cfa6f-703d-7135-b79f-3b4a0df60174","019cfa3a-388e-72ab-ad58-bdeb258f96cd","","503","
                <div class=""stimulus-container"">
                    <img src=""images/semantic_sequence/self_care_activities_semantic/self_care_activities_semantic_9.png"" class=""exp-image"">
                    <div class=""question-area"">
                        <p style=""font-size: 20px; font-weight: bold; margin: 0;"">Is there a person in this image?</p>
                    </div>
                </div>","0","main_experiment_trial","9","self_care_activities_semantic","semantic_sequence","chronological","","","","","","",""
"","","","","","html-keyboard-response","161","225133","0.0-161.0","A692729E73D24CA1921D9B6064D17C62","019cfa6f-703d-7135-b79f-3b4a0df60174","019cfa3a-388e-72ab-ad58-bdeb258f96cd","","null","
                <div class=""stimulus-container"">
                    <img src=""images/semantic_sequence/self_care_activities_semantic/self_care_activities_semantic_ten.png"" class=""exp-image"">
                    <div class=""question-area""></div> 
                </div>","null","","","","","","","","","","","",""
"","","","","","html-button-response","162","225453","0.0-162.0","A692729E73D24CA1921D9B6064D17C62","019cfa6f-703d-7135-b79f-3b4a0df60174","019cfa3a-388e-72ab-ad58-bdeb258f96cd","","319","
                <div class=""stimulus-container"">
                    <img src=""images/semantic_sequence/self_care_activities_semantic/self_care_activities_semantic_ten.png"" class=""exp-image"">
                    <div class=""question-area"">
                        <p style=""font-size: 20px; font-weight: bold; margin: 0;"">Is there a person in this image?</p>
                    </div>
                </div>","0","main_experiment_trial","ten","self_care_activities_semantic","semantic_sequence","chronological","","","","","","",""
"","","","","","html-keyboard-response","163","230455","0.0-163.0","A692729E73D24CA1921D9B6064D17C62","019cfa6f-703d-7135-b79f-3b4a0df60174","019cfa3a-388e-72ab-ad58-bdeb258f96cd","","null","<div style=""background-color: white; width: 100vw; height: 100vh;""></div>","null","","","","","","","","","","","",""
"","","","","","html-keyboard-response","164","231466","0.0-164.0","A692729E73D24CA1921D9B6064D17C62","019cfa6f-703d-7135-b79f-3b4a0df60174","019cfa3a-388e-72ab-ad58-bdeb258f96cd","","null","
                <div class=""stimulus-container"">
                    <img src=""images/causal_sequence/the_performance_causal/the_performance_causal_1.png"" class=""exp-image"">
                    <div class=""question-area""></div> 
                </div>","null","","","","","","","","","","","",""
"","","","","","html-button-response","165","232530","0.0-165.0","A692729E73D24CA1921D9B6064D17C62","019cfa6f-703d-7135-b79f-3b4a0df60174","019cfa3a-388e-72ab-ad58-bdeb258f96cd","","1063","
                <div class=""stimulus-container"">
                    <img src=""images/causal_sequence/the_performance_causal/the_performance_causal_1.png"" class=""exp-image"">
                    <div class=""question-area"">
                        <p style=""font-size: 20px; font-weight: bold; margin: 0;"">Is there a person in this image?</p>
                    </div>
                </div>","0","main_experiment_trial","1","the_performance_causal","causal_sequence","chronological","","","","","","",""
"","","","","","html-keyboard-response","166","233536","0.0-166.0","A692729E73D24CA1921D9B6064D17C62","019cfa6f-703d-7135-b79f-3b4a0df60174","019cfa3a-388e-72ab-ad58-bdeb258f96cd","","null","
                <div class=""stimulus-container"">
                    <img src=""images/causal_sequence/the_performance_causal/the_performance_causal_2.png"" class=""exp-image"">
                    <div class=""question-area""></div> 
                </div>","null","","","","","","","","","","","",""
"","","","","","html-button-response","167","234220","0.0-167.0","A692729E73D24CA1921D9B6064D17C62","019cfa6f-703d-7135-b79f-3b4a0df60174","019cfa3a-388e-72ab-ad58-bdeb258f96cd","","683","
                <div class=""stimulus-container"">
                    <img src=""images/causal_sequence/the_performance_causal/the_performance_causal_2.png"" class=""exp-image"">
                    <div class=""question-area"">
                        <p style=""font-size: 20px; font-weight: bold; margin: 0;"">Is there a person in this image?</p>
                    </div>
                </div>","0","main_experiment_trial","2","the_performance_causal","causal_sequence","chronological","","","","","","",""
"","","","","","html-keyboard-response","168","235234","0.0-168.0","A692729E73D24CA1921D9B6064D17C62","019cfa6f-703d-7135-b79f-3b4a0df60174","019cfa3a-388e-72ab-ad58-bdeb258f96cd","","null","
                <div class=""stimulus-container"">
                    <img src=""images/causal_sequence/the_performance_causal/the_performance_causal_3.png"" class=""exp-image"">
                    <div class=""question-area""></div> 
                </div>","null","","","","","","","","","","","",""
"","","","","","html-button-response","169","235847","0.0-169.0","A692729E73D24CA1921D9B6064D17C62","019cfa6f-703d-7135-b79f-3b4a0df60174","019cfa3a-388e-72ab-ad58-bdeb258f96cd","","612","
                <div class=""stimulus-container"">
                    <img src=""images/causal_sequence/the_performance_causal/the_performance_causal_3.png"" class=""exp-image"">
                    <div class=""question-area"">
                        <p style=""font-size: 20px; font-weight: bold; margin: 0;"">Is there a person in this image?</p>
                    </div>
                </div>","0","main_experiment_trial","3","the_performance_causal","causal_sequence","chronological","","","","","","",""
"","","","","","html-keyboard-response","170","236853","0.0-170.0","A692729E73D24CA1921D9B6064D17C62","019cfa6f-703d-7135-b79f-3b4a0df60174","019cfa3a-388e-72ab-ad58-bdeb258f96cd","","null","
                <div class=""stimulus-container"">
                    <img src=""images/causal_sequence/the_performance_causal/the_performance_causal_4.png"" class=""exp-image"">
                    <div class=""question-area""></div> 
                </div>","null","","","","","","","","","","","",""
"","","","","","html-button-response","171","237727","0.0-171.0","A692729E73D24CA1921D9B6064D17C62","019cfa6f-703d-7135-b79f-3b4a0df60174","019cfa3a-388e-72ab-ad58-bdeb258f96cd","","873","
                <div class=""stimulus-container"">
                    <img src=""images/causal_sequence/the_performance_causal/the_performance_causal_4.png"" class=""exp-image"">
                    <div class=""question-area"">
                        <p style=""font-size: 20px; font-weight: bold; margin: 0;"">Is there a person in this image?</p>
                    </div>
                </div>","0","main_experiment_trial","4","the_performance_causal","causal_sequence","chronological","","","","","","",""
"","","","","","html-keyboard-response","172","238730","0.0-172.0","A692729E73D24CA1921D9B6064D17C62","019cfa6f-703d-7135-b79f-3b4a0df60174","019cfa3a-388e-72ab-ad58-bdeb258f96cd","","null","
                <div class=""stimulus-container"">
                    <img src=""images/causal_sequence/the_performance_causal/the_performance_causal_5.png"" class=""exp-image"">
                    <div class=""question-area""></div> 
                </div>","null","","","","","","","","","","","",""
"","","","","","html-button-response","173","239135","0.0-173.0","A692729E73D24CA1921D9B6064D17C62","019cfa6f-703d-7135-b79f-3b4a0df60174","019cfa3a-388e-72ab-ad58-bdeb258f96cd","","403","
                <div class=""stimulus-container"">
                    <img src=""images/causal_sequence/the_performance_causal/the_performance_causal_5.png"" class=""exp-image"">
                    <div class=""question-area"">
                        <p style=""font-size: 20px; font-weight: bold; margin: 0;"">Is there a person in this image?</p>
                    </div>
                </div>","0","main_experiment_trial","5","the_performance_causal","causal_sequence","chronological","","","","","","",""
"","","","","","html-keyboard-response","174","240145","0.0-174.0","A692729E73D24CA1921D9B6064D17C62","019cfa6f-703d-7135-b79f-3b4a0df60174","019cfa3a-388e-72ab-ad58-bdeb258f96cd","","null","
                <div class=""stimulus-container"">
                    <img src=""images/causal_sequence/the_performance_causal/the_performance_causal_6.png"" class=""exp-image"">
                    <div class=""question-area""></div> 
                </div>","null","","","","","","","","","","","",""
"","","","","","html-button-response","175","240726","0.0-175.0","A692729E73D24CA1921D9B6064D17C62","019cfa6f-703d-7135-b79f-3b4a0df60174","019cfa3a-388e-72ab-ad58-bdeb258f96cd","","580","
                <div class=""stimulus-container"">
                    <img src=""images/causal_sequence/the_performance_causal/the_performance_causal_6.png"" class=""exp-image"">
                    <div class=""question-area"">
                        <p style=""font-size: 20px; font-weight: bold; margin: 0;"">Is there a person in this image?</p>
                    </div>
                </div>","0","main_experiment_trial","6","the_performance_causal","causal_sequence","chronological","","","","","","",""
"","","","","","html-keyboard-response","176","241738","0.0-176.0","A692729E73D24CA1921D9B6064D17C62","019cfa6f-703d-7135-b79f-3b4a0df60174","019cfa3a-388e-72ab-ad58-bdeb258f96cd","","null","
