"success","timeout","failed_images","failed_audio","failed_video","trial_type","trial_index","time_elapsed","internal_node_id","view_history","rt","stimulus","response","task","folder","sequence_type","img_idx","comparison_type","img_index","block_story","block_info","left_img_path","right_img_path"
"true","false","[]","[]","[]","preload","0","3770","0.0-0.0","","","","","","","","","","","","","",""
"","","","","","instructions","1","7142","0.0-1.0","[{""page_index"":0,""viewing_time"":3371}]","3371","","","","","","","","","","","",""
"","","","","","instructions","2","11806","0.0-2.0","[{""page_index"":0,""viewing_time"":4663}]","4664","","","","","","","","","","","",""
"true","","","","","fullscreen","3","14638","0.0-3.0","","1828","","","","","","","","","","","",""
"","","","","","instructions","4","22861","0.0-4.0","[{""page_index"":0,""viewing_time"":8222}]","8222","","","","","","","","","","","",""
"","","","","","html-keyboard-response","5","24862","0.0-5.0","","null","<div class=""transition-square""></div>","null","","","","","","","","","",""
"","","","","","html-keyboard-response","6","29864","0.0-6.0","","null","<div class=""stimulus-container""><img src=""images_story_vs_info/info_1_1.png"" class=""exp-image""><div class=""question-area""></div></div>","null","","","","","","","","","",""
"","","","","","html-button-response","7","32836","0.0-7.0","","2970","<div class=""stimulus-container""><img src=""images_story_vs_info/info_1_1.png"" class=""exp-image""><div class=""question-area""><p style=""font-size: 20px; font-weight: bold; margin: 0;"">Is there a person in this image?</p></div></div>","1","observation","info_1","info","1","","","","","",""
"","","","","","html-keyboard-response","8","37838","0.0-8.0","","null","<div class=""stimulus-container""><img src=""images_story_vs_info/info_1_2.png"" class=""exp-image""><div class=""question-area""></div></div>","null","","","","","","","","","",""
"","","","","","html-button-response","9","40142","0.0-9.0","","2303","<div class=""stimulus-container""><img src=""images_story_vs_info/info_1_2.png"" class=""exp-image""><div class=""question-area""><p style=""font-size: 20px; font-weight: bold; margin: 0;"">Is there a person in this image?</p></div></div>","1","observation","info_1","info","2","","","","","",""
"","","","","","html-keyboard-response","10","45144","0.0-10.0","","null","<div class=""stimulus-container""><img src=""images_story_vs_info/info_1_3.png"" class=""exp-image""><div class=""question-area""></div></div>","null","","","","","","","","","",""
"","","","","","html-button-response","11","46636","0.0-11.0","","1491","<div class=""stimulus-container""><img src=""images_story_vs_info/info_1_3.png"" class=""exp-image""><div class=""question-area""><p style=""font-size: 20px; font-weight: bold; margin: 0;"">Is there a person in this image?</p></div></div>","1","observation","info_1","info","3","","","","","",""
"","","","","","html-keyboard-response","12","51638","0.0-12.0","","null","<div class=""stimulus-container""><img src=""images_story_vs_info/info_1_4.png"" class=""exp-image""><div class=""question-area""></div></div>","null","","","","","","","","","",""
"","","","","","html-button-response","13","53341","0.0-13.0","","1702","<div class=""stimulus-container""><img src=""images_story_vs_info/info_1_4.png"" class=""exp-image""><div class=""question-area""><p style=""font-size: 20px; font-weight: bold; margin: 0;"">Is there a person in this image?</p></div></div>","1","observation","info_1","info","4","","","","","",""
"","","","","","html-keyboard-response","14","58343","0.0-14.0","","null","<div class=""stimulus-container""><img src=""images_story_vs_info/info_1_5.png"" class=""exp-image""><div class=""question-area""></div></div>","null","","","","","","","","","",""
"","","","","","html-button-response","15","59401","0.0-15.0","","1058","<div class=""stimulus-container""><img src=""images_story_vs_info/info_1_5.png"" class=""exp-image""><div class=""question-area""><p style=""font-size: 20px; font-weight: bold; margin: 0;"">Is there a person in this image?</p></div></div>","1","observation","info_1","info","5","","","","","",""
"","","","","","html-keyboard-response","16","64403","0.0-16.0","","null","<div class=""stimulus-container""><img src=""images_story_vs_info/info_1_6_b.png"" class=""exp-image""><div class=""question-area""></div></div>","null","","","","","","","","","",""
"","","","","","html-button-response","17","66241","0.0-17.0","","1837","<div class=""stimulus-container""><img src=""images_story_vs_info/info_1_6_b.png"" class=""exp-image""><div class=""question-area""><p style=""font-size: 20px; font-weight: bold; margin: 0;"">Is there a person in this image?</p></div></div>","1","observation","info_1","info","6","","","","","",""
"","","","","","html-keyboard-response","18","68243","0.0-18.0","","null","<div class=""transition-square""></div>","null","","","","","","","","","",""
"","","","","","html-keyboard-response","19","73246","0.0-19.0","","null","<div class=""stimulus-container""><img src=""images_story_vs_info/info_3_1.png"" class=""exp-image""><div class=""question-area""></div></div>","null","","","","","","","","","",""
"","","","","","html-button-response","20","76248","0.0-20.0","","null","<div class=""stimulus-container""><img src=""images_story_vs_info/info_3_1.png"" class=""exp-image""><div class=""question-area""><p style=""font-size: 20px; font-weight: bold; margin: 0;"">Is there a person in this image?</p></div></div>","null","observation","info_3","info","1","","","","","",""
"","","","","","html-keyboard-response","21","81250","0.0-21.0","","null","<div class=""stimulus-container""><img src=""images_story_vs_info/info_3_2.png"" class=""exp-image""><div class=""question-area""></div></div>","null","","","","","","","","","",""
"","","","","","html-button-response","22","82246","0.0-22.0","","995","<div class=""stimulus-container""><img src=""images_story_vs_info/info_3_2.png"" class=""exp-image""><div class=""question-area""><p style=""font-size: 20px; font-weight: bold; margin: 0;"">Is there a person in this image?</p></div></div>","1","observation","info_3","info","2","","","","","",""
"","","","","","html-keyboard-response","23","87248","0.0-23.0","","null","<div class=""stimulus-container""><img src=""images_story_vs_info/info_3_3.png"" class=""exp-image""><div class=""question-area""></div></div>","null","","","","","","","","","",""
"","","","","","html-button-response","24","88096","0.0-24.0","","848","<div class=""stimulus-container""><img src=""images_story_vs_info/info_3_3.png"" class=""exp-image""><div class=""question-area""><p style=""font-size: 20px; font-weight: bold; margin: 0;"">Is there a person in this image?</p></div></div>","1","observation","info_3","info","3","","","","","",""
"","","","","","html-keyboard-response","25","93098","0.0-25.0","","null","<div class=""stimulus-container""><img src=""images_story_vs_info/info_3_4.png"" class=""exp-image""><div class=""question-area""></div></div>","null","","","","","","","","","",""
"","","","","","html-button-response","26","94111","0.0-26.0","","1012","<div class=""stimulus-container""><img src=""images_story_vs_info/info_3_4.png"" class=""exp-image""><div class=""question-area""><p style=""font-size: 20px; font-weight: bold; margin: 0;"">Is there a person in this image?</p></div></div>","0","observation","info_3","info","4","","","","","",""
"","","","","","html-keyboard-response","27","99114","0.0-27.0","","null","<div class=""stimulus-container""><img src=""images_story_vs_info/info_3_5.png"" class=""exp-image""><div class=""question-area""></div></div>","null","","","","","","","","","",""
"","","","","","html-button-response","28","100411","0.0-28.0","","1297","<div class=""stimulus-container""><img src=""images_story_vs_info/info_3_5.png"" class=""exp-image""><div class=""question-area""><p style=""font-size: 20px; font-weight: bold; margin: 0;"">Is there a person in this image?</p></div></div>","1","observation","info_3","info","5","","","","","",""
"","","","","","html-keyboard-response","29","105413","0.0-29.0","","null","<div class=""stimulus-container""><img src=""images_story_vs_info/info_3_6_a.png"" class=""exp-image""><div class=""question-area""></div></div>","null","","","","","","","","","",""
"","","","","","html-button-response","30","106906","0.0-30.0","","1492","<div class=""stimulus-container""><img src=""images_story_vs_info/info_3_6_a.png"" class=""exp-image""><div class=""question-area""><p style=""font-size: 20px; font-weight: bold; margin: 0;"">Is there a person in this image?</p></div></div>","0","observation","info_3","info","6","","","","","",""
"","","","","","html-keyboard-response","31","108909","0.0-31.0","","null","<div class=""transition-square""></div>","null","","","","","","","","","",""
"","","","","","html-keyboard-response","32","113910","0.0-32.0","","null","<div class=""stimulus-container""><img src=""images_story_vs_info/story_4_1.png"" class=""exp-image""><div class=""question-area""></div></div>","null","","","","","","","","","",""
"","","","","","html-button-response","33","115186","0.0-33.0","","1276","<div class=""stimulus-container""><img src=""images_story_vs_info/story_4_1.png"" class=""exp-image""><div class=""question-area""><p style=""font-size: 20px; font-weight: bold; margin: 0;"">Is there a person in this image?</p></div></div>","1","observation","story_4","story","1","","","","","",""
"","","","","","html-keyboard-response","34","120188","0.0-34.0","","null","<div class=""stimulus-container""><img src=""images_story_vs_info/story_4_2.png"" class=""exp-image""><div class=""question-area""></div></div>","null","","","","","","","","","",""
"","","","","","html-button-response","35","122026","0.0-35.0","","1837","<div class=""stimulus-container""><img src=""images_story_vs_info/story_4_2.png"" class=""exp-image""><div class=""question-area""><p style=""font-size: 20px; font-weight: bold; margin: 0;"">Is there a person in this image?</p></div></div>","1","observation","story_4","story","2","","","","","",""
"","","","","","html-keyboard-response","36","127028","0.0-36.0","","null","<div class=""stimulus-container""><img src=""images_story_vs_info/story_4_3.png"" class=""exp-image""><div class=""question-area""></div></div>","null","","","","","","","","","",""
"","","","","","html-button-response","37","128236","0.0-37.0","","1207","<div class=""stimulus-container""><img src=""images_story_vs_info/story_4_3.png"" class=""exp-image""><div class=""question-area""><p style=""font-size: 20px; font-weight: bold; margin: 0;"">Is there a person in this image?</p></div></div>","1","observation","story_4","story","3","","","","","",""
"","","","","","html-keyboard-response","38","133239","0.0-38.0","","null","<div class=""stimulus-container""><img src=""images_story_vs_info/story_4_4.png"" class=""exp-image""><div class=""question-area""></div></div>","null","","","","","","","","","",""
"","","","","","html-button-response","39","134206","0.0-39.0","","967","<div class=""stimulus-container""><img src=""images_story_vs_info/story_4_4.png"" class=""exp-image""><div class=""question-area""><p style=""font-size: 20px; font-weight: bold; margin: 0;"">Is there a person in this image?</p></div></div>","1","observation","story_4","story","4","","","","","",""
"","","","","","html-keyboard-response","40","139208","0.0-40.0","","null","<div class=""stimulus-container""><img src=""images_story_vs_info/story_4_5.png"" class=""exp-image""><div class=""question-area""></div></div>","null","","","","","","","","","",""
"","","","","","html-button-response","41","140776","0.0-41.0","","1567","<div class=""stimulus-container""><img src=""images_story_vs_info/story_4_5.png"" class=""exp-image""><div class=""question-area""><p style=""font-size: 20px; font-weight: bold; margin: 0;"">Is there a person in this image?</p></div></div>","1","observation","story_4","story","5","","","","","",""
"","","","","","html-keyboard-response","42","145778","0.0-42.0","","null","<div class=""stimulus-container""><img src=""images_story_vs_info/story_4_6_a.png"" class=""exp-image""><div class=""question-area""></div></div>","null","","","","","","","","","",""
"","","","","","html-button-response","43","146836","0.0-43.0","","1057","<div class=""stimulus-container""><img src=""images_story_vs_info/story_4_6_a.png"" class=""exp-image""><div class=""question-area""><p style=""font-size: 20px; font-weight: bold; margin: 0;"">Is there a person in this image?</p></div></div>","0","observation","story_4","story","6","","","","","",""
"","","","","","html-keyboard-response","44","148839","0.0-44.0","","null","<div class=""transition-square""></div>","null","","","","","","","","","",""
"","","","","","html-keyboard-response","45","153841","0.0-45.0","","null","<div class=""stimulus-container""><img src=""images_story_vs_info/story_2_1.png"" class=""exp-image""><div class=""question-area""></div></div>","null","","","","","","","","","",""
"","","","","","html-button-response","46","156843","0.0-46.0","","null","<div class=""stimulus-container""><img src=""images_story_vs_info/story_2_1.png"" class=""exp-image""><div class=""question-area""><p style=""font-size: 20px; font-weight: bold; margin: 0;"">Is there a person in this image?</p></div></div>","null","observation","story_2","story","1","","","","","",""
"","","","","","html-keyboard-response","47","161845","0.0-47.0","","null","<div class=""stimulus-container""><img src=""images_story_vs_info/story_2_2.png"" class=""exp-image""><div class=""question-area""></div></div>","null","","","","","","","","","",""
"","","","","","html-button-response","48","162902","0.0-48.0","","1056","<div class=""stimulus-container""><img src=""images_story_vs_info/story_2_2.png"" class=""exp-image""><div class=""question-area""><p style=""font-size: 20px; font-weight: bold; margin: 0;"">Is there a person in this image?</p></div></div>","1","observation","story_2","story","2","","","","","",""
"","","","","","html-keyboard-response","49","167904","0.0-49.0","","null","<div class=""stimulus-container""><img src=""images_story_vs_info/story_2_3.png"" class=""exp-image""><div class=""question-area""></div></div>","null","","","","","","","","","",""
"","","","","","html-button-response","50","168376","0.0-50.0","","471","<div class=""stimulus-container""><img src=""images_story_vs_info/story_2_3.png"" class=""exp-image""><div class=""question-area""><p style=""font-size: 20px; font-weight: bold; margin: 0;"">Is there a person in this image?</p></div></div>","1","observation","story_2","story","3","","","","","",""
"","","","","","html-keyboard-response","51","173378","0.0-51.0","","null","<div class=""stimulus-container""><img src=""images_story_vs_info/story_2_4.png"" class=""exp-image""><div class=""question-area""></div></div>","null","","","","","","","","","",""
"","","","","","html-button-response","52","174466","0.0-52.0","","1087","<div class=""stimulus-container""><img src=""images_story_vs_info/story_2_4.png"" class=""exp-image""><div class=""question-area""><p style=""font-size: 20px; font-weight: bold; margin: 0;"">Is there a person in this image?</p></div></div>","1","observation","story_2","story","4","","","","","",""
"","","","","","html-keyboard-response","53","179468","0.0-53.0","","null","<div class=""stimulus-container""><img src=""images_story_vs_info/story_2_5.png"" class=""exp-image""><div class=""question-area""></div></div>","null","","","","","","","","","",""
"","","","","","html-button-response","54","180405","0.0-54.0","","936","<div class=""stimulus-container""><img src=""images_story_vs_info/story_2_5.png"" class=""exp-image""><div class=""question-area""><p style=""font-size: 20px; font-weight: bold; margin: 0;"">Is there a person in this image?</p></div></div>","1","observation","story_2","story","5","","","","","",""
"","","","","","html-keyboard-response","55","185406","0.0-55.0","","null","<div class=""stimulus-container""><img src=""images_story_vs_info/story_2_6_b.png"" class=""exp-image""><div class=""question-area""></div></div>","null","","","","","","","","","",""
"","","","","","html-button-response","56","186076","0.0-56.0","","669","<div class=""stimulus-container""><img src=""images_story_vs_info/story_2_6_b.png"" class=""exp-image""><div class=""question-area""><p style=""font-size: 20px; font-weight: bold; margin: 0;"">Is there a person in this image?</p></div></div>","1","observation","story_2","story","6","","","","","",""
"","","","","","instructions","57","196561","0.0-57.0","[{""page_index"":0,""viewing_time"":10484}]","10484","","","","","","","","","","","",""
"","","","","","html-button-response","58","201422","0.0-58.0","","4859","
                <div style=""font-family: Arial; margin-bottom: 20px;""><h3>Which image is worth <b>more money</b>?</h3></div>
                <div class=""stimulus-container"" style=""display: flex; flex-direction: row; width: 800px; justify-content: center; gap: 30px;"">
                    <img src=""images_story_vs_info/info_1_6_b.png"" class=""small-image"">
                    <img src=""images_story_vs_info/story_2_6_b.png"" class=""small-image"">
                </div>","1","choice_comparison","","","","Neutral_Story_vs_Info","6","story_2","info_1","images_story_vs_info/info_1_6_b.png","images_story_vs_info/story_2_6_b.png"
"","","","","","html-button-response","59","203252","0.0-59.0","","1829","
                <div style=""font-family: Arial; margin-bottom: 20px;""><h3>Which image is worth <b>more money</b>?</h3></div>
                <div class=""stimulus-container"" style=""display: flex; flex-direction: row; width: 800px; justify-content: center; gap: 30px;"">
                    <img src=""images_story_vs_info/info_3_5.png"" class=""small-image"">
                    <img src=""images_story_vs_info/story_4_5.png"" class=""small-image"">
                </div>","1","choice_comparison","","","","Valuable_Story_vs_Info","5","story_4","info_3","images_story_vs_info/info_3_5.png","images_story_vs_info/story_4_5.png"
"","","","","","html-button-response","60","207197","0.0-60.0","","3945","
                <div style=""font-family: Arial; margin-bottom: 20px;""><h3>Which image is worth <b>more money</b>?</h3></div>
                <div class=""stimulus-container"" style=""display: flex; flex-direction: row; width: 800px; justify-content: center; gap: 30px;"">
                    <img src=""images_story_vs_info/info_3_4.png"" class=""small-image"">
                    <img src=""images_story_vs_info/story_4_4.png"" class=""small-image"">
                </div>","1","choice_comparison","","","","Valuable_Story_vs_Info","4","story_4","info_3","images_story_vs_info/info_3_4.png","images_story_vs_info/story_4_4.png"
"","","","","","html-button-response","61","209176","0.0-61.0","","1978","
                <div style=""font-family: Arial; margin-bottom: 20px;""><h3>Which image is worth <b>more money</b>?</h3></div>
                <div class=""stimulus-container"" style=""display: flex; flex-direction: row; width: 800px; justify-content: center; gap: 30px;"">
                    <img src=""images_story_vs_info/info_3_3.png"" class=""small-image"">
                    <img src=""images_story_vs_info/story_4_3.png"" class=""small-image"">
                </div>","0","choice_comparison","","","","Valuable_Story_vs_Info","3","story_4","info_3","images_story_vs_info/info_3_3.png","images_story_vs_info/story_4_3.png"
"","","","","","html-button-response","62","211786","0.0-62.0","","2609","
                <div style=""font-family: Arial; margin-bottom: 20px;""><h3>Which image is worth <b>more money</b>?</h3></div>
                <div class=""stimulus-container"" style=""display: flex; flex-direction: row; width: 800px; justify-content: center; gap: 30px;"">
                    <img src=""images_story_vs_info/info_1_3.png"" class=""small-image"">
                    <img src=""images_story_vs_info/story_2_3.png"" class=""small-image"">
                </div>","0","choice_comparison","","","","Neutral_Story_vs_Info","3","story_2","info_1","images_story_vs_info/info_1_3.png","images_story_vs_info/story_2_3.png"
"","","","","","html-button-response","63","215132","0.0-63.0","","3344","
                <div style=""font-family: Arial; margin-bottom: 20px;""><h3>Which image is worth <b>more money</b>?</h3></div>
                <div class=""stimulus-container"" style=""display: flex; flex-direction: row; width: 800px; justify-content: center; gap: 30px;"">
                    <img src=""images_story_vs_info/story_2_1.png"" class=""small-image"">
                    <img src=""images_story_vs_info/info_1_1.png"" class=""small-image"">
                </div>","1","choice_comparison","","","","Neutral_Story_vs_Info","1","story_2","info_1","images_story_vs_info/story_2_1.png","images_story_vs_info/info_1_1.png"
"","","","","","html-button-response","64","216647","0.0-64.0","","1514","
                <div style=""font-family: Arial; margin-bottom: 20px;""><h3>Which image is worth <b>more money</b>?</h3></div>
                <div class=""stimulus-container"" style=""display: flex; flex-direction: row; width: 800px; justify-content: center; gap: 30px;"">
                    <img src=""images_story_vs_info/story_2_5.png"" class=""small-image"">
                    <img src=""images_story_vs_info/info_1_5.png"" class=""small-image"">
                </div>","1","choice_comparison","","","","Neutral_Story_vs_Info","5","story_2","info_1","images_story_vs_info/story_2_5.png","images_story_vs_info/info_1_5.png"
"","","","","","html-button-response","65","220561","0.0-65.0","","3914","
                <div style=""font-family: Arial; margin-bottom: 20px;""><h3>Which image is worth <b>more money</b>?</h3></div>
                <div class=""stimulus-container"" style=""display: flex; flex-direction: row; width: 800px; justify-content: center; gap: 30px;"">
                    <img src=""images_story_vs_info/info_1_4.png"" class=""small-image"">
                    <img src=""images_story_vs_info/story_2_4.png"" class=""small-image"">
                </div>","0","choice_comparison","","","","Neutral_Story_vs_Info","4","story_2","info_1","images_story_vs_info/info_1_4.png","images_story_vs_info/story_2_4.png"
"","","","","","html-button-response","66","222467","0.0-66.0","","1904","
                <div style=""font-family: Arial; margin-bottom: 20px;""><h3>Which image is worth <b>more money</b>?</h3></div>
                <div class=""stimulus-container"" style=""display: flex; flex-direction: row; width: 800px; justify-content: center; gap: 30px;"">
                    <img src=""images_story_vs_info/info_1_2.png"" class=""small-image"">
                    <img src=""images_story_vs_info/story_2_2.png"" class=""small-image"">
                </div>","0","choice_comparison","","","","Neutral_Story_vs_Info","2","story_2","info_1","images_story_vs_info/info_1_2.png","images_story_vs_info/story_2_2.png"
"","","","","","html-button-response","67","225902","0.0-67.0","","3434","
                <div style=""font-family: Arial; margin-bottom: 20px;""><h3>Which image is worth <b>more money</b>?</h3></div>
                <div class=""stimulus-container"" style=""display: flex; flex-direction: row; width: 800px; justify-content: center; gap: 30px;"">
                    <img src=""images_story_vs_info/info_3_1.png"" class=""small-image"">
                    <img src=""images_story_vs_info/story_4_1.png"" class=""small-image"">
                </div>","0","choice_comparison","","","","Valuable_Story_vs_Info","1","story_4","info_3","images_story_vs_info/info_3_1.png","images_story_vs_info/story_4_1.png"
"","","","","","html-button-response","68","232276","0.0-68.0","","6374","
                <div style=""font-family: Arial; margin-bottom: 20px;""><h3>Which image is worth <b>more money</b>?</h3></div>
                <div class=""stimulus-container"" style=""display: flex; flex-direction: row; width: 800px; justify-content: center; gap: 30px;"">
                    <img src=""images_story_vs_info/story_4_6_a.png"" class=""small-image"">
                    <img src=""images_story_vs_info/info_3_6_a.png"" class=""small-image"">
                </div>","0","choice_comparison","","","","Valuable_Story_vs_Info","6","story_4","info_3","images_story_vs_info/story_4_6_a.png","images_story_vs_info/info_3_6_a.png"
"","","","","","html-button-response","69","234332","0.0-69.0","","2054","
                <div style=""font-family: Arial; margin-bottom: 20px;""><h3>Which image is worth <b>more money</b>?</h3></div>
                <div class=""stimulus-container"" style=""display: flex; flex-direction: row; width: 800px; justify-content: center; gap: 30px;"">
                    <img src=""images_story_vs_info/story_4_2.png"" class=""small-image"">
                    <img src=""images_story_vs_info/info_3_2.png"" class=""small-image"">
                </div>","1","choice_comparison","","","","Valuable_Story_vs_Info","2","story_4","info_3","images_story_vs_info/story_4_2.png","images_story_vs_info/info_3_2.png"
"","","","","","survey-text","70","266703","0.0-70.0","","32365","","{""choice_strategy"":""My strategy was to choose the object with the highest perceived value."",""gender"":""woman"",""age"":""31""}","","","","","","","","","",""
"","","","","","instructions","71","271382","0.0-71.0","[{""page_index"":0,""viewing_time"":4678}]","4678","","","","","","","","","","","",""
