"success","timeout","failed_images","failed_audio","failed_video","trial_type","trial_index","time_elapsed","internal_node_id","rt","view_history","stimulus","response","task","folder","image_index","valuable_image_index","reward_type","distance_from_x","v_index","n_index","sequence_type","valuable_folder","neutral_folder","chosen_valuable"
"true","false","[]","[]","[]","preload","0","3677","0.0-0.0","","","","","","","","","","","","","","","",""
"true","","","","","fullscreen","1","9326","0.0-1.0","4634","","","","","","","","","","","","","","",""
"","","","","","instructions","2","22926","0.0-2.0","13599","[{""page_index"":0,""viewing_time"":13599}]","","","","","","","","","","","","","",""
"","","","","","html-keyboard-response","3","25939","0.0-3.0","null","","<div style=""background-color: white; width: 100vw; height: 100vh;""></div>","null","","","","","","","","","","","",""
"","","","","","html-keyboard-response","4","29943","0.0-4.0","null","","<div class=""stimulus-container""><img src=""images/schematic_sequence/dinner_party_scheme/dinner_party_scheme_1.png"" class=""exp-image""></div>","null","","","","","","","","","","","",""
"","","","","","html-button-response","5","31577","0.0-5.0","1631","","<div class=""stimulus-container""><img src=""images/schematic_sequence/dinner_party_scheme/dinner_party_scheme_1.png"" class=""exp-image""><div class=""question-area""><b>Is there a person?</b></div></div>","0","person_check","dinner_party_scheme","1","","","","","","","","",""
"","","","","","html-keyboard-response","6","35586","0.0-6.0","null","","<div class=""stimulus-container""><img src=""images/schematic_sequence/dinner_party_scheme/dinner_party_scheme_2.png"" class=""exp-image""></div>","null","","","","","","","","","","","",""
"","","","","","html-button-response","7","36895","0.0-7.0","1306","","<div class=""stimulus-container""><img src=""images/schematic_sequence/dinner_party_scheme/dinner_party_scheme_2.png"" class=""exp-image""><div class=""question-area""><b>Is there a person?</b></div></div>","0","person_check","dinner_party_scheme","2","","","","","","","","",""
"","","","","","html-keyboard-response","8","40911","0.0-8.0","null","","<div class=""stimulus-container""><img src=""images/schematic_sequence/dinner_party_scheme/dinner_party_scheme_3.png"" class=""exp-image""></div>","null","","","","","","","","","","","",""
"","","","","","html-button-response","9","42185","0.0-9.0","1272","","<div class=""stimulus-container""><img src=""images/schematic_sequence/dinner_party_scheme/dinner_party_scheme_3.png"" class=""exp-image""><div class=""question-area""><b>Is there a person?</b></div></div>","0","person_check","dinner_party_scheme","3","","","","","","","","",""
"","","","","","html-keyboard-response","10","46198","0.0-10.0","null","","<div class=""stimulus-container""><img src=""images/schematic_sequence/dinner_party_scheme/dinner_party_scheme_4.png"" class=""exp-image""></div>","null","","","","","","","","","","","",""
"","","","","","html-button-response","11","46408","0.0-11.0","208","","<div class=""stimulus-container""><img src=""images/schematic_sequence/dinner_party_scheme/dinner_party_scheme_4.png"" class=""exp-image""><div class=""question-area""><b>Is there a person?</b></div></div>","0","person_check","dinner_party_scheme","4","","","","","","","","",""
"","","","","","html-keyboard-response","12","50419","0.0-12.0","null","","<div class=""stimulus-container""><img src=""images/schematic_sequence/dinner_party_scheme/dinner_party_scheme_5.png"" class=""exp-image""></div>","null","","","","","","","","","","","",""
"","","","","","html-button-response","13","51486","0.0-13.0","1066","","<div class=""stimulus-container""><img src=""images/schematic_sequence/dinner_party_scheme/dinner_party_scheme_5.png"" class=""exp-image""><div class=""question-area""><b>Is there a person?</b></div></div>","0","person_check","dinner_party_scheme","5","","","","","","","","",""
"","","","","","html-keyboard-response","14","55493","0.0-14.0","null","","<div class=""stimulus-container""><img src=""images/schematic_sequence/dinner_party_scheme/dinner_party_scheme_6.png"" class=""exp-image""></div>","null","","","","","","","","","","","",""
"","","","","","html-button-response","15","56406","0.0-15.0","912","","<div class=""stimulus-container""><img src=""images/schematic_sequence/dinner_party_scheme/dinner_party_scheme_6.png"" class=""exp-image""><div class=""question-area""><b>Is there a person?</b></div></div>","0","person_check","dinner_party_scheme","6","","","","","","","","",""
"","","","","","html-keyboard-response","16","60408","0.0-16.0","null","","<div class=""stimulus-container""><img src=""images/schematic_sequence/dinner_party_scheme/dinner_party_scheme_7.png"" class=""exp-image""></div>","null","","","","","","","","","","","",""
"","","","","","html-button-response","17","60992","0.0-17.0","582","","<div class=""stimulus-container""><img src=""images/schematic_sequence/dinner_party_scheme/dinner_party_scheme_7.png"" class=""exp-image""><div class=""question-area""><b>Is there a person?</b></div></div>","0","person_check","dinner_party_scheme","7","","","","","","","","",""
"","","","","","html-keyboard-response","18","64994","0.0-18.0","null","","<div class=""stimulus-container""><img src=""images/schematic_sequence/dinner_party_scheme/dinner_party_scheme_8.png"" class=""exp-image""></div>","null","","","","","","","","","","","",""
"","","","","","html-button-response","19","65560","0.0-19.0","564","","<div class=""stimulus-container""><img src=""images/schematic_sequence/dinner_party_scheme/dinner_party_scheme_8.png"" class=""exp-image""><div class=""question-area""><b>Is there a person?</b></div></div>","0","person_check","dinner_party_scheme","8","","","","","","","","",""
"","","","","","html-keyboard-response","20","69562","0.0-20.0","null","","<div class=""stimulus-container""><img src=""images/schematic_sequence/dinner_party_scheme/dinner_party_scheme_9.png"" class=""exp-image""></div>","null","","","","","","","","","","","",""
"","","","","","html-button-response","21","70054","0.0-21.0","489","","<div class=""stimulus-container""><img src=""images/schematic_sequence/dinner_party_scheme/dinner_party_scheme_9.png"" class=""exp-image""><div class=""question-area""><b>Is there a person?</b></div></div>","0","person_check","dinner_party_scheme","9","","","","","","","","",""
"","","","","","html-keyboard-response","22","74069","0.0-22.0","null","","<div class=""stimulus-container""><img src=""images/schematic_sequence/dinner_party_scheme/dinner_party_scheme_ten.png"" class=""exp-image""></div>","null","","","","","","","","","","","",""
"","","","","","html-button-response","23","74863","0.0-23.0","793","","<div class=""stimulus-container""><img src=""images/schematic_sequence/dinner_party_scheme/dinner_party_scheme_ten.png"" class=""exp-image""><div class=""question-area""><b>Is there a person?</b></div></div>","0","person_check","dinner_party_scheme","10","","","","","","","","",""
"","","","","","html-keyboard-response","24","77875","0.0-24.0","null","","<div style=""background-color: white; width: 100vw; height: 100vh;""></div>","null","","","","","","","","","","","",""
"","","","","","html-keyboard-response","25","81883","0.0-25.0","null","","<div class=""stimulus-container""><img src=""images/schematic_sequence/restaurant_scheme/restaurant_scheme_1.png"" class=""exp-image""></div>","null","","","","","","","","","","","",""
"","","","","","html-button-response","26","82461","0.0-26.0","576","","<div class=""stimulus-container""><img src=""images/schematic_sequence/restaurant_scheme/restaurant_scheme_1.png"" class=""exp-image""><div class=""question-area""><b>Is there a person?</b></div></div>","0","person_check","restaurant_scheme","1","","","","","","","","",""
"","","","","","html-keyboard-response","27","86470","0.0-27.0","null","","<div class=""stimulus-container""><img src=""images/schematic_sequence/restaurant_scheme/restaurant_scheme_2.png"" class=""exp-image""></div>","null","","","","","","","","","","","",""
"","","","","","html-button-response","28","87432","0.0-28.0","960","","<div class=""stimulus-container""><img src=""images/schematic_sequence/restaurant_scheme/restaurant_scheme_2.png"" class=""exp-image""><div class=""question-area""><b>Is there a person?</b></div></div>","1","person_check","restaurant_scheme","2","","","","","","","","",""
"","","","","","html-keyboard-response","29","91440","0.0-29.0","null","","<div class=""stimulus-container""><img src=""images/schematic_sequence/restaurant_scheme/restaurant_scheme_3.png"" class=""exp-image""></div>","null","","","","","","","","","","","",""
"","","","","","html-button-response","30","92552","0.0-30.0","1111","","<div class=""stimulus-container""><img src=""images/schematic_sequence/restaurant_scheme/restaurant_scheme_3.png"" class=""exp-image""><div class=""question-area""><b>Is there a person?</b></div></div>","1","person_check","restaurant_scheme","3","","","","","","","","",""
"","","","","","html-keyboard-response","31","96566","0.0-31.0","null","","<div class=""stimulus-container""><img src=""images/schematic_sequence/restaurant_scheme/restaurant_scheme_4.png"" class=""exp-image""></div>","null","","","","","","","","","","","",""
"","","","","","html-button-response","32","97350","0.0-32.0","782","","<div class=""stimulus-container""><img src=""images/schematic_sequence/restaurant_scheme/restaurant_scheme_4.png"" class=""exp-image""><div class=""question-area""><b>Is there a person?</b></div></div>","0","person_check","restaurant_scheme","4","","","","","","","","",""
"","","","","","html-keyboard-response","33","101406","0.0-33.0","null","","<div class=""stimulus-container""><img src=""images/schematic_sequence/restaurant_scheme/restaurant_scheme_5.png"" class=""exp-image""></div>","null","","","","","","","","","","","",""
"","","","","","html-button-response","34","102329","0.0-34.0","922","","<div class=""stimulus-container""><img src=""images/schematic_sequence/restaurant_scheme/restaurant_scheme_5.png"" class=""exp-image""><div class=""question-area""><b>Is there a person?</b></div></div>","0","person_check","restaurant_scheme","5","","","","","","","","",""
"","","","","","html-keyboard-response","35","106334","0.0-35.0","null","","<div class=""stimulus-container""><img src=""images/schematic_sequence/restaurant_scheme/restaurant_scheme_6.png"" class=""exp-image""></div>","null","","","","","","","","","","","",""
"","","","","","html-button-response","36","107704","0.0-36.0","1367","","<div class=""stimulus-container""><img src=""images/schematic_sequence/restaurant_scheme/restaurant_scheme_6.png"" class=""exp-image""><div class=""question-area""><b>Is there a person?</b></div></div>","1","person_check","restaurant_scheme","6","","","","","","","","",""
"","","","","","html-keyboard-response","37","111720","0.0-37.0","null","","<div class=""stimulus-container""><img src=""images/schematic_sequence/restaurant_scheme/restaurant_scheme_7.png"" class=""exp-image""></div>","null","","","","","","","","","","","",""
"","","","","","html-button-response","38","112632","0.0-38.0","910","","<div class=""stimulus-container""><img src=""images/schematic_sequence/restaurant_scheme/restaurant_scheme_7.png"" class=""exp-image""><div class=""question-area""><b>Is there a person?</b></div></div>","1","person_check","restaurant_scheme","7","","","","","","","","",""
"","","","","","html-keyboard-response","39","116641","0.0-39.0","null","","<div class=""stimulus-container""><img src=""images/schematic_sequence/restaurant_scheme/restaurant_scheme_8.png"" class=""exp-image""></div>","null","","","","","","","","","","","",""
"","","","","","html-button-response","40","117390","0.0-40.0","747","","<div class=""stimulus-container""><img src=""images/schematic_sequence/restaurant_scheme/restaurant_scheme_8.png"" class=""exp-image""><div class=""question-area""><b>Is there a person?</b></div></div>","0","person_check","restaurant_scheme","8","","","","","","","","",""
"","","","","","html-keyboard-response","41","121393","0.0-41.0","null","","<div class=""stimulus-container""><img src=""images/schematic_sequence/restaurant_scheme/restaurant_scheme_9.png"" class=""exp-image""></div>","null","","","","","","","","","","","",""
"","","","","","html-button-response","42","122166","0.0-42.0","771","","<div class=""stimulus-container""><img src=""images/schematic_sequence/restaurant_scheme/restaurant_scheme_9.png"" class=""exp-image""><div class=""question-area""><b>Is there a person?</b></div></div>","0","person_check","restaurant_scheme","9","","","","","","","","",""
"","","","","","html-keyboard-response","43","126182","0.0-43.0","null","","<div class=""stimulus-container""><img src=""images/schematic_sequence/restaurant_scheme/restaurant_scheme_ten.png"" class=""exp-image""></div>","null","","","","","","","","","","","",""
"","","","","","html-button-response","44","126880","0.0-44.0","696","","<div class=""stimulus-container""><img src=""images/schematic_sequence/restaurant_scheme/restaurant_scheme_ten.png"" class=""exp-image""><div class=""question-area""><b>Is there a person?</b></div></div>","0","person_check","restaurant_scheme","10","","","","","","","","",""
"","","","","","html-keyboard-response","45","129897","0.0-45.0","null","","<div style=""background-color: white; width: 100vw; height: 100vh;""></div>","null","","","","","","","","","","","",""
"","","","","","html-keyboard-response","46","133901","0.0-46.0","null","","<div class=""stimulus-container""><img src=""images/semantic_sequence/maintaining_a_car_semantic/maintaining_a_car_semantic_1.png"" class=""exp-image""></div>","null","","","","","","","","","","","",""
"","","","","","html-button-response","47","134862","0.0-47.0","959","","<div class=""stimulus-container""><img src=""images/semantic_sequence/maintaining_a_car_semantic/maintaining_a_car_semantic_1.png"" class=""exp-image""><div class=""question-area""><b>Is there a person?</b></div></div>","0","person_check","maintaining_a_car_semantic","1","","","","","","","","",""
"","","","","","html-keyboard-response","48","138873","0.0-48.0","null","","<div class=""stimulus-container""><img src=""images/semantic_sequence/maintaining_a_car_semantic/maintaining_a_car_semantic_2.png"" class=""exp-image""></div>","null","","","","","","","","","","","",""
"","","","","","html-button-response","49","139121","0.0-49.0","245","","<div class=""stimulus-container""><img src=""images/semantic_sequence/maintaining_a_car_semantic/maintaining_a_car_semantic_2.png"" class=""exp-image""><div class=""question-area""><b>Is there a person?</b></div></div>","0","person_check","maintaining_a_car_semantic","2","","","","","","","","",""
"","","","","","html-keyboard-response","50","143123","0.0-50.0","null","","<div class=""stimulus-container""><img src=""images/semantic_sequence/maintaining_a_car_semantic/maintaining_a_car_semantic_3.png"" class=""exp-image""></div>","null","","","","","","","","","","","",""
"","","","","","html-button-response","51","143908","0.0-51.0","783","","<div class=""stimulus-container""><img src=""images/semantic_sequence/maintaining_a_car_semantic/maintaining_a_car_semantic_3.png"" class=""exp-image""><div class=""question-area""><b>Is there a person?</b></div></div>","0","person_check","maintaining_a_car_semantic","3","","","","","","","","",""
"","","","","","html-keyboard-response","52","147911","0.0-52.0","null","","<div class=""stimulus-container""><img src=""images/semantic_sequence/maintaining_a_car_semantic/maintaining_a_car_semantic_4.png"" class=""exp-image""></div>","null","","","","","","","","","","","",""
"","","","","","html-button-response","53","148778","0.0-53.0","866","","<div class=""stimulus-container""><img src=""images/semantic_sequence/maintaining_a_car_semantic/maintaining_a_car_semantic_4.png"" class=""exp-image""><div class=""question-area""><b>Is there a person?</b></div></div>","0","person_check","maintaining_a_car_semantic","4","","","","","","","","",""
"","","","","","html-keyboard-response","54","152795","0.0-54.0","null","","<div class=""stimulus-container""><img src=""images/semantic_sequence/maintaining_a_car_semantic/maintaining_a_car_semantic_5.png"" class=""exp-image""></div>","null","","","","","","","","","","","",""
"","","","","","html-button-response","55","153560","0.0-55.0","763","","<div class=""stimulus-container""><img src=""images/semantic_sequence/maintaining_a_car_semantic/maintaining_a_car_semantic_5.png"" class=""exp-image""><div class=""question-area""><b>Is there a person?</b></div></div>","0","person_check","maintaining_a_car_semantic","5","","","","","","","","",""
"","","","","","html-keyboard-response","56","157570","0.0-56.0","null","","<div class=""stimulus-container""><img src=""images/semantic_sequence/maintaining_a_car_semantic/maintaining_a_car_semantic_6.png"" class=""exp-image""></div>","null","","","","","","","","","","","",""
"","","","","","html-button-response","57","158447","0.0-57.0","875","","<div class=""stimulus-container""><img src=""images/semantic_sequence/maintaining_a_car_semantic/maintaining_a_car_semantic_6.png"" class=""exp-image""><div class=""question-area""><b>Is there a person?</b></div></div>","0","person_check","maintaining_a_car_semantic","6","","","","","","","","",""
"","","","","","html-keyboard-response","58","162457","0.0-58.0","null","","<div class=""stimulus-container""><img src=""images/semantic_sequence/maintaining_a_car_semantic/maintaining_a_car_semantic_7.png"" class=""exp-image""></div>","null","","","","","","","","","","","",""
"","","","","","html-button-response","59","163434","0.0-59.0","976","","<div class=""stimulus-container""><img src=""images/semantic_sequence/maintaining_a_car_semantic/maintaining_a_car_semantic_7.png"" class=""exp-image""><div class=""question-area""><b>Is there a person?</b></div></div>","0","person_check","maintaining_a_car_semantic","7","","","","","","","","",""
"","","","","","html-keyboard-response","60","167447","0.0-60.0","null","","<div class=""stimulus-container""><img src=""images/semantic_sequence/maintaining_a_car_semantic/maintaining_a_car_semantic_8.png"" class=""exp-image""></div>","null","","","","","","","","","","","",""
"","","","","","html-button-response","61","168510","0.0-61.0","1062","","<div class=""stimulus-container""><img src=""images/semantic_sequence/maintaining_a_car_semantic/maintaining_a_car_semantic_8.png"" class=""exp-image""><div class=""question-area""><b>Is there a person?</b></div></div>","0","person_check","maintaining_a_car_semantic","8","","","","","","","","",""
"","","","","","html-keyboard-response","62","172512","0.0-62.0","null","","<div class=""stimulus-container""><img src=""images/semantic_sequence/maintaining_a_car_semantic/maintaining_a_car_semantic_9.png"" class=""exp-image""></div>","null","","","","","","","","","","","",""
"","","","","","html-button-response","63","173055","0.0-63.0","541","","<div class=""stimulus-container""><img src=""images/semantic_sequence/maintaining_a_car_semantic/maintaining_a_car_semantic_9.png"" class=""exp-image""><div class=""question-area""><b>Is there a person?</b></div></div>","0","person_check","maintaining_a_car_semantic","9","","","","","","","","",""
"","","","","","html-keyboard-response","64","177058","0.0-64.0","null","","<div class=""stimulus-container""><img src=""images/semantic_sequence/maintaining_a_car_semantic/maintaining_a_car_semantic_ten.png"" class=""exp-image""></div>","null","","","","","","","","","","","",""
"","","","","","html-button-response","65","177847","0.0-65.0","787","","<div class=""stimulus-container""><img src=""images/semantic_sequence/maintaining_a_car_semantic/maintaining_a_car_semantic_ten.png"" class=""exp-image""><div class=""question-area""><b>Is there a person?</b></div></div>","0","person_check","maintaining_a_car_semantic","10","","","","","","","","",""
"","","","","","html-keyboard-response","66","180859","0.0-66.0","null","","<div style=""background-color: white; width: 100vw; height: 100vh;""></div>","null","","","","","","","","","","","",""
"","","","","","html-keyboard-response","67","184859","0.0-67.0","null","","<div class=""stimulus-container""><img src=""images/semantic_sequence/kitchen_operations_semantic/kitchen_operations_semantic_1.png"" class=""exp-image""></div>","null","","","","","","","","","","","",""
"","","","","","html-button-response","68","186079","0.0-68.0","1219","","<div class=""stimulus-container""><img src=""images/semantic_sequence/kitchen_operations_semantic/kitchen_operations_semantic_1.png"" class=""exp-image""><div class=""question-area""><b>Is there a person?</b></div></div>","0","person_check","kitchen_operations_semantic","1","","","","","","","","",""
"","","","","","html-keyboard-response","69","190087","0.0-69.0","null","","<div class=""stimulus-container""><img src=""images/semantic_sequence/kitchen_operations_semantic/kitchen_operations_semantic_2.png"" class=""exp-image""></div>","null","","","","","","","","","","","",""
"","","","","","html-button-response","70","191363","0.0-70.0","1273","","<div class=""stimulus-container""><img src=""images/semantic_sequence/kitchen_operations_semantic/kitchen_operations_semantic_2.png"" class=""exp-image""><div class=""question-area""><b>Is there a person?</b></div></div>","0","person_check","kitchen_operations_semantic","2","","","","","","","","",""
"","","","","","html-keyboard-response","71","195372","0.0-71.0","null","","<div class=""stimulus-container""><img src=""images/semantic_sequence/kitchen_operations_semantic/kitchen_operations_semantic_3.png"" class=""exp-image""></div>","null","","","","","","","","","","","",""
"","","","","","html-button-response","72","197114","0.0-72.0","1740","","<div class=""stimulus-container""><img src=""images/semantic_sequence/kitchen_operations_semantic/kitchen_operations_semantic_3.png"" class=""exp-image""><div class=""question-area""><b>Is there a person?</b></div></div>","0","person_check","kitchen_operations_semantic","3","","","","","","","","",""
"","","","","","html-keyboard-response","73","201116","0.0-73.0","null","","<div class=""stimulus-container""><img src=""images/semantic_sequence/kitchen_operations_semantic/kitchen_operations_semantic_4.png"" class=""exp-image""></div>","null","","","","","","","","","","","",""
"","","","","","html-button-response","74","201903","0.0-74.0","786","","<div class=""stimulus-container""><img src=""images/semantic_sequence/kitchen_operations_semantic/kitchen_operations_semantic_4.png"" class=""exp-image""><div class=""question-area""><b>Is there a person?</b></div></div>","0","person_check","kitchen_operations_semantic","4","","","","","","","","",""
"","","","","","html-keyboard-response","75","205906","0.0-75.0","null","","<div class=""stimulus-container""><img src=""images/semantic_sequence/kitchen_operations_semantic/kitchen_operations_semantic_5.png"" class=""exp-image""></div>","null","","","","","","","","","","","",""
"","","","","","html-button-response","76","206447","0.0-76.0","540","","<div class=""stimulus-container""><img src=""images/semantic_sequence/kitchen_operations_semantic/kitchen_operations_semantic_5.png"" class=""exp-image""><div class=""question-area""><b>Is there a person?</b></div></div>","0","person_check","kitchen_operations_semantic","5","","","","","","","","",""
"","","","","","html-keyboard-response","77","210450","0.0-77.0","null","","<div class=""stimulus-container""><img src=""images/semantic_sequence/kitchen_operations_semantic/kitchen_operations_semantic_6.png"" class=""exp-image""></div>","null","","","","","","","","","","","",""
"","","","","","html-button-response","78","211108","0.0-78.0","656","","<div class=""stimulus-container""><img src=""images/semantic_sequence/kitchen_operations_semantic/kitchen_operations_semantic_6.png"" class=""exp-image""><div class=""question-area""><b>Is there a person?</b></div></div>","0","person_check","kitchen_operations_semantic","6","","","","","","","","",""
"","","","","","html-keyboard-response","79","215125","0.0-79.0","null","","<div class=""stimulus-container""><img src=""images/semantic_sequence/kitchen_operations_semantic/kitchen_operations_semantic_7.png"" class=""exp-image""></div>","null","","","","","","","","","","","",""
"","","","","","html-button-response","80","215676","0.0-80.0","550","","<div class=""stimulus-container""><img src=""images/semantic_sequence/kitchen_operations_semantic/kitchen_operations_semantic_7.png"" class=""exp-image""><div class=""question-area""><b>Is there a person?</b></div></div>","0","person_check","kitchen_operations_semantic","7","","","","","","","","",""
"","","","","","html-keyboard-response","81","219684","0.0-81.0","null","","<div class=""stimulus-container""><img src=""images/semantic_sequence/kitchen_operations_semantic/kitchen_operations_semantic_8.png"" class=""exp-image""></div>","null","","","","","","","","","","","",""
"","","","","","html-button-response","82","220408","0.0-82.0","723","","<div class=""stimulus-container""><img src=""images/semantic_sequence/kitchen_operations_semantic/kitchen_operations_semantic_8.png"" class=""exp-image""><div class=""question-area""><b>Is there a person?</b></div></div>","0","person_check","kitchen_operations_semantic","8","","","","","","","","",""
"","","","","","html-keyboard-response","83","224411","0.0-83.0","null","","<div class=""stimulus-container""><img src=""images/semantic_sequence/kitchen_operations_semantic/kitchen_operations_semantic_9.png"" class=""exp-image""></div>","null","","","","","","","","","","","",""
"","","","","","html-button-response","84","225073","0.0-84.0","661","","<div class=""stimulus-container""><img src=""images/semantic_sequence/kitchen_operations_semantic/kitchen_operations_semantic_9.png"" class=""exp-image""><div class=""question-area""><b>Is there a person?</b></div></div>","0","person_check","kitchen_operations_semantic","9","","","","","","","","",""
"","","","","","html-keyboard-response","85","229085","0.0-85.0","null","","<div class=""stimulus-container""><img src=""images/semantic_sequence/kitchen_operations_semantic/kitchen_operations_semantic_ten.png"" class=""exp-image""></div>","null","","","","","","","","","","","",""
"","","","","","html-button-response","86","229670","0.0-86.0","582","","<div class=""stimulus-container""><img src=""images/semantic_sequence/kitchen_operations_semantic/kitchen_operations_semantic_ten.png"" class=""exp-image""><div class=""question-area""><b>Is there a person?</b></div></div>","0","person_check","kitchen_operations_semantic","10","","","","","","","","",""
"","","","","","html-keyboard-response","87","232671","0.0-87.0","null","","<div style=""background-color: white; width: 100vw; height: 100vh;""></div>","null","","","","","","","","","","","",""
"","","","","","html-keyboard-response","88","236674","0.0-88.0","null","","<div class=""stimulus-container""><img src=""images/causal_sequence/package_causal/package_causal_1.png"" class=""exp-image""></div>","null","","","","","","","","","","","",""
"","","","","","html-button-response","89","237609","0.0-89.0","934","","<div class=""stimulus-container""><img src=""images/causal_sequence/package_causal/package_causal_1.png"" class=""exp-image""><div class=""question-area""><b>Is there a person?</b></div></div>","0","person_check","package_causal","1","","","","","","","","",""
"","","","","","html-keyboard-response","90","241616","0.0-90.0","null","","<div class=""stimulus-container""><img src=""images/causal_sequence/package_causal/package_causal_2.png"" class=""exp-image""></div>","null","","","","","","","","","","","",""
"","","","","","html-button-response","91","243096","0.0-91.0","1480","","<div class=""stimulus-container""><img src=""images/causal_sequence/package_causal/package_causal_2.png"" class=""exp-image""><div class=""question-area""><b>Is there a person?</b></div></div>","0","person_check","package_causal","2","","","","","","","","",""
"","","","","","html-keyboard-response","92","247103","0.0-92.0","null","","<div class=""stimulus-container""><img src=""images/causal_sequence/package_causal/package_causal_3.png"" class=""exp-image""></div>","null","","","","","","","","","","","",""
"","","","","","html-button-response","93","248139","0.0-93.0","1035","","<div class=""stimulus-container""><img src=""images/causal_sequence/package_causal/package_causal_3.png"" class=""exp-image""><div class=""question-area""><b>Is there a person?</b></div></div>","0","person_check","package_causal","3","","","","","","","","",""
"","","","","","html-keyboard-response","94","252143","0.0-94.0","null","","<div class=""stimulus-container""><img src=""images/causal_sequence/package_causal/package_causal_4.png"" class=""exp-image""></div>","null","","","","","","","","","","","",""
"","","","","","html-button-response","95","253119","0.0-95.0","974","","<div class=""stimulus-container""><img src=""images/causal_sequence/package_causal/package_causal_4.png"" class=""exp-image""><div class=""question-area""><b>Is there a person?</b></div></div>","1","person_check","package_causal","4","","","","","","","","",""
"","","","","","html-keyboard-response","96","257121","0.0-96.0","null","","<div class=""stimulus-container""><img src=""images/causal_sequence/package_causal/package_causal_5.png"" class=""exp-image""></div>","null","","","","","","","","","","","",""
"","","","","","html-button-response","97","257901","0.0-97.0","778","","<div class=""stimulus-container""><img src=""images/causal_sequence/package_causal/package_causal_5.png"" class=""exp-image""><div class=""question-area""><b>Is there a person?</b></div></div>","0","person_check","package_causal","5","","","","","","","","",""
"","","","","","html-keyboard-response","98","261914","0.0-98.0","null","","<div class=""stimulus-container""><img src=""images/causal_sequence/package_causal/package_causal_6.png"" class=""exp-image""></div>","null","","","","","","","","","","","",""
"","","","","","html-button-response","99","262478","0.0-99.0","562","","<div class=""stimulus-container""><img src=""images/causal_sequence/package_causal/package_causal_6.png"" class=""exp-image""><div class=""question-area""><b>Is there a person?</b></div></div>","0","person_check","package_causal","6","","","","","","","","",""
"","","","","","html-keyboard-response","100","266487","0.0-100.0","null","","<div class=""stimulus-container""><img src=""images/causal_sequence/package_causal/package_causal_7.png"" class=""exp-image""></div>","null","","","","","","","","","","","",""
"","","","","","html-button-response","101","267269","0.0-101.0","780","","<div class=""stimulus-container""><img src=""images/causal_sequence/package_causal/package_causal_7.png"" class=""exp-image""><div class=""question-area""><b>Is there a person?</b></div></div>","0","person_check","package_causal","7","","","","","","","","",""
"","","","","","html-keyboard-response","102","271271","0.0-102.0","null","","<div class=""stimulus-container""><img src=""images/causal_sequence/package_causal/package_causal_8.png"" class=""exp-image""></div>","null","","","","","","","","","","","",""
"","","","","","html-button-response","103","271799","0.0-103.0","525","","<div class=""stimulus-container""><img src=""images/causal_sequence/package_causal/package_causal_8.png"" class=""exp-image""><div class=""question-area""><b>Is there a person?</b></div></div>","0","person_check","package_causal","8","","","","","","","","",""
"","","","","","html-keyboard-response","104","275801","0.0-104.0","null","","<div class=""stimulus-container""><img src=""images/causal_sequence/package_causal/package_causal_9.png"" class=""exp-image""></div>","null","","","","","","","","","","","",""
"","","","","","html-button-response","105","276331","0.0-105.0","528","","<div class=""stimulus-container""><img src=""images/causal_sequence/package_causal/package_causal_9.png"" class=""exp-image""><div class=""question-area""><b>Is there a person?</b></div></div>","0","person_check","package_causal","9","","","","","","","","",""
"","","","","","html-keyboard-response","106","280334","0.0-106.0","null","","<div class=""stimulus-container""><img src=""images/causal_sequence/package_causal/package_causal_ten.png"" class=""exp-image""></div>","null","","","","","","","","","","","",""
"","","","","","html-button-response","107","281178","0.0-107.0","842","","<div class=""stimulus-container""><img src=""images/causal_sequence/package_causal/package_causal_ten.png"" class=""exp-image""><div class=""question-area""><b>Is there a person?</b></div></div>","0","person_check","package_causal","10","","","","","","","","",""
"","","","","","html-keyboard-response","108","284179","0.0-108.0","null","","<div style=""background-color: white; width: 100vw; height: 100vh;""></div>","null","","","","","","","","","","","",""
"","","","","","html-keyboard-response","109","288189","0.0-109.0","null","","<div class=""stimulus-container""><img src=""images/semantic_sequence/visiting_cities_semantic/visiting_cities_semantic_1.png"" class=""exp-image""></div>","null","","","","","","","","","","","",""
"","","","","","html-button-response","110","290746","0.0-110.0","2554","","<div class=""stimulus-container""><img src=""images/semantic_sequence/visiting_cities_semantic/visiting_cities_semantic_1.png"" class=""exp-image""><div class=""question-area""><b>Is there a person?</b></div></div>","0","person_check","visiting_cities_semantic","1","","","","","","","","",""
"","","","","","html-keyboard-response","111","294749","0.0-111.0","null","","<div class=""stimulus-container""><img src=""images/semantic_sequence/visiting_cities_semantic/visiting_cities_semantic_2.png"" class=""exp-image""></div>","null","","","","","","","","","","","",""
"","","","","","html-button-response","112","295512","0.0-112.0","762","","<div class=""stimulus-container""><img src=""images/semantic_sequence/visiting_cities_semantic/visiting_cities_semantic_2.png"" class=""exp-image""><div class=""question-area""><b>Is there a person?</b></div></div>","1","person_check","visiting_cities_semantic","2","","","","","","","","",""
"","","","","","html-keyboard-response","113","299521","0.0-113.0","null","","<div class=""stimulus-container""><img src=""images/semantic_sequence/visiting_cities_semantic/visiting_cities_semantic_3.png"" class=""exp-image""></div>","null","","","","","","","","","","","",""
"","","","","","html-button-response","114","300369","0.0-114.0","846","","<div class=""stimulus-container""><img src=""images/semantic_sequence/visiting_cities_semantic/visiting_cities_semantic_3.png"" class=""exp-image""><div class=""question-area""><b>Is there a person?</b></div></div>","1","person_check","visiting_cities_semantic","3","","","","","","","","",""
"","","","","","html-keyboard-response","115","304372","0.0-115.0","null","","<div class=""stimulus-container""><img src=""images/semantic_sequence/visiting_cities_semantic/visiting_cities_semantic_4.png"" class=""exp-image""></div>","null","","","","","","","","","","","",""
"","","","","","html-button-response","116","305158","0.0-116.0","785","","<div class=""stimulus-container""><img src=""images/semantic_sequence/visiting_cities_semantic/visiting_cities_semantic_4.png"" class=""exp-image""><div class=""question-area""><b>Is there a person?</b></div></div>","1","person_check","visiting_cities_semantic","4","","","","","","","","",""
"","","","","","html-keyboard-response","117","309169","0.0-117.0","null","","<div class=""stimulus-container""><img src=""images/semantic_sequence/visiting_cities_semantic/visiting_cities_semantic_5.png"" class=""exp-image""></div>","null","","","","","","","","","","","",""
"","","","","","html-button-response","118","309856","0.0-118.0","686","","<div class=""stimulus-container""><img src=""images/semantic_sequence/visiting_cities_semantic/visiting_cities_semantic_5.png"" class=""exp-image""><div class=""question-area""><b>Is there a person?</b></div></div>","1","person_check","visiting_cities_semantic","5","","","","","","","","",""
"","","","","","html-keyboard-response","119","313869","0.0-119.0","null","","<div class=""stimulus-container""><img src=""images/semantic_sequence/visiting_cities_semantic/visiting_cities_semantic_6.png"" class=""exp-image""></div>","null","","","","","","","","","","","",""
"","","","","","html-button-response","120","314678","0.0-120.0","808","","<div class=""stimulus-container""><img src=""images/semantic_sequence/visiting_cities_semantic/visiting_cities_semantic_6.png"" class=""exp-image""><div class=""question-area""><b>Is there a person?</b></div></div>","1","person_check","visiting_cities_semantic","6","","","","","","","","",""
"","","","","","html-keyboard-response","121","318686","0.0-121.0","null","","<div class=""stimulus-container""><img src=""images/semantic_sequence/visiting_cities_semantic/visiting_cities_semantic_7.png"" class=""exp-image""></div>","null","","","","","","","","","","","",""
"","","","","","html-button-response","122","319316","0.0-122.0","627","","<div class=""stimulus-container""><img src=""images/semantic_sequence/visiting_cities_semantic/visiting_cities_semantic_7.png"" class=""exp-image""><div class=""question-area""><b>Is there a person?</b></div></div>","0","person_check","visiting_cities_semantic","7","","","","","","","","",""
"","","","","","html-keyboard-response","123","323319","0.0-123.0","null","","<div class=""stimulus-container""><img src=""images/semantic_sequence/visiting_cities_semantic/visiting_cities_semantic_8.png"" class=""exp-image""></div>","null","","","","","","","","","","","",""
"","","","","","html-button-response","124","323836","0.0-124.0","516","","<div class=""stimulus-container""><img src=""images/semantic_sequence/visiting_cities_semantic/visiting_cities_semantic_8.png"" class=""exp-image""><div class=""question-area""><b>Is there a person?</b></div></div>","0","person_check","visiting_cities_semantic","8","","","","","","","","",""
"","","","","","html-keyboard-response","125","327852","0.0-125.0","null","","<div class=""stimulus-container""><img src=""images/semantic_sequence/visiting_cities_semantic/visiting_cities_semantic_9.png"" class=""exp-image""></div>","null","","","","","","","","","","","",""
"","","","","","html-button-response","126","329378","0.0-126.0","1525","","<div class=""stimulus-container""><img src=""images/semantic_sequence/visiting_cities_semantic/visiting_cities_semantic_9.png"" class=""exp-image""><div class=""question-area""><b>Is there a person?</b></div></div>","0","person_check","visiting_cities_semantic","9","","","","","","","","",""
"","","","","","html-keyboard-response","127","333395","0.0-127.0","null","","<div class=""stimulus-container""><img src=""images/semantic_sequence/visiting_cities_semantic/visiting_cities_semantic_ten.png"" class=""exp-image""></div>","null","","","","","","","","","","","",""
"","","","","","html-button-response","128","337015","0.0-128.0","3619","","<div class=""stimulus-container""><img src=""images/semantic_sequence/visiting_cities_semantic/visiting_cities_semantic_ten.png"" class=""exp-image""><div class=""question-area""><b>Is there a person?</b></div></div>","0","person_check","visiting_cities_semantic","10","","","","","","","","",""
"","","","","","html-keyboard-response","129","340032","0.0-129.0","null","","<div style=""background-color: white; width: 100vw; height: 100vh;""></div>","null","","","","","","","","","","","",""
"","","","","","html-keyboard-response","130","344036","0.0-130.0","null","","<div class=""stimulus-container""><img src=""images/causal_sequence/the_performance_causal/the_performance_causal_1.png"" class=""exp-image""></div>","null","","","","","","","","","","","",""
"","","","","","html-button-response","131","345139","0.0-131.0","1102","","<div class=""stimulus-container""><img src=""images/causal_sequence/the_performance_causal/the_performance_causal_1.png"" class=""exp-image""><div class=""question-area""><b>Is there a person?</b></div></div>","0","person_check","the_performance_causal","1","","","","","","","","",""
"","","","","","html-keyboard-response","132","349143","0.0-132.0","null","","<div class=""stimulus-container""><img src=""images/causal_sequence/the_performance_causal/the_performance_causal_2.png"" class=""exp-image""></div>","null","","","","","","","","","","","",""
"","","","","","html-button-response","133","350127","0.0-133.0","981","","<div class=""stimulus-container""><img src=""images/causal_sequence/the_performance_causal/the_performance_causal_2.png"" class=""exp-image""><div class=""question-area""><b>Is there a person?</b></div></div>","0","person_check","the_performance_causal","2","","","","","","","","",""
"","","","","","html-keyboard-response","134","354139","0.0-134.0","null","","<div class=""stimulus-container""><img src=""images/causal_sequence/the_performance_causal/the_performance_causal_3.png"" class=""exp-image""></div>","null","","","","","","","","","","","",""
"","","","","","html-button-response","135","354874","0.0-135.0","734","","<div class=""stimulus-container""><img src=""images/causal_sequence/the_performance_causal/the_performance_causal_3.png"" class=""exp-image""><div class=""question-area""><b>Is there a person?</b></div></div>","0","person_check","the_performance_causal","3","","","","","","","","",""
"","","","","","html-keyboard-response","136","358876","0.0-136.0","null","","<div class=""stimulus-container""><img src=""images/causal_sequence/the_performance_causal/the_performance_causal_4.png"" class=""exp-image""></div>","null","","","","","","","","","","","",""
"","","","","","html-button-response","137","359638","0.0-137.0","761","","<div class=""stimulus-container""><img src=""images/causal_sequence/the_performance_causal/the_performance_causal_4.png"" class=""exp-image""><div class=""question-area""><b>Is there a person?</b></div></div>","0","person_check","the_performance_causal","4","","","","","","","","",""
"","","","","","html-keyboard-response","138","363649","0.0-138.0","null","","<div class=""stimulus-container""><img src=""images/causal_sequence/the_performance_causal/the_performance_causal_5.png"" class=""exp-image""></div>","null","","","","","","","","","","","",""
"","","","","","html-button-response","139","364334","0.0-139.0","683","","<div class=""stimulus-container""><img src=""images/causal_sequence/the_performance_causal/the_performance_causal_5.png"" class=""exp-image""><div class=""question-area""><b>Is there a person?</b></div></div>","0","person_check","the_performance_causal","5","","","","","","","","",""
"","","","","","html-keyboard-response","140","368336","0.0-140.0","null","","<div class=""stimulus-container""><img src=""images/causal_sequence/the_performance_causal/the_performance_causal_6.png"" class=""exp-image""></div>","null","","","","","","","","","","","",""
"","","","","","html-button-response","141","369170","0.0-141.0","832","","<div class=""stimulus-container""><img src=""images/causal_sequence/the_performance_causal/the_performance_causal_6.png"" class=""exp-image""><div class=""question-area""><b>Is there a person?</b></div></div>","0","person_check","the_performance_causal","6","","","","","","","","",""
"","","","","","html-keyboard-response","142","373186","0.0-142.0","null","","<div class=""stimulus-container""><img src=""images/causal_sequence/the_performance_causal/the_performance_causal_7.png"" class=""exp-image""></div>","null","","","","","","","","","","","",""
"","","","","","html-button-response","143","373865","0.0-143.0","678","","<div class=""stimulus-container""><img src=""images/causal_sequence/the_performance_causal/the_performance_causal_7.png"" class=""exp-image""><div class=""question-area""><b>Is there a person?</b></div></div>","0","person_check","the_performance_causal","7","","","","","","","","",""
"","","","","","html-keyboard-response","144","377868","0.0-144.0","null","","<div class=""stimulus-container""><img src=""images/causal_sequence/the_performance_causal/the_performance_causal_8.png"" class=""exp-image""></div>","null","","","","","","","","","","","",""
"","","","","","html-button-response","145","378532","0.0-145.0","662","","<div class=""stimulus-container""><img src=""images/causal_sequence/the_performance_causal/the_performance_causal_8.png"" class=""exp-image""><div class=""question-area""><b>Is there a person?</b></div></div>","0","person_check","the_performance_causal","8","","","","","","","","",""
"","","","","","html-keyboard-response","146","382533","0.0-146.0","null","","<div class=""stimulus-container""><img src=""images/causal_sequence/the_performance_causal/the_performance_causal_9.png"" class=""exp-image""></div>","null","","","","","","","","","","","",""
"","","","","","html-button-response","147","385351","0.0-147.0","2817","","<div class=""stimulus-container""><img src=""images/causal_sequence/the_performance_causal/the_performance_causal_9.png"" class=""exp-image""><div class=""question-area""><b>Is there a person?</b></div></div>","0","person_check","the_performance_causal","9","","","","","","","","",""
"","","","","","html-keyboard-response","148","389359","0.0-148.0","null","","<div class=""stimulus-container""><img src=""images/causal_sequence/the_performance_causal/the_performance_causal_ten.png"" class=""exp-image""></div>","null","","","","","","","","","","","",""
"","","","","","html-button-response","149","390710","0.0-149.0","1349","","<div class=""stimulus-container""><img src=""images/causal_sequence/the_performance_causal/the_performance_causal_ten.png"" class=""exp-image""><div class=""question-area""><b>Is there a person?</b></div></div>","0","person_check","the_performance_causal","10","","","","","","","","",""
"","","","","","html-keyboard-response","150","393712","0.0-150.0","null","","<div style=""background-color: white; width: 100vw; height: 100vh;""></div>","null","","","","","","","","","","","",""
"","","","","","html-keyboard-response","151","397715","0.0-151.0","null","","<div class=""stimulus-container""><img src=""images/semantic_sequence/self_care_activities_semantic/self_care_activities_semantic_1.png"" class=""exp-image""></div>","null","","","","","","","","","","","",""
"","","","","","html-button-response","152","398378","0.0-152.0","662","","<div class=""stimulus-container""><img src=""images/semantic_sequence/self_care_activities_semantic/self_care_activities_semantic_1.png"" class=""exp-image""><div class=""question-area""><b>Is there a person?</b></div></div>","0","person_check","self_care_activities_semantic","1","","","","","","","","",""
"","","","","","html-keyboard-response","153","402383","0.0-153.0","null","","<div class=""stimulus-container""><img src=""images/semantic_sequence/self_care_activities_semantic/self_care_activities_semantic_2.png"" class=""exp-image""></div>","null","","","","","","","","","","","",""
"","","","","","html-button-response","154","403184","0.0-154.0","799","","<div class=""stimulus-container""><img src=""images/semantic_sequence/self_care_activities_semantic/self_care_activities_semantic_2.png"" class=""exp-image""><div class=""question-area""><b>Is there a person?</b></div></div>","0","person_check","self_care_activities_semantic","2","","","","","","","","",""
"","","","","","html-keyboard-response","155","407199","0.0-155.0","null","","<div class=""stimulus-container""><img src=""images/semantic_sequence/self_care_activities_semantic/self_care_activities_semantic_3.png"" class=""exp-image""></div>","null","","","","","","","","","","","",""
"","","","","","html-button-response","156","407852","0.0-156.0","650","","<div class=""stimulus-container""><img src=""images/semantic_sequence/self_care_activities_semantic/self_care_activities_semantic_3.png"" class=""exp-image""><div class=""question-area""><b>Is there a person?</b></div></div>","0","person_check","self_care_activities_semantic","3","","","","","","","","",""
"","","","","","html-keyboard-response","157","411855","0.0-157.0","null","","<div class=""stimulus-container""><img src=""images/semantic_sequence/self_care_activities_semantic/self_care_activities_semantic_4.png"" class=""exp-image""></div>","null","","","","","","","","","","","",""
"","","","","","html-button-response","158","412564","0.0-158.0","708","","<div class=""stimulus-container""><img src=""images/semantic_sequence/self_care_activities_semantic/self_care_activities_semantic_4.png"" class=""exp-image""><div class=""question-area""><b>Is there a person?</b></div></div>","0","person_check","self_care_activities_semantic","4","","","","","","","","",""
"","","","","","html-keyboard-response","159","416567","0.0-159.0","null","","<div class=""stimulus-container""><img src=""images/semantic_sequence/self_care_activities_semantic/self_care_activities_semantic_5.png"" class=""exp-image""></div>","null","","","","","","","","","","","",""
"","","","","","html-button-response","160","417571","0.0-160.0","1002","","<div class=""stimulus-container""><img src=""images/semantic_sequence/self_care_activities_semantic/self_care_activities_semantic_5.png"" class=""exp-image""><div class=""question-area""><b>Is there a person?</b></div></div>","0","person_check","self_care_activities_semantic","5","","","","","","","","",""
"","","","","","html-keyboard-response","161","421574","0.0-161.0","null","","<div class=""stimulus-container""><img src=""images/semantic_sequence/self_care_activities_semantic/self_care_activities_semantic_6.png"" class=""exp-image""></div>","null","","","","","","","","","","","",""
"","","","","","html-button-response","162","422384","0.0-162.0","808","","<div class=""stimulus-container""><img src=""images/semantic_sequence/self_care_activities_semantic/self_care_activities_semantic_6.png"" class=""exp-image""><div class=""question-area""><b>Is there a person?</b></div></div>","1","person_check","self_care_activities_semantic","6","","","","","","","","",""
"","","","","","html-keyboard-response","163","426389","0.0-163.0","null","","<div class=""stimulus-container""><img src=""images/semantic_sequence/self_care_activities_semantic/self_care_activities_semantic_7.png"" class=""exp-image""></div>","null","","","","","","","","","","","",""
"","","","","","html-button-response","164","430100","0.0-164.0","3709","","<div class=""stimulus-container""><img src=""images/semantic_sequence/self_care_activities_semantic/self_care_activities_semantic_7.png"" class=""exp-image""><div class=""question-area""><b>Is there a person?</b></div></div>","0","person_check","self_care_activities_semantic","7","","","","","","","","",""
"","","","","","html-keyboard-response","165","434111","0.0-165.0","null","","<div class=""stimulus-container""><img src=""images/semantic_sequence/self_care_activities_semantic/self_care_activities_semantic_8.png"" class=""exp-image""></div>","null","","","","","","","","","","","",""
"","","","","","html-button-response","166","436724","0.0-166.0","2612","","<div class=""stimulus-container""><img src=""images/semantic_sequence/self_care_activities_semantic/self_care_activities_semantic_8.png"" class=""exp-image""><div class=""question-area""><b>Is there a person?</b></div></div>","0","person_check","self_care_activities_semantic","8","","","","","","","","",""
"","","","","","html-keyboard-response","167","440739","0.0-167.0","null","","<div class=""stimulus-container""><img src=""images/semantic_sequence/self_care_activities_semantic/self_care_activities_semantic_9.png"" class=""exp-image""></div>","null","","","","","","","","","","","",""
"","","","","","html-button-response","168","464900","0.0-168.0","24159","","<div class=""stimulus-container""><img src=""images/semantic_sequence/self_care_activities_semantic/self_care_activities_semantic_9.png"" class=""exp-image""><div class=""question-area""><b>Is there a person?</b></div></div>","0","person_check","self_care_activities_semantic","9","","","","","","","","",""
"","","","","","html-keyboard-response","169","468917","0.0-169.0","null","","<div class=""stimulus-container""><img src=""images/semantic_sequence/self_care_activities_semantic/self_care_activities_semantic_ten.png"" class=""exp-image""></div>","null","","","","","","","","","","","",""
"","","","","","html-button-response","170","475590","0.0-170.0","6671","","<div class=""stimulus-container""><img src=""images/semantic_sequence/self_care_activities_semantic/self_care_activities_semantic_ten.png"" class=""exp-image""><div class=""question-area""><b>Is there a person?</b></div></div>","0","person_check","self_care_activities_semantic","10","","","","","","","","",""
"","","","","","html-keyboard-response","171","478591","0.0-171.0","null","","<div style=""background-color: white; width: 100vw; height: 100vh;""></div>","null","","","","","","","","","","","",""
"","","","","","html-keyboard-response","172","482595","0.0-172.0","null","","<div class=""stimulus-container""><img src=""images/semantic_sequence/physical_activity_semantic/physical_activity_semantic_1.png"" class=""exp-image""></div>","null","","","","","","","","","","","",""
"","","","","","html-button-response","173","484577","0.0-173.0","1981","","<div class=""stimulus-container""><img src=""images/semantic_sequence/physical_activity_semantic/physical_activity_semantic_1.png"" class=""exp-image""><div class=""question-area""><b>Is there a person?</b></div></div>","0","person_check","physical_activity_semantic","1","","","","","","","","",""
"","","","","","html-keyboard-response","174","488580","0.0-174.0","null","","<div class=""stimulus-container""><img src=""images/semantic_sequence/physical_activity_semantic/physical_activity_semantic_2.png"" class=""exp-image""></div>","null","","","","","","","","","","","",""
"","","","","","html-button-response","175","489309","0.0-175.0","727","","<div class=""stimulus-container""><img src=""images/semantic_sequence/physical_activity_semantic/physical_activity_semantic_2.png"" class=""exp-image""><div class=""question-area""><b>Is there a person?</b></div></div>","0","person_check","physical_activity_semantic","2","","","","","","","","",""
"","","","","","html-keyboard-response","176","493320","0.0-176.0","null","","<div class=""stimulus-container""><img src=""images/semantic_sequence/physical_activity_semantic/physical_activity_semantic_3.png"" class=""exp-image""></div>","null","","","","","","","","","","","",""
"","","","","","html-button-response","177","494352","0.0-177.0","1031","","<div class=""stimulus-container""><img src=""images/semantic_sequence/physical_activity_semantic/physical_activity_semantic_3.png"" class=""exp-image""><div class=""question-area""><b>Is there a person?</b></div></div>","0","person_check","physical_activity_semantic","3","","","","","","","","",""
"","","","","","html-keyboard-response","178","498355","0.0-178.0","null","","<div class=""stimulus-container""><img src=""images/semantic_sequence/physical_activity_semantic/physical_activity_semantic_4.png"" class=""exp-image""></div>","null","","","","","","","","","","","",""
"","","","","","html-button-response","179","499343","0.0-179.0","986","","<div class=""stimulus-container""><img src=""images/semantic_sequence/physical_activity_semantic/physical_activity_semantic_4.png"" class=""exp-image""><div class=""question-area""><b>Is there a person?</b></div></div>","0","person_check","physical_activity_semantic","4","","","","","","","","",""
"","","","","","html-keyboard-response","180","503358","0.0-180.0","null","","<div class=""stimulus-container""><img src=""images/semantic_sequence/physical_activity_semantic/physical_activity_semantic_5.png"" class=""exp-image""></div>","null","","","","","","","","","","","",""
"","","","","","html-button-response","181","504122","0.0-181.0","763","","<div class=""stimulus-container""><img src=""images/semantic_sequence/physical_activity_semantic/physical_activity_semantic_5.png"" class=""exp-image""><div class=""question-area""><b>Is there a person?</b></div></div>","0","person_check","physical_activity_semantic","5","","","","","","","","",""
"","","","","","html-keyboard-response","182","508132","0.0-182.0","null","","<div class=""stimulus-container""><img src=""images/semantic_sequence/physical_activity_semantic/physical_activity_semantic_6.png"" class=""exp-image""></div>","null","","","","","","","","","","","",""
"","","","","","html-button-response","183","508701","0.0-183.0","567","","<div class=""stimulus-container""><img src=""images/semantic_sequence/physical_activity_semantic/physical_activity_semantic_6.png"" class=""exp-image""><div class=""question-area""><b>Is there a person?</b></div></div>","0","person_check","physical_activity_semantic","6","","","","","","","","",""
"","","","","","html-keyboard-response","184","512705","0.0-184.0","null","","<div class=""stimulus-container""><img src=""images/semantic_sequence/physical_activity_semantic/physical_activity_semantic_7.png"" class=""exp-image""></div>","null","","","","","","","","","","","",""
"","","","","","html-button-response","185","513522","0.0-185.0","815","","<div class=""stimulus-container""><img src=""images/semantic_sequence/physical_activity_semantic/physical_activity_semantic_7.png"" class=""exp-image""><div class=""question-area""><b>Is there a person?</b></div></div>","0","person_check","physical_activity_semantic","7","","","","","","","","",""
"","","","","","html-keyboard-response","186","517526","0.0-186.0","null","","<div class=""stimulus-container""><img src=""images/semantic_sequence/physical_activity_semantic/physical_activity_semantic_8.png"" class=""exp-image""></div>","null","","","","","","","","","","","",""
"","","","","","html-button-response","187","518132","0.0-187.0","604","","<div class=""stimulus-container""><img src=""images/semantic_sequence/physical_activity_semantic/physical_activity_semantic_8.png"" class=""exp-image""><div class=""question-area""><b>Is there a person?</b></div></div>","0","person_check","physical_activity_semantic","8","","","","","","","","",""
"","","","","","html-keyboard-response","188","522149","0.0-188.0","null","","<div class=""stimulus-container""><img src=""images/semantic_sequence/physical_activity_semantic/physical_activity_semantic_9.png"" class=""exp-image""></div>","null","","","","","","","","","","","",""
"","","","","","html-button-response","189","522780","0.0-189.0","629","","<div class=""stimulus-container""><img src=""images/semantic_sequence/physical_activity_semantic/physical_activity_semantic_9.png"" class=""exp-image""><div class=""question-area""><b>Is there a person?</b></div></div>","0","person_check","physical_activity_semantic","9","","","","","","","","",""
"","","","","","html-keyboard-response","190","526788","0.0-190.0","null","","<div class=""stimulus-container""><img src=""images/semantic_sequence/physical_activity_semantic/physical_activity_semantic_ten.png"" class=""exp-image""></div>","null","","","","","","","","","","","",""
"","","","","","html-button-response","191","527526","0.0-191.0","735","","<div class=""stimulus-container""><img src=""images/semantic_sequence/physical_activity_semantic/physical_activity_semantic_ten.png"" class=""exp-image""><div class=""question-area""><b>Is there a person?</b></div></div>","0","person_check","physical_activity_semantic","10","","","","","","","","",""
"","","","","","html-keyboard-response","192","530530","0.0-192.0","null","","<div style=""background-color: white; width: 100vw; height: 100vh;""></div>","null","","","","","","","","","","","",""
"","","","","","html-keyboard-response","193","534535","0.0-193.0","null","","<div class=""stimulus-container""><img src=""images/causal_sequence/dog_causal/dog_causal_1.png"" class=""exp-image""></div>","null","","","","","","","","","","","",""
"","","","","","html-button-response","194","535505","0.0-194.0","967","","<div class=""stimulus-container""><img src=""images/causal_sequence/dog_causal/dog_causal_1.png"" class=""exp-image""><div class=""question-area""><b>Is there a person?</b></div></div>","0","person_check","dog_causal","1","","","","","","","","",""
"","","","","","html-keyboard-response","195","539519","0.0-195.0","null","","<div class=""stimulus-container""><img src=""images/causal_sequence/dog_causal/dog_causal_2.png"" class=""exp-image""></div>","null","","","","","","","","","","","",""
"","","","","","html-button-response","196","540189","0.0-196.0","667","","<div class=""stimulus-container""><img src=""images/causal_sequence/dog_causal/dog_causal_2.png"" class=""exp-image""><div class=""question-area""><b>Is there a person?</b></div></div>","0","person_check","dog_causal","2","","","","","","","","",""
"","","","","","html-keyboard-response","197","544190","0.0-197.0","null","","<div class=""stimulus-container""><img src=""images/causal_sequence/dog_causal/dog_causal_3.png"" class=""exp-image""></div>","null","","","","","","","","","","","",""
"","","","","","html-button-response","198","545293","0.0-198.0","1101","","<div class=""stimulus-container""><img src=""images/causal_sequence/dog_causal/dog_causal_3.png"" class=""exp-image""><div class=""question-area""><b>Is there a person?</b></div></div>","0","person_check","dog_causal","3","","","","","","","","",""
"","","","","","html-keyboard-response","199","549308","0.0-199.0","null","","<div class=""stimulus-container""><img src=""images/causal_sequence/dog_causal/dog_causal_4.png"" class=""exp-image""></div>","null","","","","","","","","","","","",""
"","","","","","html-button-response","200","550117","0.0-200.0","808","","<div class=""stimulus-container""><img src=""images/causal_sequence/dog_causal/dog_causal_4.png"" class=""exp-image""><div class=""question-area""><b>Is there a person?</b></div></div>","0","person_check","dog_causal","4","","","","","","","","",""
"","","","","","html-keyboard-response","201","554130","0.0-201.0","null","","<div class=""stimulus-container""><img src=""images/causal_sequence/dog_causal/dog_causal_5.png"" class=""exp-image""></div>","null","","","","","","","","","","","",""
"","","","","","html-button-response","202","555817","0.0-202.0","1685","","<div class=""stimulus-container""><img src=""images/causal_sequence/dog_causal/dog_causal_5.png"" class=""exp-image""><div class=""question-area""><b>Is there a person?</b></div></div>","0","person_check","dog_causal","5","","","","","","","","",""
"","","","","","html-keyboard-response","203","559826","0.0-203.0","null","","<div class=""stimulus-container""><img src=""images/causal_sequence/dog_causal/dog_causal_6.png"" class=""exp-image""></div>","null","","","","","","","","","","","",""
"","","","","","html-button-response","204","560431","0.0-204.0","604","","<div class=""stimulus-container""><img src=""images/causal_sequence/dog_causal/dog_causal_6.png"" class=""exp-image""><div class=""question-area""><b>Is there a person?</b></div></div>","0","person_check","dog_causal","6","","","","","","","","",""
"","","","","","html-keyboard-response","205","564446","0.0-205.0","null","","<div class=""stimulus-container""><img src=""images/causal_sequence/dog_causal/dog_causal_7.png"" class=""exp-image""></div>","null","","","","","","","","","","","",""
"","","","","","html-button-response","206","565099","0.0-206.0","652","","<div class=""stimulus-container""><img src=""images/causal_sequence/dog_causal/dog_causal_7.png"" class=""exp-image""><div class=""question-area""><b>Is there a person?</b></div></div>","0","person_check","dog_causal","7","","","","","","","","",""
"","","","","","html-keyboard-response","207","569106","0.0-207.0","null","","<div class=""stimulus-container""><img src=""images/causal_sequence/dog_causal/dog_causal_8.png"" class=""exp-image""></div>","null","","","","","","","","","","","",""
"","","","","","html-button-response","208","571285","0.0-208.0","2178","","<div class=""stimulus-container""><img src=""images/causal_sequence/dog_causal/dog_causal_8.png"" class=""exp-image""><div class=""question-area""><b>Is there a person?</b></div></div>","0","person_check","dog_causal","8","","","","","","","","",""
"","","","","","html-keyboard-response","209","575299","0.0-209.0","null","","<div class=""stimulus-container""><img src=""images/causal_sequence/dog_causal/dog_causal_9.png"" class=""exp-image""></div>","null","","","","","","","","","","","",""
"","","","","","html-button-response","210","577029","0.0-210.0","1728","","<div class=""stimulus-container""><img src=""images/causal_sequence/dog_causal/dog_causal_9.png"" class=""exp-image""><div class=""question-area""><b>Is there a person?</b></div></div>","0","person_check","dog_causal","9","","","","","","","","",""
"","","","","","html-keyboard-response","211","581031","0.0-211.0","null","","<div class=""stimulus-container""><img src=""images/causal_sequence/dog_causal/dog_causal_ten.png"" class=""exp-image""></div>","null","","","","","","","","","","","",""
"","","","","","html-button-response","212","581681","0.0-212.0","648","","<div class=""stimulus-container""><img src=""images/causal_sequence/dog_causal/dog_causal_ten.png"" class=""exp-image""><div class=""question-area""><b>Is there a person?</b></div></div>","0","person_check","dog_causal","10","","","","","","","","",""
"","","","","","html-keyboard-response","213","584685","0.0-213.0","null","","<div style=""background-color: white; width: 100vw; height: 100vh;""></div>","null","","","","","","","","","","","",""
"","","","","","html-keyboard-response","214","588688","0.0-214.0","null","","<div class=""stimulus-container""><img src=""images/schematic_sequence/hotel_scheme/hotel_scheme_1.png"" class=""exp-image""></div>","null","","","","","","","","","","","",""
"","","","","","html-button-response","215","589430","0.0-215.0","741","","<div class=""stimulus-container""><img src=""images/schematic_sequence/hotel_scheme/hotel_scheme_1.png"" class=""exp-image""><div class=""question-area""><b>Is there a person?</b></div></div>","1","person_check","hotel_scheme","1","","","","","","","","",""
"","","","","","html-keyboard-response","216","593440","0.0-216.0","null","","<div class=""stimulus-container""><img src=""images/schematic_sequence/hotel_scheme/hotel_scheme_2.png"" class=""exp-image""></div>","null","","","","","","","","","","","",""
"","","","","","html-button-response","217","595279","0.0-217.0","1838","","<div class=""stimulus-container""><img src=""images/schematic_sequence/hotel_scheme/hotel_scheme_2.png"" class=""exp-image""><div class=""question-area""><b>Is there a person?</b></div></div>","0","person_check","hotel_scheme","2","","","","","","","","",""
"","","","","","html-keyboard-response","218","599294","0.0-218.0","null","","<div class=""stimulus-container""><img src=""images/schematic_sequence/hotel_scheme/hotel_scheme_3.png"" class=""exp-image""></div>","null","","","","","","","","","","","",""
"","","","","","html-button-response","219","600269","0.0-219.0","973","","<div class=""stimulus-container""><img src=""images/schematic_sequence/hotel_scheme/hotel_scheme_3.png"" class=""exp-image""><div class=""question-area""><b>Is there a person?</b></div></div>","0","person_check","hotel_scheme","3","","","","","","","","",""
"","","","","","html-keyboard-response","220","604280","0.0-220.0","null","","<div class=""stimulus-container""><img src=""images/schematic_sequence/hotel_scheme/hotel_scheme_4.png"" class=""exp-image""></div>","null","","","","","","","","","","","",""
"","","","","","html-button-response","221","605270","0.0-221.0","988","","<div class=""stimulus-container""><img src=""images/schematic_sequence/hotel_scheme/hotel_scheme_4.png"" class=""exp-image""><div class=""question-area""><b>Is there a person?</b></div></div>","1","person_check","hotel_scheme","4","","","","","","","","",""
"","","","","","html-keyboard-response","222","609282","0.0-222.0","null","","<div class=""stimulus-container""><img src=""images/schematic_sequence/hotel_scheme/hotel_scheme_5.png"" class=""exp-image""></div>","null","","","","","","","","","","","",""
"","","","","","html-button-response","223","610077","0.0-223.0","796","","<div class=""stimulus-container""><img src=""images/schematic_sequence/hotel_scheme/hotel_scheme_5.png"" class=""exp-image""><div class=""question-area""><b>Is there a person?</b></div></div>","0","person_check","hotel_scheme","5","","","","","","","","",""
"","","","","","html-keyboard-response","224","614082","0.0-224.0","null","","<div class=""stimulus-container""><img src=""images/schematic_sequence/hotel_scheme/hotel_scheme_6.png"" class=""exp-image""></div>","null","","","","","","","","","","","",""
"","","","","","html-button-response","225","614761","0.0-225.0","677","","<div class=""stimulus-container""><img src=""images/schematic_sequence/hotel_scheme/hotel_scheme_6.png"" class=""exp-image""><div class=""question-area""><b>Is there a person?</b></div></div>","0","person_check","hotel_scheme","6","","","","","","","","",""
"","","","","","html-keyboard-response","226","618777","0.0-226.0","null","","<div class=""stimulus-container""><img src=""images/schematic_sequence/hotel_scheme/hotel_scheme_7.png"" class=""exp-image""></div>","null","","","","","","","","","","","",""
"","","","","","html-button-response","227","619824","0.0-227.0","1045","","<div class=""stimulus-container""><img src=""images/schematic_sequence/hotel_scheme/hotel_scheme_7.png"" class=""exp-image""><div class=""question-area""><b>Is there a person?</b></div></div>","0","person_check","hotel_scheme","7","","","","","","","","",""
"","","","","","html-keyboard-response","228","623842","0.0-228.0","null","","<div class=""stimulus-container""><img src=""images/schematic_sequence/hotel_scheme/hotel_scheme_8.png"" class=""exp-image""></div>","null","","","","","","","","","","","",""
"","","","","","html-button-response","229","624898","0.0-229.0","1055","","<div class=""stimulus-container""><img src=""images/schematic_sequence/hotel_scheme/hotel_scheme_8.png"" class=""exp-image""><div class=""question-area""><b>Is there a person?</b></div></div>","0","person_check","hotel_scheme","8","","","","","","","","",""
"","","","","","html-keyboard-response","230","628911","0.0-230.0","null","","<div class=""stimulus-container""><img src=""images/schematic_sequence/hotel_scheme/hotel_scheme_9.png"" class=""exp-image""></div>","null","","","","","","","","","","","",""
"","","","","","html-button-response","231","629624","0.0-231.0","712","","<div class=""stimulus-container""><img src=""images/schematic_sequence/hotel_scheme/hotel_scheme_9.png"" class=""exp-image""><div class=""question-area""><b>Is there a person?</b></div></div>","0","person_check","hotel_scheme","9","","","","","","","","",""
"","","","","","html-keyboard-response","232","633627","0.0-232.0","null","","<div class=""stimulus-container""><img src=""images/schematic_sequence/hotel_scheme/hotel_scheme_ten.png"" class=""exp-image""></div>","null","","","","","","","","","","","",""
"","","","","","html-button-response","233","634520","0.0-233.0","890","","<div class=""stimulus-container""><img src=""images/schematic_sequence/hotel_scheme/hotel_scheme_ten.png"" class=""exp-image""><div class=""question-area""><b>Is there a person?</b></div></div>","0","person_check","hotel_scheme","10","","","","","","","","",""
"","","","","","html-keyboard-response","234","637530","0.0-234.0","null","","<div style=""background-color: white; width: 100vw; height: 100vh;""></div>","null","","","","","","","","","","","",""
"","","","","","html-keyboard-response","235","641546","0.0-235.0","null","","<div class=""stimulus-container""><img src=""images/causal_sequence/coin_causal/coin_causal_1.png"" class=""exp-image""></div>","null","","","","","","","","","","","",""
"","","","","","html-button-response","236","642830","0.0-236.0","1282","","<div class=""stimulus-container""><img src=""images/causal_sequence/coin_causal/coin_causal_1.png"" class=""exp-image""><div class=""question-area""><b>Is there a person?</b></div></div>","0","person_check","coin_causal","1","","","","","","","","",""
"","","","","","html-keyboard-response","237","646832","0.0-237.0","null","","<div class=""stimulus-container""><img src=""images/causal_sequence/coin_causal/coin_causal_2.png"" class=""exp-image""></div>","null","","","","","","","","","","","",""
"","","","","","html-button-response","238","648936","0.0-238.0","2103","","<div class=""stimulus-container""><img src=""images/causal_sequence/coin_causal/coin_causal_2.png"" class=""exp-image""><div class=""question-area""><b>Is there a person?</b></div></div>","0","person_check","coin_causal","2","","","","","","","","",""
"","","","","","html-keyboard-response","239","652939","0.0-239.0","null","","<div class=""stimulus-container""><img src=""images/causal_sequence/coin_causal/coin_causal_3.png"" class=""exp-image""></div>","null","","","","","","","","","","","",""
"","","","","","html-button-response","240","655893","0.0-240.0","2952","","<div class=""stimulus-container""><img src=""images/causal_sequence/coin_causal/coin_causal_3.png"" class=""exp-image""><div class=""question-area""><b>Is there a person?</b></div></div>","0","person_check","coin_causal","3","","","","","","","","",""
"","","","","","html-keyboard-response","241","659894","0.0-241.0","null","","<div class=""stimulus-container""><img src=""images/causal_sequence/coin_causal/coin_causal_4.png"" class=""exp-image""></div>","null","","","","","","","","","","","",""
"","","","","","html-button-response","242","663174","0.0-242.0","3278","","<div class=""stimulus-container""><img src=""images/causal_sequence/coin_causal/coin_causal_4.png"" class=""exp-image""><div class=""question-area""><b>Is there a person?</b></div></div>","0","person_check","coin_causal","4","","","","","","","","",""
"","","","","","html-keyboard-response","243","667177","0.0-243.0","null","","<div class=""stimulus-container""><img src=""images/causal_sequence/coin_causal/coin_causal_5.png"" class=""exp-image""></div>","null","","","","","","","","","","","",""
"","","","","","html-button-response","244","668082","0.0-244.0","904","","<div class=""stimulus-container""><img src=""images/causal_sequence/coin_causal/coin_causal_5.png"" class=""exp-image""><div class=""question-area""><b>Is there a person?</b></div></div>","0","person_check","coin_causal","5","","","","","","","","",""
"","","","","","html-keyboard-response","245","672092","0.0-245.0","null","","<div class=""stimulus-container""><img src=""images/causal_sequence/coin_causal/coin_causal_6.png"" class=""exp-image""></div>","null","","","","","","","","","","","",""
"","","","","","html-button-response","246","672844","0.0-246.0","749","","<div class=""stimulus-container""><img src=""images/causal_sequence/coin_causal/coin_causal_6.png"" class=""exp-image""><div class=""question-area""><b>Is there a person?</b></div></div>","0","person_check","coin_causal","6","","","","","","","","",""
"","","","","","html-keyboard-response","247","676854","0.0-247.0","null","","<div class=""stimulus-container""><img src=""images/causal_sequence/coin_causal/coin_causal_7.png"" class=""exp-image""></div>","null","","","","","","","","","","","",""
"","","","","","html-button-response","248","678672","0.0-248.0","1816","","<div class=""stimulus-container""><img src=""images/causal_sequence/coin_causal/coin_causal_7.png"" class=""exp-image""><div class=""question-area""><b>Is there a person?</b></div></div>","1","person_check","coin_causal","7","","","","","","","","",""
"","","","","","html-keyboard-response","249","682686","0.0-249.0","null","","<div class=""stimulus-container""><img src=""images/causal_sequence/coin_causal/coin_causal_8.png"" class=""exp-image""></div>","null","","","","","","","","","","","",""
"","","","","","html-button-response","250","683939","0.0-250.0","1251","","<div class=""stimulus-container""><img src=""images/causal_sequence/coin_causal/coin_causal_8.png"" class=""exp-image""><div class=""question-area""><b>Is there a person?</b></div></div>","0","person_check","coin_causal","8","","","","","","","","",""
"","","","","","html-keyboard-response","251","687954","0.0-251.0","null","","<div class=""stimulus-container""><img src=""images/causal_sequence/coin_causal/coin_causal_9.png"" class=""exp-image""></div>","null","","","","","","","","","","","",""
"","","","","","html-button-response","252","688556","0.0-252.0","600","","<div class=""stimulus-container""><img src=""images/causal_sequence/coin_causal/coin_causal_9.png"" class=""exp-image""><div class=""question-area""><b>Is there a person?</b></div></div>","0","person_check","coin_causal","9","","","","","","","","",""
"","","","","","html-keyboard-response","253","692568","0.0-253.0","null","","<div class=""stimulus-container""><img src=""images/causal_sequence/coin_causal/coin_causal_ten.png"" class=""exp-image""></div>","null","","","","","","","","","","","",""
"","","","","","html-button-response","254","693478","0.0-254.0","908","","<div class=""stimulus-container""><img src=""images/causal_sequence/coin_causal/coin_causal_ten.png"" class=""exp-image""><div class=""question-area""><b>Is there a person?</b></div></div>","0","person_check","coin_causal","10","","","","","","","","",""
"","","","","","html-keyboard-response","255","696493","0.0-255.0","null","","<div style=""background-color: white; width: 100vw; height: 100vh;""></div>","null","","","","","","","","","","","",""
"","","","","","html-keyboard-response","256","700507","0.0-256.0","null","","<div class=""stimulus-container""><img src=""images/causal_sequence/museum_causal/museum_causal_1.png"" class=""exp-image""></div>","null","","","","","","","","","","","",""
"","","","","","html-button-response","257","701261","0.0-257.0","752","","<div class=""stimulus-container""><img src=""images/causal_sequence/museum_causal/museum_causal_1.png"" class=""exp-image""><div class=""question-area""><b>Is there a person?</b></div></div>","0","person_check","museum_causal","1","","","","","","","","",""
"","","","","","html-keyboard-response","258","705263","0.0-258.0","null","","<div class=""stimulus-container""><img src=""images/causal_sequence/museum_causal/museum_causal_2.png"" class=""exp-image""></div>","null","","","","","","","","","","","",""
"","","","","","html-button-response","259","706298","0.0-259.0","1033","","<div class=""stimulus-container""><img src=""images/causal_sequence/museum_causal/museum_causal_2.png"" class=""exp-image""><div class=""question-area""><b>Is there a person?</b></div></div>","0","person_check","museum_causal","2","","","","","","","","",""
"","","","","","html-keyboard-response","260","710306","0.0-260.0","null","","<div class=""stimulus-container""><img src=""images/causal_sequence/museum_causal/museum_causal_3.png"" class=""exp-image""></div>","null","","","","","","","","","","","",""
"","","","","","html-button-response","261","711933","0.0-261.0","1625","","<div class=""stimulus-container""><img src=""images/causal_sequence/museum_causal/museum_causal_3.png"" class=""exp-image""><div class=""question-area""><b>Is there a person?</b></div></div>","0","person_check","museum_causal","3","","","","","","","","",""
"","","","","","html-keyboard-response","262","715939","0.0-262.0","null","","<div class=""stimulus-container""><img src=""images/causal_sequence/museum_causal/museum_causal_4.png"" class=""exp-image""></div>","null","","","","","","","","","","","",""
"","","","","","html-button-response","263","716724","0.0-263.0","784","","<div class=""stimulus-container""><img src=""images/causal_sequence/museum_causal/museum_causal_4.png"" class=""exp-image""><div class=""question-area""><b>Is there a person?</b></div></div>","1","person_check","museum_causal","4","","","","","","","","",""
"","","","","","html-keyboard-response","264","720731","0.0-264.0","null","","<div class=""stimulus-container""><img src=""images/causal_sequence/museum_causal/museum_causal_5.png"" class=""exp-image""></div>","null","","","","","","","","","","","",""
"","","","","","html-button-response","265","721458","0.0-265.0","725","","<div class=""stimulus-container""><img src=""images/causal_sequence/museum_causal/museum_causal_5.png"" class=""exp-image""><div class=""question-area""><b>Is there a person?</b></div></div>","0","person_check","museum_causal","5","","","","","","","","",""
"","","","","","html-keyboard-response","266","725471","0.0-266.0","null","","<div class=""stimulus-container""><img src=""images/causal_sequence/museum_causal/museum_causal_6.png"" class=""exp-image""></div>","null","","","","","","","","","","","",""
"","","","","","html-button-response","267","726527","0.0-267.0","1054","","<div class=""stimulus-container""><img src=""images/causal_sequence/museum_causal/museum_causal_6.png"" class=""exp-image""><div class=""question-area""><b>Is there a person?</b></div></div>","0","person_check","museum_causal","6","","","","","","","","",""
"","","","","","html-keyboard-response","268","730533","0.0-268.0","null","","<div class=""stimulus-container""><img src=""images/causal_sequence/museum_causal/museum_causal_7.png"" class=""exp-image""></div>","null","","","","","","","","","","","",""
"","","","","","html-button-response","269","731523","0.0-269.0","988","","<div class=""stimulus-container""><img src=""images/causal_sequence/museum_causal/museum_causal_7.png"" class=""exp-image""><div class=""question-area""><b>Is there a person?</b></div></div>","1","person_check","museum_causal","7","","","","","","","","",""
"","","","","","html-keyboard-response","270","735531","0.0-270.0","null","","<div class=""stimulus-container""><img src=""images/causal_sequence/museum_causal/museum_causal_8.png"" class=""exp-image""></div>","null","","","","","","","","","","","",""
"","","","","","html-button-response","271","738038","0.0-271.0","2506","","<div class=""stimulus-container""><img src=""images/causal_sequence/museum_causal/museum_causal_8.png"" class=""exp-image""><div class=""question-area""><b>Is there a person?</b></div></div>","0","person_check","museum_causal","8","","","","","","","","",""
"","","","","","html-keyboard-response","272","742041","0.0-272.0","null","","<div class=""stimulus-container""><img src=""images/causal_sequence/museum_causal/museum_causal_9.png"" class=""exp-image""></div>","null","","","","","","","","","","","",""
"","","","","","html-button-response","273","742861","0.0-273.0","819","","<div class=""stimulus-container""><img src=""images/causal_sequence/museum_causal/museum_causal_9.png"" class=""exp-image""><div class=""question-area""><b>Is there a person?</b></div></div>","1","person_check","museum_causal","9","","","","","","","","",""
"","","","","","html-keyboard-response","274","746866","0.0-274.0","null","","<div class=""stimulus-container""><img src=""images/causal_sequence/museum_causal/museum_causal_ten.png"" class=""exp-image""></div>","null","","","","","","","","","","","",""
"","","","","","html-button-response","275","747579","0.0-275.0","711","","<div class=""stimulus-container""><img src=""images/causal_sequence/museum_causal/museum_causal_ten.png"" class=""exp-image""><div class=""question-area""><b>Is there a person?</b></div></div>","0","person_check","museum_causal","10","","","","","","","","",""
"","","","","","html-keyboard-response","276","750580","0.0-276.0","null","","<div style=""background-color: white; width: 100vw; height: 100vh;""></div>","null","","","","","","","","","","","",""
"","","","","","html-keyboard-response","277","754588","0.0-277.0","null","","<div class=""stimulus-container""><img src=""images/schematic_sequence/supermarket_scheme/supermarket_scheme_1.png"" class=""exp-image""></div>","null","","","","","","","","","","","",""
"","","","","","html-button-response","278","758975","0.0-278.0","4386","","<div class=""stimulus-container""><img src=""images/schematic_sequence/supermarket_scheme/supermarket_scheme_1.png"" class=""exp-image""><div class=""question-area""><b>Is there a person?</b></div></div>","1","person_check","supermarket_scheme","1","","","","","","","","",""
"","","","","","html-keyboard-response","279","762980","0.0-279.0","null","","<div class=""stimulus-container""><img src=""images/schematic_sequence/supermarket_scheme/supermarket_scheme_2.png"" class=""exp-image""></div>","null","","","","","","","","","","","",""
"","","","","","html-button-response","280","763856","0.0-280.0","875","","<div class=""stimulus-container""><img src=""images/schematic_sequence/supermarket_scheme/supermarket_scheme_2.png"" class=""exp-image""><div class=""question-area""><b>Is there a person?</b></div></div>","1","person_check","supermarket_scheme","2","","","","","","","","",""
"","","","","","html-keyboard-response","281","767873","0.0-281.0","null","","<div class=""stimulus-container""><img src=""images/schematic_sequence/supermarket_scheme/supermarket_scheme_3.png"" class=""exp-image""></div>","null","","","","","","","","","","","",""
"","","","","","html-button-response","282","769127","0.0-282.0","1252","","<div class=""stimulus-container""><img src=""images/schematic_sequence/supermarket_scheme/supermarket_scheme_3.png"" class=""exp-image""><div class=""question-area""><b>Is there a person?</b></div></div>","1","person_check","supermarket_scheme","3","","","","","","","","",""
"","","","","","html-keyboard-response","283","773129","0.0-283.0","null","","<div class=""stimulus-container""><img src=""images/schematic_sequence/supermarket_scheme/supermarket_scheme_4.png"" class=""exp-image""></div>","null","","","","","","","","","","","",""
"","","","","","html-button-response","284","774323","0.0-284.0","1193","","<div class=""stimulus-container""><img src=""images/schematic_sequence/supermarket_scheme/supermarket_scheme_4.png"" class=""exp-image""><div class=""question-area""><b>Is there a person?</b></div></div>","0","person_check","supermarket_scheme","4","","","","","","","","",""
"","","","","","html-keyboard-response","285","778333","0.0-285.0","null","","<div class=""stimulus-container""><img src=""images/schematic_sequence/supermarket_scheme/supermarket_scheme_5.png"" class=""exp-image""></div>","null","","","","","","","","","","","",""
"","","","","","html-button-response","286","781969","0.0-286.0","3635","","<div class=""stimulus-container""><img src=""images/schematic_sequence/supermarket_scheme/supermarket_scheme_5.png"" class=""exp-image""><div class=""question-area""><b>Is there a person?</b></div></div>","1","person_check","supermarket_scheme","5","","","","","","","","",""
"","","","","","html-keyboard-response","287","785975","0.0-287.0","null","","<div class=""stimulus-container""><img src=""images/schematic_sequence/supermarket_scheme/supermarket_scheme_6.png"" class=""exp-image""></div>","null","","","","","","","","","","","",""
"","","","","","html-button-response","288","786732","0.0-288.0","755","","<div class=""stimulus-container""><img src=""images/schematic_sequence/supermarket_scheme/supermarket_scheme_6.png"" class=""exp-image""><div class=""question-area""><b>Is there a person?</b></div></div>","0","person_check","supermarket_scheme","6","","","","","","","","",""
"","","","","","html-keyboard-response","289","790737","0.0-289.0","null","","<div class=""stimulus-container""><img src=""images/schematic_sequence/supermarket_scheme/supermarket_scheme_7.png"" class=""exp-image""></div>","null","","","","","","","","","","","",""
"","","","","","html-button-response","290","796486","0.0-290.0","5750","","<div class=""stimulus-container""><img src=""images/schematic_sequence/supermarket_scheme/supermarket_scheme_7.png"" class=""exp-image""><div class=""question-area""><b>Is there a person?</b></div></div>","0","person_check","supermarket_scheme","7","","","","","","","","",""
"","","","","","html-keyboard-response","291","800497","0.0-291.0","null","","<div class=""stimulus-container""><img src=""images/schematic_sequence/supermarket_scheme/supermarket_scheme_8.png"" class=""exp-image""></div>","null","","","","","","","","","","","",""
"","","","","","html-button-response","292","805292","0.0-292.0","4793","","<div class=""stimulus-container""><img src=""images/schematic_sequence/supermarket_scheme/supermarket_scheme_8.png"" class=""exp-image""><div class=""question-area""><b>Is there a person?</b></div></div>","0","person_check","supermarket_scheme","8","","","","","","","","",""
"","","","","","html-keyboard-response","293","809308","0.0-293.0","null","","<div class=""stimulus-container""><img src=""images/schematic_sequence/supermarket_scheme/supermarket_scheme_9.png"" class=""exp-image""></div>","null","","","","","","","","","","","",""
"","","","","","html-button-response","294","813897","0.0-294.0","4587","","<div class=""stimulus-container""><img src=""images/schematic_sequence/supermarket_scheme/supermarket_scheme_9.png"" class=""exp-image""><div class=""question-area""><b>Is there a person?</b></div></div>","0","person_check","supermarket_scheme","9","","","","","","","","",""
"","","","","","html-keyboard-response","295","817911","0.0-295.0","null","","<div class=""stimulus-container""><img src=""images/schematic_sequence/supermarket_scheme/supermarket_scheme_ten.png"" class=""exp-image""></div>","null","","","","","","","","","","","",""
"","","","","","html-button-response","296","821938","0.0-296.0","4025","","<div class=""stimulus-container""><img src=""images/schematic_sequence/supermarket_scheme/supermarket_scheme_ten.png"" class=""exp-image""><div class=""question-area""><b>Is there a person?</b></div></div>","1","person_check","supermarket_scheme","10","","","","","","","","",""
"","","","","","html-keyboard-response","297","824944","0.0-297.0","null","","<div style=""background-color: white; width: 100vw; height: 100vh;""></div>","null","","","","","","","","","","","",""
"","","","","","html-keyboard-response","298","828946","0.0-298.0","null","","<div class=""stimulus-container""><img src=""images/schematic_sequence/interview_scheme/interview_scheme_1.png"" class=""exp-image""></div>","null","","","","","","","","","","","",""
"","","","","","html-button-response","299","829152","0.0-299.0","205","","<div class=""stimulus-container""><img src=""images/schematic_sequence/interview_scheme/interview_scheme_1.png"" class=""exp-image""><div class=""question-area""><b>Is there a person?</b></div></div>","1","person_check","interview_scheme","1","","","","","","","","",""
"","","","","","html-keyboard-response","300","833158","0.0-300.0","null","","<div class=""stimulus-container""><img src=""images/schematic_sequence/interview_scheme/interview_scheme_2.png"" class=""exp-image""></div>","null","","","","","","","","","","","",""
"","","","","","html-button-response","301","833909","0.0-301.0","750","","<div class=""stimulus-container""><img src=""images/schematic_sequence/interview_scheme/interview_scheme_2.png"" class=""exp-image""><div class=""question-area""><b>Is there a person?</b></div></div>","0","person_check","interview_scheme","2","","","","","","","","",""
"","","","","","html-keyboard-response","302","837926","0.0-302.0","null","","<div class=""stimulus-container""><img src=""images/schematic_sequence/interview_scheme/interview_scheme_3.png"" class=""exp-image""></div>","null","","","","","","","","","","","",""
"","","","","","html-button-response","303","838889","0.0-303.0","961","","<div class=""stimulus-container""><img src=""images/schematic_sequence/interview_scheme/interview_scheme_3.png"" class=""exp-image""><div class=""question-area""><b>Is there a person?</b></div></div>","1","person_check","interview_scheme","3","","","","","","","","",""
"","","","","","html-keyboard-response","304","842897","0.0-304.0","null","","<div class=""stimulus-container""><img src=""images/schematic_sequence/interview_scheme/interview_scheme_4.png"" class=""exp-image""></div>","null","","","","","","","","","","","",""
"","","","","","html-button-response","305","843615","0.0-305.0","716","","<div class=""stimulus-container""><img src=""images/schematic_sequence/interview_scheme/interview_scheme_4.png"" class=""exp-image""><div class=""question-area""><b>Is there a person?</b></div></div>","1","person_check","interview_scheme","4","","","","","","","","",""
"","","","","","html-keyboard-response","306","847618","0.0-306.0","null","","<div class=""stimulus-container""><img src=""images/schematic_sequence/interview_scheme/interview_scheme_5.png"" class=""exp-image""></div>","null","","","","","","","","","","","",""
"","","","","","html-button-response","307","849014","0.0-307.0","1395","","<div class=""stimulus-container""><img src=""images/schematic_sequence/interview_scheme/interview_scheme_5.png"" class=""exp-image""><div class=""question-area""><b>Is there a person?</b></div></div>","0","person_check","interview_scheme","5","","","","","","","","",""
"","","","","","html-keyboard-response","308","853030","0.0-308.0","null","","<div class=""stimulus-container""><img src=""images/schematic_sequence/interview_scheme/interview_scheme_6.png"" class=""exp-image""></div>","null","","","","","","","","","","","",""
"","","","","","html-button-response","309","854235","0.0-309.0","1203","","<div class=""stimulus-container""><img src=""images/schematic_sequence/interview_scheme/interview_scheme_6.png"" class=""exp-image""><div class=""question-area""><b>Is there a person?</b></div></div>","0","person_check","interview_scheme","6","","","","","","","","",""
"","","","","","html-keyboard-response","310","858251","0.0-310.0","null","","<div class=""stimulus-container""><img src=""images/schematic_sequence/interview_scheme/interview_scheme_7.png"" class=""exp-image""></div>","null","","","","","","","","","","","",""
"","","","","","html-button-response","311","858823","0.0-311.0","570","","<div class=""stimulus-container""><img src=""images/schematic_sequence/interview_scheme/interview_scheme_7.png"" class=""exp-image""><div class=""question-area""><b>Is there a person?</b></div></div>","0","person_check","interview_scheme","7","","","","","","","","",""
"","","","","","html-keyboard-response","312","862836","0.0-312.0","null","","<div class=""stimulus-container""><img src=""images/schematic_sequence/interview_scheme/interview_scheme_8.png"" class=""exp-image""></div>","null","","","","","","","","","","","",""
"","","","","","html-button-response","313","863687","0.0-313.0","849","","<div class=""stimulus-container""><img src=""images/schematic_sequence/interview_scheme/interview_scheme_8.png"" class=""exp-image""><div class=""question-area""><b>Is there a person?</b></div></div>","0","person_check","interview_scheme","8","","","","","","","","",""
"","","","","","html-keyboard-response","314","867698","0.0-314.0","null","","<div class=""stimulus-container""><img src=""images/schematic_sequence/interview_scheme/interview_scheme_9.png"" class=""exp-image""></div>","null","","","","","","","","","","","",""
"","","","","","html-button-response","315","868520","0.0-315.0","819","","<div class=""stimulus-container""><img src=""images/schematic_sequence/interview_scheme/interview_scheme_9.png"" class=""exp-image""><div class=""question-area""><b>Is there a person?</b></div></div>","0","person_check","interview_scheme","9","","","","","","","","",""
"","","","","","html-keyboard-response","316","872525","0.0-316.0","null","","<div class=""stimulus-container""><img src=""images/schematic_sequence/interview_scheme/interview_scheme_ten.png"" class=""exp-image""></div>","null","","","","","","","","","","","",""
"","","","","","html-button-response","317","873392","0.0-317.0","865","","<div class=""stimulus-container""><img src=""images/schematic_sequence/interview_scheme/interview_scheme_ten.png"" class=""exp-image""><div class=""question-area""><b>Is there a person?</b></div></div>","0","person_check","interview_scheme","10","","","","","","","","",""
"","","","","","html-keyboard-response","318","876405","0.0-318.0","null","","<div style=""background-color: white; width: 100vw; height: 100vh;""></div>","null","","","","","","","","","","","",""
"","","","","","html-keyboard-response","319","880416","0.0-319.0","null","","<div class=""stimulus-container""><img src=""images/causal_sequence/saving_a_cat_causal/saving_a_cat_causal_1.png"" class=""exp-image""></div>","null","","","","","","","","","","","",""
"","","","","","html-button-response","320","881320","0.0-320.0","903","","<div class=""stimulus-container""><img src=""images/causal_sequence/saving_a_cat_causal/saving_a_cat_causal_1.png"" class=""exp-image""><div class=""question-area""><b>Is there a person?</b></div></div>","0","person_check","saving_a_cat_causal","1","","","","","","","","",""
"","","","","","html-keyboard-response","321","885336","0.0-321.0","null","","<div class=""stimulus-container""><img src=""images/causal_sequence/saving_a_cat_causal/saving_a_cat_causal_2.png"" class=""exp-image""></div>","null","","","","","","","","","","","",""
"","","","","","html-button-response","322","887288","0.0-322.0","1950","","<div class=""stimulus-container""><img src=""images/causal_sequence/saving_a_cat_causal/saving_a_cat_causal_2.png"" class=""exp-image""><div class=""question-area""><b>Is there a person?</b></div></div>","1","person_check","saving_a_cat_causal","2","","","","","","","","",""
"","","","","","html-keyboard-response","323","891300","0.0-323.0","null","","<div class=""stimulus-container""><img src=""images/causal_sequence/saving_a_cat_causal/saving_a_cat_causal_3.png"" class=""exp-image""></div>","null","","","","","","","","","","","",""
"","","","","","html-button-response","324","891972","0.0-324.0","670","","<div class=""stimulus-container""><img src=""images/causal_sequence/saving_a_cat_causal/saving_a_cat_causal_3.png"" class=""exp-image""><div class=""question-area""><b>Is there a person?</b></div></div>","1","person_check","saving_a_cat_causal","3","","","","","","","","",""
"","","","","","html-keyboard-response","325","895984","0.0-325.0","null","","<div class=""stimulus-container""><img src=""images/causal_sequence/saving_a_cat_causal/saving_a_cat_causal_4.png"" class=""exp-image""></div>","null","","","","","","","","","","","",""
"","","","","","html-button-response","326","896571","0.0-326.0","586","","<div class=""stimulus-container""><img src=""images/causal_sequence/saving_a_cat_causal/saving_a_cat_causal_4.png"" class=""exp-image""><div class=""question-area""><b>Is there a person?</b></div></div>","0","person_check","saving_a_cat_causal","4","","","","","","","","",""
"","","","","","html-keyboard-response","327","900587","0.0-327.0","null","","<div class=""stimulus-container""><img src=""images/causal_sequence/saving_a_cat_causal/saving_a_cat_causal_5.png"" class=""exp-image""></div>","null","","","","","","","","","","","",""
