"success","timeout","failed_images","failed_audio","failed_video","trial_type","trial_index","time_elapsed","internal_node_id","subject_id","study_id","session_id","view_history","rt","stimulus","response","task","image_index","folder","sequence_type","valuable_image_index","reward_type","correct_choice","chosen_image_index","target_X"
"true","false","[]","[]","[]","preload","0","103649","0.0-0.0","480624F7D2124687AD60694DFA6D7702","019cf516-970d-7ebf-86b9-d06715add293","019cf509-e3f1-72d9-bf6b-e2f1118fdaab","","","","","","","","","","","","",""
"","","","","","instructions","1","108237","0.0-1.0","480624F7D2124687AD60694DFA6D7702","019cf516-970d-7ebf-86b9-d06715add293","019cf509-e3f1-72d9-bf6b-e2f1118fdaab","[{""page_index"":0,""viewing_time"":4585}]","4586","","","","","","","","","","",""
"","","","","","instructions","2","110863","0.0-2.0","480624F7D2124687AD60694DFA6D7702","019cf516-970d-7ebf-86b9-d06715add293","019cf509-e3f1-72d9-bf6b-e2f1118fdaab","[{""page_index"":0,""viewing_time"":2625}]","2626","","","","","","","","","","",""
"true","","","","","fullscreen","3","113994","0.0-3.0","480624F7D2124687AD60694DFA6D7702","019cf516-970d-7ebf-86b9-d06715add293","019cf509-e3f1-72d9-bf6b-e2f1118fdaab","","2115","","","","","","","","","","",""
"","","","","","instructions","4","140361","0.0-4.0","480624F7D2124687AD60694DFA6D7702","019cf516-970d-7ebf-86b9-d06715add293","019cf509-e3f1-72d9-bf6b-e2f1118fdaab","[{""page_index"":0,""viewing_time"":26366}]","26366","","","","","","","","","","",""
"","","","","","instructions","5","150593","0.0-5.0","480624F7D2124687AD60694DFA6D7702","019cf516-970d-7ebf-86b9-d06715add293","019cf509-e3f1-72d9-bf6b-e2f1118fdaab","[{""page_index"":0,""viewing_time"":10232}]","10232","","","","","","","","","","",""
"","","","","","html-keyboard-response","6","154608","0.0-6.0","480624F7D2124687AD60694DFA6D7702","019cf516-970d-7ebf-86b9-d06715add293","019cf509-e3f1-72d9-bf6b-e2f1118fdaab","","null","
                <div class=""stimulus-container"">
                    <img src=""images/instructions/movie_1.png"" class=""exp-image"">
                    <div class=""question-area""></div> 
                </div>","null","","","","","","","","",""
"","","","","","html-button-response","7","156203","0.0-7.0","480624F7D2124687AD60694DFA6D7702","019cf516-970d-7ebf-86b9-d06715add293","019cf509-e3f1-72d9-bf6b-e2f1118fdaab","","1593","
                <div class=""stimulus-container"">
                    <img src=""images/instructions/movie_1.png"" class=""exp-image"">
                    <div class=""question-area"">
                        <p style=""font-size: 20px; font-weight: bold; margin: 0;"">Was there a person in this image?</p>
                    </div>
                </div>","0","example_question","1","","","","","","",""
"","","","","","html-keyboard-response","8","160213","0.0-8.0","480624F7D2124687AD60694DFA6D7702","019cf516-970d-7ebf-86b9-d06715add293","019cf509-e3f1-72d9-bf6b-e2f1118fdaab","","null","
                <div class=""stimulus-container"">
                    <img src=""images/instructions/movie_2.png"" class=""exp-image"">
                    <div class=""question-area""></div> 
                </div>","null","","","","","","","","",""
"","","","","","html-button-response","9","161686","0.0-9.0","480624F7D2124687AD60694DFA6D7702","019cf516-970d-7ebf-86b9-d06715add293","019cf509-e3f1-72d9-bf6b-e2f1118fdaab","","1471","
                <div class=""stimulus-container"">
                    <img src=""images/instructions/movie_2.png"" class=""exp-image"">
                    <div class=""question-area"">
                        <p style=""font-size: 20px; font-weight: bold; margin: 0;"">Was there a person in this image?</p>
                    </div>
                </div>","0","example_question","2","","","","","","",""
"","","","","","html-keyboard-response","10","165695","0.0-10.0","480624F7D2124687AD60694DFA6D7702","019cf516-970d-7ebf-86b9-d06715add293","019cf509-e3f1-72d9-bf6b-e2f1118fdaab","","null","
                <div class=""stimulus-container"">
                    <img src=""images/instructions/movie_3.png"" class=""exp-image"">
                    <div class=""question-area""></div> 
                </div>","null","","","","","","","","",""
"","","","","","html-button-response","11","166705","0.0-11.0","480624F7D2124687AD60694DFA6D7702","019cf516-970d-7ebf-86b9-d06715add293","019cf509-e3f1-72d9-bf6b-e2f1118fdaab","","1009","
                <div class=""stimulus-container"">
                    <img src=""images/instructions/movie_3.png"" class=""exp-image"">
                    <div class=""question-area"">
                        <p style=""font-size: 20px; font-weight: bold; margin: 0;"">Was there a person in this image?</p>
                    </div>
                </div>","0","example_question","3","","","","","","",""
"","","","","","html-keyboard-response","12","170716","0.0-12.0","480624F7D2124687AD60694DFA6D7702","019cf516-970d-7ebf-86b9-d06715add293","019cf509-e3f1-72d9-bf6b-e2f1118fdaab","","null","
                <div class=""stimulus-container"">
                    <img src=""images/instructions/movie_4.png"" class=""exp-image"">
                    <div class=""question-area""></div> 
                </div>","null","","","","","","","","",""
"","","","","","html-button-response","13","172249","0.0-13.0","480624F7D2124687AD60694DFA6D7702","019cf516-970d-7ebf-86b9-d06715add293","019cf509-e3f1-72d9-bf6b-e2f1118fdaab","","1532","
                <div class=""stimulus-container"">
                    <img src=""images/instructions/movie_4.png"" class=""exp-image"">
                    <div class=""question-area"">
                        <p style=""font-size: 20px; font-weight: bold; margin: 0;"">Was there a person in this image?</p>
                    </div>
                </div>","0","example_question","4","","","","","","",""
"","","","","","instructions","14","206413","0.0-14.0","480624F7D2124687AD60694DFA6D7702","019cf516-970d-7ebf-86b9-d06715add293","019cf509-e3f1-72d9-bf6b-e2f1118fdaab","[{""page_index"":0,""viewing_time"":34164}]","34164","","","","","","","","","","",""
"","","","","","instructions","15","222657","0.0-15.0","480624F7D2124687AD60694DFA6D7702","019cf516-970d-7ebf-86b9-d06715add293","019cf509-e3f1-72d9-bf6b-e2f1118fdaab","[{""page_index"":0,""viewing_time"":16243}]","16243","","","","","","","","","","",""
"","","","","","html-keyboard-response","16","223664","0.0-16.0","480624F7D2124687AD60694DFA6D7702","019cf516-970d-7ebf-86b9-d06715add293","019cf509-e3f1-72d9-bf6b-e2f1118fdaab","","null","<div style=""background-color: white; width: 100vw; height: 100vh;""></div>","null","","","","","","","","",""
"","","","","","html-keyboard-response","17","228681","0.0-17.0","480624F7D2124687AD60694DFA6D7702","019cf516-970d-7ebf-86b9-d06715add293","019cf509-e3f1-72d9-bf6b-e2f1118fdaab","","null","
                <div class=""stimulus-container"">
                    <img src=""images/causal_sequence/package_causal/package_causal_1.png"" class=""exp-image"">
                    <div class=""question-area""></div> 
                </div>","null","","","","","","","","",""
"","","","","","html-button-response","18","229959","0.0-18.0","480624F7D2124687AD60694DFA6D7702","019cf516-970d-7ebf-86b9-d06715add293","019cf509-e3f1-72d9-bf6b-e2f1118fdaab","","1277","
                <div class=""stimulus-container"">
                    <img src=""images/causal_sequence/package_causal/package_causal_1.png"" class=""exp-image"">
                    <div class=""question-area"">
                        <p style=""font-size: 20px; font-weight: bold; margin: 0;"">Is there a person in this image?</p>
                    </div>
                </div>","0","main_experiment_trial","1","package_causal","causal_sequence","","","","",""
"","","","","","html-keyboard-response","19","234966","0.0-19.0","480624F7D2124687AD60694DFA6D7702","019cf516-970d-7ebf-86b9-d06715add293","019cf509-e3f1-72d9-bf6b-e2f1118fdaab","","null","
                <div class=""stimulus-container"">
                    <img src=""images/causal_sequence/package_causal/package_causal_2.png"" class=""exp-image"">
                    <div class=""question-area""></div> 
                </div>","null","","","","","","","","",""
"","","","","","html-button-response","20","235699","0.0-20.0","480624F7D2124687AD60694DFA6D7702","019cf516-970d-7ebf-86b9-d06715add293","019cf509-e3f1-72d9-bf6b-e2f1118fdaab","","732","
                <div class=""stimulus-container"">
                    <img src=""images/causal_sequence/package_causal/package_causal_2.png"" class=""exp-image"">
                    <div class=""question-area"">
                        <p style=""font-size: 20px; font-weight: bold; margin: 0;"">Is there a person in this image?</p>
                    </div>
                </div>","0","main_experiment_trial","2","package_causal","causal_sequence","","","","",""
"","","","","","html-keyboard-response","21","240701","0.0-21.0","480624F7D2124687AD60694DFA6D7702","019cf516-970d-7ebf-86b9-d06715add293","019cf509-e3f1-72d9-bf6b-e2f1118fdaab","","null","
                <div class=""stimulus-container"">
                    <img src=""images/causal_sequence/package_causal/package_causal_3.png"" class=""exp-image"">
                    <div class=""question-area""></div> 
                </div>","null","","","","","","","","",""
"","","","","","html-button-response","22","242000","0.0-22.0","480624F7D2124687AD60694DFA6D7702","019cf516-970d-7ebf-86b9-d06715add293","019cf509-e3f1-72d9-bf6b-e2f1118fdaab","","1297","
                <div class=""stimulus-container"">
                    <img src=""images/causal_sequence/package_causal/package_causal_3.png"" class=""exp-image"">
                    <div class=""question-area"">
                        <p style=""font-size: 20px; font-weight: bold; margin: 0;"">Is there a person in this image?</p>
                    </div>
                </div>","0","main_experiment_trial","3","package_causal","causal_sequence","","","","",""
"","","","","","html-keyboard-response","23","247015","0.0-23.0","480624F7D2124687AD60694DFA6D7702","019cf516-970d-7ebf-86b9-d06715add293","019cf509-e3f1-72d9-bf6b-e2f1118fdaab","","null","
                <div class=""stimulus-container"">
                    <img src=""images/causal_sequence/package_causal/package_causal_4.png"" class=""exp-image"">
                    <div class=""question-area""></div> 
                </div>","null","","","","","","","","",""
"","","","","","html-button-response","24","247696","0.0-24.0","480624F7D2124687AD60694DFA6D7702","019cf516-970d-7ebf-86b9-d06715add293","019cf509-e3f1-72d9-bf6b-e2f1118fdaab","","680","
                <div class=""stimulus-container"">
                    <img src=""images/causal_sequence/package_causal/package_causal_4.png"" class=""exp-image"">
                    <div class=""question-area"">
                        <p style=""font-size: 20px; font-weight: bold; margin: 0;"">Is there a person in this image?</p>
                    </div>
                </div>","1","main_experiment_trial","4","package_causal","causal_sequence","","","","",""
"","","","","","html-keyboard-response","25","252705","0.0-25.0","480624F7D2124687AD60694DFA6D7702","019cf516-970d-7ebf-86b9-d06715add293","019cf509-e3f1-72d9-bf6b-e2f1118fdaab","","null","
                <div class=""stimulus-container"">
                    <img src=""images/causal_sequence/package_causal/package_causal_5.png"" class=""exp-image"">
                    <div class=""question-area""></div> 
                </div>","null","","","","","","","","",""
"","","","","","html-button-response","26","253227","0.0-26.0","480624F7D2124687AD60694DFA6D7702","019cf516-970d-7ebf-86b9-d06715add293","019cf509-e3f1-72d9-bf6b-e2f1118fdaab","","521","
                <div class=""stimulus-container"">
                    <img src=""images/causal_sequence/package_causal/package_causal_5.png"" class=""exp-image"">
                    <div class=""question-area"">
                        <p style=""font-size: 20px; font-weight: bold; margin: 0;"">Is there a person in this image?</p>
                    </div>
                </div>","0","main_experiment_trial","5","package_causal","causal_sequence","","","","",""
"","","","","","html-keyboard-response","27","258243","0.0-27.0","480624F7D2124687AD60694DFA6D7702","019cf516-970d-7ebf-86b9-d06715add293","019cf509-e3f1-72d9-bf6b-e2f1118fdaab","","null","
                <div class=""stimulus-container"">
                    <img src=""images/causal_sequence/package_causal/package_causal_6.png"" class=""exp-image"">
                    <div class=""question-area""></div> 
                </div>","null","","","","","","","","",""
"","","","","","html-button-response","28","258827","0.0-28.0","480624F7D2124687AD60694DFA6D7702","019cf516-970d-7ebf-86b9-d06715add293","019cf509-e3f1-72d9-bf6b-e2f1118fdaab","","582","
                <div class=""stimulus-container"">
                    <img src=""images/causal_sequence/package_causal/package_causal_6.png"" class=""exp-image"">
                    <div class=""question-area"">
                        <p style=""font-size: 20px; font-weight: bold; margin: 0;"">Is there a person in this image?</p>
                    </div>
                </div>","0","main_experiment_trial","6","package_causal","causal_sequence","","","","",""
"","","","","","html-keyboard-response","29","263834","0.0-29.0","480624F7D2124687AD60694DFA6D7702","019cf516-970d-7ebf-86b9-d06715add293","019cf509-e3f1-72d9-bf6b-e2f1118fdaab","","null","
                <div class=""stimulus-container"">
                    <img src=""images/causal_sequence/package_causal/package_causal_7.png"" class=""exp-image"">
                    <div class=""question-area""></div> 
                </div>","null","","","","","","","","",""
"","","","","","html-button-response","30","264852","0.0-30.0","480624F7D2124687AD60694DFA6D7702","019cf516-970d-7ebf-86b9-d06715add293","019cf509-e3f1-72d9-bf6b-e2f1118fdaab","","1017","
                <div class=""stimulus-container"">
                    <img src=""images/causal_sequence/package_causal/package_causal_7.png"" class=""exp-image"">
                    <div class=""question-area"">
                        <p style=""font-size: 20px; font-weight: bold; margin: 0;"">Is there a person in this image?</p>
                    </div>
                </div>","0","main_experiment_trial","7","package_causal","causal_sequence","","","","",""
"","","","","","html-keyboard-response","31","269860","0.0-31.0","480624F7D2124687AD60694DFA6D7702","019cf516-970d-7ebf-86b9-d06715add293","019cf509-e3f1-72d9-bf6b-e2f1118fdaab","","null","
                <div class=""stimulus-container"">
                    <img src=""images/causal_sequence/package_causal/package_causal_8.png"" class=""exp-image"">
                    <div class=""question-area""></div> 
                </div>","null","","","","","","","","",""
"","","","","","html-button-response","32","270753","0.0-32.0","480624F7D2124687AD60694DFA6D7702","019cf516-970d-7ebf-86b9-d06715add293","019cf509-e3f1-72d9-bf6b-e2f1118fdaab","","892","
                <div class=""stimulus-container"">
                    <img src=""images/causal_sequence/package_causal/package_causal_8.png"" class=""exp-image"">
                    <div class=""question-area"">
                        <p style=""font-size: 20px; font-weight: bold; margin: 0;"">Is there a person in this image?</p>
                    </div>
                </div>","0","main_experiment_trial","8","package_causal","causal_sequence","","","","",""
"","","","","","html-keyboard-response","33","275766","0.0-33.0","480624F7D2124687AD60694DFA6D7702","019cf516-970d-7ebf-86b9-d06715add293","019cf509-e3f1-72d9-bf6b-e2f1118fdaab","","null","
                <div class=""stimulus-container"">
                    <img src=""images/causal_sequence/package_causal/package_causal_9.png"" class=""exp-image"">
                    <div class=""question-area""></div> 
                </div>","null","","","","","","","","",""
"","","","","","html-button-response","34","276781","0.0-34.0","480624F7D2124687AD60694DFA6D7702","019cf516-970d-7ebf-86b9-d06715add293","019cf509-e3f1-72d9-bf6b-e2f1118fdaab","","1014","
                <div class=""stimulus-container"">
                    <img src=""images/causal_sequence/package_causal/package_causal_9.png"" class=""exp-image"">
                    <div class=""question-area"">
                        <p style=""font-size: 20px; font-weight: bold; margin: 0;"">Is there a person in this image?</p>
                    </div>
                </div>","0","main_experiment_trial","9","package_causal","causal_sequence","","","","",""
"","","","","","html-keyboard-response","35","281785","0.0-35.0","480624F7D2124687AD60694DFA6D7702","019cf516-970d-7ebf-86b9-d06715add293","019cf509-e3f1-72d9-bf6b-e2f1118fdaab","","null","
                <div class=""stimulus-container"">
                    <img src=""images/causal_sequence/package_causal/package_causal_ten.png"" class=""exp-image"">
                    <div class=""question-area""></div> 
                </div>","null","","","","","","","","",""
"","","","","","html-button-response","36","282379","0.0-36.0","480624F7D2124687AD60694DFA6D7702","019cf516-970d-7ebf-86b9-d06715add293","019cf509-e3f1-72d9-bf6b-e2f1118fdaab","","593","
                <div class=""stimulus-container"">
                    <img src=""images/causal_sequence/package_causal/package_causal_ten.png"" class=""exp-image"">
                    <div class=""question-area"">
                        <p style=""font-size: 20px; font-weight: bold; margin: 0;"">Is there a person in this image?</p>
                    </div>
                </div>","0","main_experiment_trial","ten","package_causal","causal_sequence","","","","",""
"","","","","","html-keyboard-response","37","283386","0.0-37.0","480624F7D2124687AD60694DFA6D7702","019cf516-970d-7ebf-86b9-d06715add293","019cf509-e3f1-72d9-bf6b-e2f1118fdaab","","null","<div style=""background-color: white; width: 100vw; height: 100vh;""></div>","null","","","","","","","","",""
"","","","","","html-keyboard-response","38","288395","0.0-38.0","480624F7D2124687AD60694DFA6D7702","019cf516-970d-7ebf-86b9-d06715add293","019cf509-e3f1-72d9-bf6b-e2f1118fdaab","","null","
                <div class=""stimulus-container"">
                    <img src=""images/schematic_sequence/interview_scheme/interview_scheme_1.png"" class=""exp-image"">
                    <div class=""question-area""></div> 
                </div>","null","","","","","","","","",""
"","","","","","html-button-response","39","289800","0.0-39.0","480624F7D2124687AD60694DFA6D7702","019cf516-970d-7ebf-86b9-d06715add293","019cf509-e3f1-72d9-bf6b-e2f1118fdaab","","1404","
                <div class=""stimulus-container"">
                    <img src=""images/schematic_sequence/interview_scheme/interview_scheme_1.png"" class=""exp-image"">
                    <div class=""question-area"">
                        <p style=""font-size: 20px; font-weight: bold; margin: 0;"">Is there a person in this image?</p>
                    </div>
                </div>","1","main_experiment_trial","1","interview_scheme","schematic_sequence","","","","",""
"","","","","","html-keyboard-response","40","294813","0.0-40.0","480624F7D2124687AD60694DFA6D7702","019cf516-970d-7ebf-86b9-d06715add293","019cf509-e3f1-72d9-bf6b-e2f1118fdaab","","null","
                <div class=""stimulus-container"">
                    <img src=""images/schematic_sequence/interview_scheme/interview_scheme_2.png"" class=""exp-image"">
                    <div class=""question-area""></div> 
                </div>","null","","","","","","","","",""
"","","","","","html-button-response","41","296056","0.0-41.0","480624F7D2124687AD60694DFA6D7702","019cf516-970d-7ebf-86b9-d06715add293","019cf509-e3f1-72d9-bf6b-e2f1118fdaab","","1243","
                <div class=""stimulus-container"">
                    <img src=""images/schematic_sequence/interview_scheme/interview_scheme_2.png"" class=""exp-image"">
                    <div class=""question-area"">
                        <p style=""font-size: 20px; font-weight: bold; margin: 0;"">Is there a person in this image?</p>
                    </div>
                </div>","1","main_experiment_trial","2","interview_scheme","schematic_sequence","","","","",""
"","","","","","html-keyboard-response","42","301063","0.0-42.0","480624F7D2124687AD60694DFA6D7702","019cf516-970d-7ebf-86b9-d06715add293","019cf509-e3f1-72d9-bf6b-e2f1118fdaab","","null","
                <div class=""stimulus-container"">
                    <img src=""images/schematic_sequence/interview_scheme/interview_scheme_3.png"" class=""exp-image"">
                    <div class=""question-area""></div> 
                </div>","null","","","","","","","","",""
"","","","","","html-button-response","43","302070","0.0-43.0","480624F7D2124687AD60694DFA6D7702","019cf516-970d-7ebf-86b9-d06715add293","019cf509-e3f1-72d9-bf6b-e2f1118fdaab","","1006","
                <div class=""stimulus-container"">
                    <img src=""images/schematic_sequence/interview_scheme/interview_scheme_3.png"" class=""exp-image"">
                    <div class=""question-area"">
                        <p style=""font-size: 20px; font-weight: bold; margin: 0;"">Is there a person in this image?</p>
                    </div>
                </div>","1","main_experiment_trial","3","interview_scheme","schematic_sequence","","","","",""
"","","","","","html-keyboard-response","44","307074","0.0-44.0","480624F7D2124687AD60694DFA6D7702","019cf516-970d-7ebf-86b9-d06715add293","019cf509-e3f1-72d9-bf6b-e2f1118fdaab","","null","
                <div class=""stimulus-container"">
                    <img src=""images/schematic_sequence/interview_scheme/interview_scheme_4.png"" class=""exp-image"">
                    <div class=""question-area""></div> 
                </div>","null","","","","","","","","",""
"","","","","","html-button-response","45","307798","0.0-45.0","480624F7D2124687AD60694DFA6D7702","019cf516-970d-7ebf-86b9-d06715add293","019cf509-e3f1-72d9-bf6b-e2f1118fdaab","","723","
                <div class=""stimulus-container"">
                    <img src=""images/schematic_sequence/interview_scheme/interview_scheme_4.png"" class=""exp-image"">
                    <div class=""question-area"">
                        <p style=""font-size: 20px; font-weight: bold; margin: 0;"">Is there a person in this image?</p>
                    </div>
                </div>","1","main_experiment_trial","4","interview_scheme","schematic_sequence","","","","",""
"","","","","","html-keyboard-response","46","312813","0.0-46.0","480624F7D2124687AD60694DFA6D7702","019cf516-970d-7ebf-86b9-d06715add293","019cf509-e3f1-72d9-bf6b-e2f1118fdaab","","null","
                <div class=""stimulus-container"">
                    <img src=""images/schematic_sequence/interview_scheme/interview_scheme_5.png"" class=""exp-image"">
                    <div class=""question-area""></div> 
                </div>","null","","","","","","","","",""
"","","","","","html-button-response","47","313516","0.0-47.0","480624F7D2124687AD60694DFA6D7702","019cf516-970d-7ebf-86b9-d06715add293","019cf509-e3f1-72d9-bf6b-e2f1118fdaab","","702","
                <div class=""stimulus-container"">
                    <img src=""images/schematic_sequence/interview_scheme/interview_scheme_5.png"" class=""exp-image"">
                    <div class=""question-area"">
                        <p style=""font-size: 20px; font-weight: bold; margin: 0;"">Is there a person in this image?</p>
                    </div>
                </div>","0","main_experiment_trial","5","interview_scheme","schematic_sequence","","","","",""
"","","","","","html-keyboard-response","48","318523","0.0-48.0","480624F7D2124687AD60694DFA6D7702","019cf516-970d-7ebf-86b9-d06715add293","019cf509-e3f1-72d9-bf6b-e2f1118fdaab","","null","
                <div class=""stimulus-container"">
                    <img src=""images/schematic_sequence/interview_scheme/interview_scheme_6.png"" class=""exp-image"">
                    <div class=""question-area""></div> 
                </div>","null","","","","","","","","",""
"","","","","","html-button-response","49","319379","0.0-49.0","480624F7D2124687AD60694DFA6D7702","019cf516-970d-7ebf-86b9-d06715add293","019cf509-e3f1-72d9-bf6b-e2f1118fdaab","","855","
                <div class=""stimulus-container"">
                    <img src=""images/schematic_sequence/interview_scheme/interview_scheme_6.png"" class=""exp-image"">
                    <div class=""question-area"">
                        <p style=""font-size: 20px; font-weight: bold; margin: 0;"">Is there a person in this image?</p>
                    </div>
                </div>","0","main_experiment_trial","6","interview_scheme","schematic_sequence","","","","",""
"","","","","","html-keyboard-response","50","324393","0.0-50.0","480624F7D2124687AD60694DFA6D7702","019cf516-970d-7ebf-86b9-d06715add293","019cf509-e3f1-72d9-bf6b-e2f1118fdaab","","null","
                <div class=""stimulus-container"">
                    <img src=""images/schematic_sequence/interview_scheme/interview_scheme_7.png"" class=""exp-image"">
                    <div class=""question-area""></div> 
                </div>","null","","","","","","","","",""
"","","","","","html-button-response","51","324921","0.0-51.0","480624F7D2124687AD60694DFA6D7702","019cf516-970d-7ebf-86b9-d06715add293","019cf509-e3f1-72d9-bf6b-e2f1118fdaab","","527","
                <div class=""stimulus-container"">
                    <img src=""images/schematic_sequence/interview_scheme/interview_scheme_7.png"" class=""exp-image"">
                    <div class=""question-area"">
                        <p style=""font-size: 20px; font-weight: bold; margin: 0;"">Is there a person in this image?</p>
                    </div>
                </div>","0","main_experiment_trial","7","interview_scheme","schematic_sequence","","","","",""
"","","","","","html-keyboard-response","52","329930","0.0-52.0","480624F7D2124687AD60694DFA6D7702","019cf516-970d-7ebf-86b9-d06715add293","019cf509-e3f1-72d9-bf6b-e2f1118fdaab","","null","
                <div class=""stimulus-container"">
                    <img src=""images/schematic_sequence/interview_scheme/interview_scheme_8.png"" class=""exp-image"">
                    <div class=""question-area""></div> 
                </div>","null","","","","","","","","",""
"","","","","","html-button-response","53","330432","0.0-53.0","480624F7D2124687AD60694DFA6D7702","019cf516-970d-7ebf-86b9-d06715add293","019cf509-e3f1-72d9-bf6b-e2f1118fdaab","","501","
                <div class=""stimulus-container"">
                    <img src=""images/schematic_sequence/interview_scheme/interview_scheme_8.png"" class=""exp-image"">
                    <div class=""question-area"">
                        <p style=""font-size: 20px; font-weight: bold; margin: 0;"">Is there a person in this image?</p>
                    </div>
                </div>","0","main_experiment_trial","8","interview_scheme","schematic_sequence","","","","",""
"","","","","","html-keyboard-response","54","335442","0.0-54.0","480624F7D2124687AD60694DFA6D7702","019cf516-970d-7ebf-86b9-d06715add293","019cf509-e3f1-72d9-bf6b-e2f1118fdaab","","null","
                <div class=""stimulus-container"">
                    <img src=""images/schematic_sequence/interview_scheme/interview_scheme_9.png"" class=""exp-image"">
                    <div class=""question-area""></div> 
                </div>","null","","","","","","","","",""
"","","","","","html-button-response","55","336246","0.0-55.0","480624F7D2124687AD60694DFA6D7702","019cf516-970d-7ebf-86b9-d06715add293","019cf509-e3f1-72d9-bf6b-e2f1118fdaab","","803","
                <div class=""stimulus-container"">
                    <img src=""images/schematic_sequence/interview_scheme/interview_scheme_9.png"" class=""exp-image"">
                    <div class=""question-area"">
                        <p style=""font-size: 20px; font-weight: bold; margin: 0;"">Is there a person in this image?</p>
                    </div>
                </div>","0","main_experiment_trial","9","interview_scheme","schematic_sequence","","","","",""
"","","","","","html-keyboard-response","56","341259","0.0-56.0","480624F7D2124687AD60694DFA6D7702","019cf516-970d-7ebf-86b9-d06715add293","019cf509-e3f1-72d9-bf6b-e2f1118fdaab","","null","
                <div class=""stimulus-container"">
                    <img src=""images/schematic_sequence/interview_scheme/interview_scheme_ten.png"" class=""exp-image"">
                    <div class=""question-area""></div> 
                </div>","null","","","","","","","","",""
"","","","","","html-button-response","57","342072","0.0-57.0","480624F7D2124687AD60694DFA6D7702","019cf516-970d-7ebf-86b9-d06715add293","019cf509-e3f1-72d9-bf6b-e2f1118fdaab","","812","
                <div class=""stimulus-container"">
                    <img src=""images/schematic_sequence/interview_scheme/interview_scheme_ten.png"" class=""exp-image"">
                    <div class=""question-area"">
                        <p style=""font-size: 20px; font-weight: bold; margin: 0;"">Is there a person in this image?</p>
                    </div>
                </div>","0","main_experiment_trial","ten","interview_scheme","schematic_sequence","","","","",""
"","","","","","html-keyboard-response","58","343073","0.0-58.0","480624F7D2124687AD60694DFA6D7702","019cf516-970d-7ebf-86b9-d06715add293","019cf509-e3f1-72d9-bf6b-e2f1118fdaab","","null","<div style=""background-color: white; width: 100vw; height: 100vh;""></div>","null","","","","","","","","",""
"","","","","","html-keyboard-response","59","348077","0.0-59.0","480624F7D2124687AD60694DFA6D7702","019cf516-970d-7ebf-86b9-d06715add293","019cf509-e3f1-72d9-bf6b-e2f1118fdaab","","null","
                <div class=""stimulus-container"">
                    <img src=""images/causal_sequence/the_performance_causal/the_performance_causal_1.png"" class=""exp-image"">
                    <div class=""question-area""></div> 
                </div>","null","","","","","","","","",""
"","","","","","html-button-response","60","349102","0.0-60.0","480624F7D2124687AD60694DFA6D7702","019cf516-970d-7ebf-86b9-d06715add293","019cf509-e3f1-72d9-bf6b-e2f1118fdaab","","1024","
                <div class=""stimulus-container"">
                    <img src=""images/causal_sequence/the_performance_causal/the_performance_causal_1.png"" class=""exp-image"">
                    <div class=""question-area"">
                        <p style=""font-size: 20px; font-weight: bold; margin: 0;"">Is there a person in this image?</p>
                    </div>
                </div>","0","main_experiment_trial","1","the_performance_causal","causal_sequence","","","","",""
"","","","","","html-keyboard-response","61","354110","0.0-61.0","480624F7D2124687AD60694DFA6D7702","019cf516-970d-7ebf-86b9-d06715add293","019cf509-e3f1-72d9-bf6b-e2f1118fdaab","","null","
                <div class=""stimulus-container"">
                    <img src=""images/causal_sequence/the_performance_causal/the_performance_causal_2.png"" class=""exp-image"">
                    <div class=""question-area""></div> 
                </div>","null","","","","","","","","",""
"","","","","","html-button-response","62","355143","0.0-62.0","480624F7D2124687AD60694DFA6D7702","019cf516-970d-7ebf-86b9-d06715add293","019cf509-e3f1-72d9-bf6b-e2f1118fdaab","","1031","
                <div class=""stimulus-container"">
                    <img src=""images/causal_sequence/the_performance_causal/the_performance_causal_2.png"" class=""exp-image"">
                    <div class=""question-area"">
                        <p style=""font-size: 20px; font-weight: bold; margin: 0;"">Is there a person in this image?</p>
                    </div>
                </div>","0","main_experiment_trial","2","the_performance_causal","causal_sequence","","","","",""
"","","","","","html-keyboard-response","63","360144","0.0-63.0","480624F7D2124687AD60694DFA6D7702","019cf516-970d-7ebf-86b9-d06715add293","019cf509-e3f1-72d9-bf6b-e2f1118fdaab","","null","
                <div class=""stimulus-container"">
                    <img src=""images/causal_sequence/the_performance_causal/the_performance_causal_3.png"" class=""exp-image"">
                    <div class=""question-area""></div> 
                </div>","null","","","","","","","","",""
"","","","","","html-button-response","64","360941","0.0-64.0","480624F7D2124687AD60694DFA6D7702","019cf516-970d-7ebf-86b9-d06715add293","019cf509-e3f1-72d9-bf6b-e2f1118fdaab","","796","
                <div class=""stimulus-container"">
                    <img src=""images/causal_sequence/the_performance_causal/the_performance_causal_3.png"" class=""exp-image"">
                    <div class=""question-area"">
                        <p style=""font-size: 20px; font-weight: bold; margin: 0;"">Is there a person in this image?</p>
                    </div>
                </div>","0","main_experiment_trial","3","the_performance_causal","causal_sequence","","","","",""
"","","","","","html-keyboard-response","65","365949","0.0-65.0","480624F7D2124687AD60694DFA6D7702","019cf516-970d-7ebf-86b9-d06715add293","019cf509-e3f1-72d9-bf6b-e2f1118fdaab","","null","
                <div class=""stimulus-container"">
                    <img src=""images/causal_sequence/the_performance_causal/the_performance_causal_4.png"" class=""exp-image"">
                    <div class=""question-area""></div> 
                </div>","null","","","","","","","","",""
"","","","","","html-button-response","66","366938","0.0-66.0","480624F7D2124687AD60694DFA6D7702","019cf516-970d-7ebf-86b9-d06715add293","019cf509-e3f1-72d9-bf6b-e2f1118fdaab","","989","
                <div class=""stimulus-container"">
                    <img src=""images/causal_sequence/the_performance_causal/the_performance_causal_4.png"" class=""exp-image"">
                    <div class=""question-area"">
                        <p style=""font-size: 20px; font-weight: bold; margin: 0;"">Is there a person in this image?</p>
                    </div>
                </div>","0","main_experiment_trial","4","the_performance_causal","causal_sequence","","","","",""
"","","","","","html-keyboard-response","67","371954","0.0-67.0","480624F7D2124687AD60694DFA6D7702","019cf516-970d-7ebf-86b9-d06715add293","019cf509-e3f1-72d9-bf6b-e2f1118fdaab","","null","
                <div class=""stimulus-container"">
                    <img src=""images/causal_sequence/the_performance_causal/the_performance_causal_5.png"" class=""exp-image"">
                    <div class=""question-area""></div> 
                </div>","null","","","","","","","","",""
"","","","","","html-button-response","68","372678","0.0-68.0","480624F7D2124687AD60694DFA6D7702","019cf516-970d-7ebf-86b9-d06715add293","019cf509-e3f1-72d9-bf6b-e2f1118fdaab","","723","
                <div class=""stimulus-container"">
                    <img src=""images/causal_sequence/the_performance_causal/the_performance_causal_5.png"" class=""exp-image"">
                    <div class=""question-area"">
                        <p style=""font-size: 20px; font-weight: bold; margin: 0;"">Is there a person in this image?</p>
                    </div>
                </div>","0","main_experiment_trial","5","the_performance_causal","causal_sequence","","","","",""
"","","","","","html-keyboard-response","69","377694","0.0-69.0","480624F7D2124687AD60694DFA6D7702","019cf516-970d-7ebf-86b9-d06715add293","019cf509-e3f1-72d9-bf6b-e2f1118fdaab","","null","
                <div class=""stimulus-container"">
                    <img src=""images/causal_sequence/the_performance_causal/the_performance_causal_6.png"" class=""exp-image"">
                    <div class=""question-area""></div> 
                </div>","null","","","","","","","","",""
"","","","","","html-button-response","70","378282","0.0-70.0","480624F7D2124687AD60694DFA6D7702","019cf516-970d-7ebf-86b9-d06715add293","019cf509-e3f1-72d9-bf6b-e2f1118fdaab","","588","
                <div class=""stimulus-container"">
                    <img src=""images/causal_sequence/the_performance_causal/the_performance_causal_6.png"" class=""exp-image"">
                    <div class=""question-area"">
                        <p style=""font-size: 20px; font-weight: bold; margin: 0;"">Is there a person in this image?</p>
                    </div>
                </div>","0","main_experiment_trial","6","the_performance_causal","causal_sequence","","","","",""
"","","","","","html-keyboard-response","71","383284","0.0-71.0","480624F7D2124687AD60694DFA6D7702","019cf516-970d-7ebf-86b9-d06715add293","019cf509-e3f1-72d9-bf6b-e2f1118fdaab","","null","
                <div class=""stimulus-container"">
                    <img src=""images/causal_sequence/the_performance_causal/the_performance_causal_7.png"" class=""exp-image"">
                    <div class=""question-area""></div> 
                </div>","null","","","","","","","","",""
"","","","","","html-button-response","72","384297","0.0-72.0","480624F7D2124687AD60694DFA6D7702","019cf516-970d-7ebf-86b9-d06715add293","019cf509-e3f1-72d9-bf6b-e2f1118fdaab","","1012","
                <div class=""stimulus-container"">
                    <img src=""images/causal_sequence/the_performance_causal/the_performance_causal_7.png"" class=""exp-image"">
                    <div class=""question-area"">
                        <p style=""font-size: 20px; font-weight: bold; margin: 0;"">Is there a person in this image?</p>
                    </div>
                </div>","0","main_experiment_trial","7","the_performance_causal","causal_sequence","","","","",""
"","","","","","html-keyboard-response","73","389306","0.0-73.0","480624F7D2124687AD60694DFA6D7702","019cf516-970d-7ebf-86b9-d06715add293","019cf509-e3f1-72d9-bf6b-e2f1118fdaab","","null","
                <div class=""stimulus-container"">
                    <img src=""images/causal_sequence/the_performance_causal/the_performance_causal_8.png"" class=""exp-image"">
                    <div class=""question-area""></div> 
                </div>","null","","","","","","","","",""
"","","","","","html-button-response","74","390155","0.0-74.0","480624F7D2124687AD60694DFA6D7702","019cf516-970d-7ebf-86b9-d06715add293","019cf509-e3f1-72d9-bf6b-e2f1118fdaab","","847","
                <div class=""stimulus-container"">
                    <img src=""images/causal_sequence/the_performance_causal/the_performance_causal_8.png"" class=""exp-image"">
                    <div class=""question-area"">
                        <p style=""font-size: 20px; font-weight: bold; margin: 0;"">Is there a person in this image?</p>
                    </div>
                </div>","0","main_experiment_trial","8","the_performance_causal","causal_sequence","","","","",""
"","","","","","html-keyboard-response","75","395166","0.0-75.0","480624F7D2124687AD60694DFA6D7702","019cf516-970d-7ebf-86b9-d06715add293","019cf509-e3f1-72d9-bf6b-e2f1118fdaab","","null","
                <div class=""stimulus-container"">
                    <img src=""images/causal_sequence/the_performance_causal/the_performance_causal_9.png"" class=""exp-image"">
                    <div class=""question-area""></div> 
                </div>","null","","","","","","","","",""
"","","","","","html-button-response","76","396443","0.0-76.0","480624F7D2124687AD60694DFA6D7702","019cf516-970d-7ebf-86b9-d06715add293","019cf509-e3f1-72d9-bf6b-e2f1118fdaab","","1276","
                <div class=""stimulus-container"">
                    <img src=""images/causal_sequence/the_performance_causal/the_performance_causal_9.png"" class=""exp-image"">
                    <div class=""question-area"">
                        <p style=""font-size: 20px; font-weight: bold; margin: 0;"">Is there a person in this image?</p>
                    </div>
                </div>","0","main_experiment_trial","9","the_performance_causal","causal_sequence","","","","",""
"","","","","","html-keyboard-response","77","401451","0.0-77.0","480624F7D2124687AD60694DFA6D7702","019cf516-970d-7ebf-86b9-d06715add293","019cf509-e3f1-72d9-bf6b-e2f1118fdaab","","null","
                <div class=""stimulus-container"">
                    <img src=""images/causal_sequence/the_performance_causal/the_performance_causal_ten.png"" class=""exp-image"">
                    <div class=""question-area""></div> 
                </div>","null","","","","","","","","",""
"","","","","","html-button-response","78","402482","0.0-78.0","480624F7D2124687AD60694DFA6D7702","019cf516-970d-7ebf-86b9-d06715add293","019cf509-e3f1-72d9-bf6b-e2f1118fdaab","","1030","
                <div class=""stimulus-container"">
                    <img src=""images/causal_sequence/the_performance_causal/the_performance_causal_ten.png"" class=""exp-image"">
                    <div class=""question-area"">
                        <p style=""font-size: 20px; font-weight: bold; margin: 0;"">Is there a person in this image?</p>
                    </div>
                </div>","0","main_experiment_trial","ten","the_performance_causal","causal_sequence","","","","",""
"","","","","","html-keyboard-response","79","403494","0.0-79.0","480624F7D2124687AD60694DFA6D7702","019cf516-970d-7ebf-86b9-d06715add293","019cf509-e3f1-72d9-bf6b-e2f1118fdaab","","null","<div style=""background-color: white; width: 100vw; height: 100vh;""></div>","null","","","","","","","","",""
"","","","","","html-keyboard-response","80","408497","0.0-80.0","480624F7D2124687AD60694DFA6D7702","019cf516-970d-7ebf-86b9-d06715add293","019cf509-e3f1-72d9-bf6b-e2f1118fdaab","","null","
                <div class=""stimulus-container"">
                    <img src=""images/causal_sequence/coin_causal/coin_causal_1.png"" class=""exp-image"">
                    <div class=""question-area""></div> 
                </div>","null","","","","","","","","",""
"","","","","","html-button-response","81","409564","0.0-81.0","480624F7D2124687AD60694DFA6D7702","019cf516-970d-7ebf-86b9-d06715add293","019cf509-e3f1-72d9-bf6b-e2f1118fdaab","","1067","
                <div class=""stimulus-container"">
                    <img src=""images/causal_sequence/coin_causal/coin_causal_1.png"" class=""exp-image"">
                    <div class=""question-area"">
                        <p style=""font-size: 20px; font-weight: bold; margin: 0;"">Is there a person in this image?</p>
                    </div>
                </div>","0","main_experiment_trial","1","coin_causal","causal_sequence","","","","",""
"","","","","","html-keyboard-response","82","414567","0.0-82.0","480624F7D2124687AD60694DFA6D7702","019cf516-970d-7ebf-86b9-d06715add293","019cf509-e3f1-72d9-bf6b-e2f1118fdaab","","null","
                <div class=""stimulus-container"">
                    <img src=""images/causal_sequence/coin_causal/coin_causal_2.png"" class=""exp-image"">
                    <div class=""question-area""></div> 
                </div>","null","","","","","","","","",""
"","","","","","html-button-response","83","415438","0.0-83.0","480624F7D2124687AD60694DFA6D7702","019cf516-970d-7ebf-86b9-d06715add293","019cf509-e3f1-72d9-bf6b-e2f1118fdaab","","870","
                <div class=""stimulus-container"">
                    <img src=""images/causal_sequence/coin_causal/coin_causal_2.png"" class=""exp-image"">
                    <div class=""question-area"">
                        <p style=""font-size: 20px; font-weight: bold; margin: 0;"">Is there a person in this image?</p>
                    </div>
                </div>","0","main_experiment_trial","2","coin_causal","causal_sequence","","","","",""
"","","","","","html-keyboard-response","84","420449","0.0-84.0","480624F7D2124687AD60694DFA6D7702","019cf516-970d-7ebf-86b9-d06715add293","019cf509-e3f1-72d9-bf6b-e2f1118fdaab","","null","
                <div class=""stimulus-container"">
                    <img src=""images/causal_sequence/coin_causal/coin_causal_3.png"" class=""exp-image"">
                    <div class=""question-area""></div> 
                </div>","null","","","","","","","","",""
"","","","","","html-button-response","85","421304","0.0-85.0","480624F7D2124687AD60694DFA6D7702","019cf516-970d-7ebf-86b9-d06715add293","019cf509-e3f1-72d9-bf6b-e2f1118fdaab","","854","
                <div class=""stimulus-container"">
                    <img src=""images/causal_sequence/coin_causal/coin_causal_3.png"" class=""exp-image"">
                    <div class=""question-area"">
                        <p style=""font-size: 20px; font-weight: bold; margin: 0;"">Is there a person in this image?</p>
                    </div>
                </div>","0","main_experiment_trial","3","coin_causal","causal_sequence","","","","",""
"","","","","","html-keyboard-response","86","426319","0.0-86.0","480624F7D2124687AD60694DFA6D7702","019cf516-970d-7ebf-86b9-d06715add293","019cf509-e3f1-72d9-bf6b-e2f1118fdaab","","null","
                <div class=""stimulus-container"">
                    <img src=""images/causal_sequence/coin_causal/coin_causal_4.png"" class=""exp-image"">
                    <div class=""question-area""></div> 
                </div>","null","","","","","","","","",""
"","","","","","html-button-response","87","427105","0.0-87.0","480624F7D2124687AD60694DFA6D7702","019cf516-970d-7ebf-86b9-d06715add293","019cf509-e3f1-72d9-bf6b-e2f1118fdaab","","785","
                <div class=""stimulus-container"">
                    <img src=""images/causal_sequence/coin_causal/coin_causal_4.png"" class=""exp-image"">
                    <div class=""question-area"">
                        <p style=""font-size: 20px; font-weight: bold; margin: 0;"">Is there a person in this image?</p>
                    </div>
                </div>","0","main_experiment_trial","4","coin_causal","causal_sequence","","","","",""
"","","","","","html-keyboard-response","88","432119","0.0-88.0","480624F7D2124687AD60694DFA6D7702","019cf516-970d-7ebf-86b9-d06715add293","019cf509-e3f1-72d9-bf6b-e2f1118fdaab","","null","
                <div class=""stimulus-container"">
                    <img src=""images/causal_sequence/coin_causal/coin_causal_5.png"" class=""exp-image"">
                    <div class=""question-area""></div> 
                </div>","null","","","","","","","","",""
"","","","","","html-button-response","89","433022","0.0-89.0","480624F7D2124687AD60694DFA6D7702","019cf516-970d-7ebf-86b9-d06715add293","019cf509-e3f1-72d9-bf6b-e2f1118fdaab","","902","
                <div class=""stimulus-container"">
                    <img src=""images/causal_sequence/coin_causal/coin_causal_5.png"" class=""exp-image"">
                    <div class=""question-area"">
                        <p style=""font-size: 20px; font-weight: bold; margin: 0;"">Is there a person in this image?</p>
                    </div>
                </div>","0","main_experiment_trial","5","coin_causal","causal_sequence","","","","",""
"","","","","","html-keyboard-response","90","438037","0.0-90.0","480624F7D2124687AD60694DFA6D7702","019cf516-970d-7ebf-86b9-d06715add293","019cf509-e3f1-72d9-bf6b-e2f1118fdaab","","null","
                <div class=""stimulus-container"">
                    <img src=""images/causal_sequence/coin_causal/coin_causal_6.png"" class=""exp-image"">
                    <div class=""question-area""></div> 
                </div>","null","","","","","","","","",""
"","","","","","html-button-response","91","438738","0.0-91.0","480624F7D2124687AD60694DFA6D7702","019cf516-970d-7ebf-86b9-d06715add293","019cf509-e3f1-72d9-bf6b-e2f1118fdaab","","700","
                <div class=""stimulus-container"">
                    <img src=""images/causal_sequence/coin_causal/coin_causal_6.png"" class=""exp-image"">
                    <div class=""question-area"">
                        <p style=""font-size: 20px; font-weight: bold; margin: 0;"">Is there a person in this image?</p>
                    </div>
                </div>","0","main_experiment_trial","6","coin_causal","causal_sequence","","","","",""
"","","","","","html-keyboard-response","92","443743","0.0-92.0","480624F7D2124687AD60694DFA6D7702","019cf516-970d-7ebf-86b9-d06715add293","019cf509-e3f1-72d9-bf6b-e2f1118fdaab","","null","
                <div class=""stimulus-container"">
                    <img src=""images/causal_sequence/coin_causal/coin_causal_7.png"" class=""exp-image"">
                    <div class=""question-area""></div> 
                </div>","null","","","","","","","","",""
"","","","","","html-button-response","93","444550","0.0-93.0","480624F7D2124687AD60694DFA6D7702","019cf516-970d-7ebf-86b9-d06715add293","019cf509-e3f1-72d9-bf6b-e2f1118fdaab","","806","
                <div class=""stimulus-container"">
                    <img src=""images/causal_sequence/coin_causal/coin_causal_7.png"" class=""exp-image"">
                    <div class=""question-area"">
                        <p style=""font-size: 20px; font-weight: bold; margin: 0;"">Is there a person in this image?</p>
                    </div>
                </div>","1","main_experiment_trial","7","coin_causal","causal_sequence","","","","",""
"","","","","","html-keyboard-response","94","449555","0.0-94.0","480624F7D2124687AD60694DFA6D7702","019cf516-970d-7ebf-86b9-d06715add293","019cf509-e3f1-72d9-bf6b-e2f1118fdaab","","null","
                <div class=""stimulus-container"">
                    <img src=""images/causal_sequence/coin_causal/coin_causal_8.png"" class=""exp-image"">
                    <div class=""question-area""></div> 
                </div>","null","","","","","","","","",""
"","","","","","html-button-response","95","450493","0.0-95.0","480624F7D2124687AD60694DFA6D7702","019cf516-970d-7ebf-86b9-d06715add293","019cf509-e3f1-72d9-bf6b-e2f1118fdaab","","937","
                <div class=""stimulus-container"">
                    <img src=""images/causal_sequence/coin_causal/coin_causal_8.png"" class=""exp-image"">
                    <div class=""question-area"">
                        <p style=""font-size: 20px; font-weight: bold; margin: 0;"">Is there a person in this image?</p>
                    </div>
                </div>","0","main_experiment_trial","8","coin_causal","causal_sequence","","","","",""
"","","","","","html-keyboard-response","96","455506","0.0-96.0","480624F7D2124687AD60694DFA6D7702","019cf516-970d-7ebf-86b9-d06715add293","019cf509-e3f1-72d9-bf6b-e2f1118fdaab","","null","
                <div class=""stimulus-container"">
                    <img src=""images/causal_sequence/coin_causal/coin_causal_9.png"" class=""exp-image"">
                    <div class=""question-area""></div> 
                </div>","null","","","","","","","","",""
"","","","","","html-button-response","97","456739","0.0-97.0","480624F7D2124687AD60694DFA6D7702","019cf516-970d-7ebf-86b9-d06715add293","019cf509-e3f1-72d9-bf6b-e2f1118fdaab","","1231","
                <div class=""stimulus-container"">
                    <img src=""images/causal_sequence/coin_causal/coin_causal_9.png"" class=""exp-image"">
                    <div class=""question-area"">
                        <p style=""font-size: 20px; font-weight: bold; margin: 0;"">Is there a person in this image?</p>
                    </div>
                </div>","0","main_experiment_trial","9","coin_causal","causal_sequence","","","","",""
"","","","","","html-keyboard-response","98","461752","0.0-98.0","480624F7D2124687AD60694DFA6D7702","019cf516-970d-7ebf-86b9-d06715add293","019cf509-e3f1-72d9-bf6b-e2f1118fdaab","","null","
                <div class=""stimulus-container"">
                    <img src=""images/causal_sequence/coin_causal/coin_causal_ten.png"" class=""exp-image"">
                    <div class=""question-area""></div> 
                </div>","null","","","","","","","","",""
"","","","","","html-button-response","99","462710","0.0-99.0","480624F7D2124687AD60694DFA6D7702","019cf516-970d-7ebf-86b9-d06715add293","019cf509-e3f1-72d9-bf6b-e2f1118fdaab","","957","
                <div class=""stimulus-container"">
                    <img src=""images/causal_sequence/coin_causal/coin_causal_ten.png"" class=""exp-image"">
                    <div class=""question-area"">
                        <p style=""font-size: 20px; font-weight: bold; margin: 0;"">Is there a person in this image?</p>
                    </div>
                </div>","0","main_experiment_trial","ten","coin_causal","causal_sequence","","","","",""
"","","","","","html-keyboard-response","100","463728","0.0-100.0","480624F7D2124687AD60694DFA6D7702","019cf516-970d-7ebf-86b9-d06715add293","019cf509-e3f1-72d9-bf6b-e2f1118fdaab","","null","<div style=""background-color: white; width: 100vw; height: 100vh;""></div>","null","","","","","","","","",""
"","","","","","html-keyboard-response","101","468740","0.0-101.0","480624F7D2124687AD60694DFA6D7702","019cf516-970d-7ebf-86b9-d06715add293","019cf509-e3f1-72d9-bf6b-e2f1118fdaab","","null","
                <div class=""stimulus-container"">
                    <img src=""images/causal_sequence/saving_a_cat_causal/saving_a_cat_causal_1.png"" class=""exp-image"">
                    <div class=""question-area""></div> 
                </div>","null","","","","","","","","",""
"","","","","","html-button-response","102","469664","0.0-102.0","480624F7D2124687AD60694DFA6D7702","019cf516-970d-7ebf-86b9-d06715add293","019cf509-e3f1-72d9-bf6b-e2f1118fdaab","","923","
                <div class=""stimulus-container"">
                    <img src=""images/causal_sequence/saving_a_cat_causal/saving_a_cat_causal_1.png"" class=""exp-image"">
                    <div class=""question-area"">
                        <p style=""font-size: 20px; font-weight: bold; margin: 0;"">Is there a person in this image?</p>
                    </div>
                </div>","0","main_experiment_trial","1","saving_a_cat_causal","causal_sequence","","","","",""
"","","","","","html-keyboard-response","103","474666","0.0-103.0","480624F7D2124687AD60694DFA6D7702","019cf516-970d-7ebf-86b9-d06715add293","019cf509-e3f1-72d9-bf6b-e2f1118fdaab","","null","
                <div class=""stimulus-container"">
                    <img src=""images/causal_sequence/saving_a_cat_causal/saving_a_cat_causal_2.png"" class=""exp-image"">
                    <div class=""question-area""></div> 
                </div>","null","","","","","","","","",""
"","","","","","html-button-response","104","475625","0.0-104.0","480624F7D2124687AD60694DFA6D7702","019cf516-970d-7ebf-86b9-d06715add293","019cf509-e3f1-72d9-bf6b-e2f1118fdaab","","958","
                <div class=""stimulus-container"">
                    <img src=""images/causal_sequence/saving_a_cat_causal/saving_a_cat_causal_2.png"" class=""exp-image"">
                    <div class=""question-area"">
                        <p style=""font-size: 20px; font-weight: bold; margin: 0;"">Is there a person in this image?</p>
                    </div>
                </div>","1","main_experiment_trial","2","saving_a_cat_causal","causal_sequence","","","","",""
"","","","","","html-keyboard-response","105","480628","0.0-105.0","480624F7D2124687AD60694DFA6D7702","019cf516-970d-7ebf-86b9-d06715add293","019cf509-e3f1-72d9-bf6b-e2f1118fdaab","","null","
                <div class=""stimulus-container"">
                    <img src=""images/causal_sequence/saving_a_cat_causal/saving_a_cat_causal_3.png"" class=""exp-image"">
                    <div class=""question-area""></div> 
                </div>","null","","","","","","","","",""
"","","","","","html-button-response","106","481474","0.0-106.0","480624F7D2124687AD60694DFA6D7702","019cf516-970d-7ebf-86b9-d06715add293","019cf509-e3f1-72d9-bf6b-e2f1118fdaab","","844","
                <div class=""stimulus-container"">
                    <img src=""images/causal_sequence/saving_a_cat_causal/saving_a_cat_causal_3.png"" class=""exp-image"">
                    <div class=""question-area"">
                        <p style=""font-size: 20px; font-weight: bold; margin: 0;"">Is there a person in this image?</p>
                    </div>
                </div>","1","main_experiment_trial","3","saving_a_cat_causal","causal_sequence","","","","",""
"","","","","","html-keyboard-response","107","486479","0.0-107.0","480624F7D2124687AD60694DFA6D7702","019cf516-970d-7ebf-86b9-d06715add293","019cf509-e3f1-72d9-bf6b-e2f1118fdaab","","null","
                <div class=""stimulus-container"">
                    <img src=""images/causal_sequence/saving_a_cat_causal/saving_a_cat_causal_4.png"" class=""exp-image"">
                    <div class=""question-area""></div> 
                </div>","null","","","","","","","","",""
"","","","","","html-button-response","108","487382","0.0-108.0","480624F7D2124687AD60694DFA6D7702","019cf516-970d-7ebf-86b9-d06715add293","019cf509-e3f1-72d9-bf6b-e2f1118fdaab","","901","
                <div class=""stimulus-container"">
                    <img src=""images/causal_sequence/saving_a_cat_causal/saving_a_cat_causal_4.png"" class=""exp-image"">
                    <div class=""question-area"">
                        <p style=""font-size: 20px; font-weight: bold; margin: 0;"">Is there a person in this image?</p>
                    </div>
                </div>","0","main_experiment_trial","4","saving_a_cat_causal","causal_sequence","","","","",""
"","","","","","html-keyboard-response","109","492388","0.0-109.0","480624F7D2124687AD60694DFA6D7702","019cf516-970d-7ebf-86b9-d06715add293","019cf509-e3f1-72d9-bf6b-e2f1118fdaab","","null","
                <div class=""stimulus-container"">
                    <img src=""images/causal_sequence/saving_a_cat_causal/saving_a_cat_causal_5.png"" class=""exp-image"">
                    <div class=""question-area""></div> 
                </div>","null","","","","","","","","",""
"","","","","","html-button-response","110","493175","0.0-110.0","480624F7D2124687AD60694DFA6D7702","019cf516-970d-7ebf-86b9-d06715add293","019cf509-e3f1-72d9-bf6b-e2f1118fdaab","","786","
                <div class=""stimulus-container"">
                    <img src=""images/causal_sequence/saving_a_cat_causal/saving_a_cat_causal_5.png"" class=""exp-image"">
                    <div class=""question-area"">
                        <p style=""font-size: 20px; font-weight: bold; margin: 0;"">Is there a person in this image?</p>
                    </div>
                </div>","0","main_experiment_trial","5","saving_a_cat_causal","causal_sequence","","","","",""
"","","","","","html-keyboard-response","111","498182","0.0-111.0","480624F7D2124687AD60694DFA6D7702","019cf516-970d-7ebf-86b9-d06715add293","019cf509-e3f1-72d9-bf6b-e2f1118fdaab","","null","
                <div class=""stimulus-container"">
                    <img src=""images/causal_sequence/saving_a_cat_causal/saving_a_cat_causal_6.png"" class=""exp-image"">
                    <div class=""question-area""></div> 
                </div>","null","","","","","","","","",""
"","","","","","html-button-response","112","499253","0.0-112.0","480624F7D2124687AD60694DFA6D7702","019cf516-970d-7ebf-86b9-d06715add293","019cf509-e3f1-72d9-bf6b-e2f1118fdaab","","1070","
                <div class=""stimulus-container"">
                    <img src=""images/causal_sequence/saving_a_cat_causal/saving_a_cat_causal_6.png"" class=""exp-image"">
                    <div class=""question-area"">
                        <p style=""font-size: 20px; font-weight: bold; margin: 0;"">Is there a person in this image?</p>
                    </div>
                </div>","0","main_experiment_trial","6","saving_a_cat_causal","causal_sequence","","","","",""
"","","","","","html-keyboard-response","113","504257","0.0-113.0","480624F7D2124687AD60694DFA6D7702","019cf516-970d-7ebf-86b9-d06715add293","019cf509-e3f1-72d9-bf6b-e2f1118fdaab","","null","
                <div class=""stimulus-container"">
                    <img src=""images/causal_sequence/saving_a_cat_causal/saving_a_cat_causal_7.png"" class=""exp-image"">
                    <div class=""question-area""></div> 
                </div>","null","","","","","","","","",""
"","","","","","html-button-response","114","505548","0.0-114.0","480624F7D2124687AD60694DFA6D7702","019cf516-970d-7ebf-86b9-d06715add293","019cf509-e3f1-72d9-bf6b-e2f1118fdaab","","1290","
                <div class=""stimulus-container"">
                    <img src=""images/causal_sequence/saving_a_cat_causal/saving_a_cat_causal_7.png"" class=""exp-image"">
                    <div class=""question-area"">
                        <p style=""font-size: 20px; font-weight: bold; margin: 0;"">Is there a person in this image?</p>
                    </div>
                </div>","0","main_experiment_trial","7","saving_a_cat_causal","causal_sequence","","","","",""
"","","","","","html-keyboard-response","115","510563","0.0-115.0","480624F7D2124687AD60694DFA6D7702","019cf516-970d-7ebf-86b9-d06715add293","019cf509-e3f1-72d9-bf6b-e2f1118fdaab","","null","
                <div class=""stimulus-container"">
                    <img src=""images/causal_sequence/saving_a_cat_causal/saving_a_cat_causal_8.png"" class=""exp-image"">
                    <div class=""question-area""></div> 
                </div>","null","","","","","","","","",""
"","","","","","html-button-response","116","512071","0.0-116.0","480624F7D2124687AD60694DFA6D7702","019cf516-970d-7ebf-86b9-d06715add293","019cf509-e3f1-72d9-bf6b-e2f1118fdaab","","1506","
                <div class=""stimulus-container"">
                    <img src=""images/causal_sequence/saving_a_cat_causal/saving_a_cat_causal_8.png"" class=""exp-image"">
                    <div class=""question-area"">
                        <p style=""font-size: 20px; font-weight: bold; margin: 0;"">Is there a person in this image?</p>
                    </div>
                </div>","0","main_experiment_trial","8","saving_a_cat_causal","causal_sequence","","","","",""
"","","","","","html-keyboard-response","117","517073","0.0-117.0","480624F7D2124687AD60694DFA6D7702","019cf516-970d-7ebf-86b9-d06715add293","019cf509-e3f1-72d9-bf6b-e2f1118fdaab","","null","
                <div class=""stimulus-container"">
                    <img src=""images/causal_sequence/saving_a_cat_causal/saving_a_cat_causal_9.png"" class=""exp-image"">
                    <div class=""question-area""></div> 
                </div>","null","","","","","","","","",""
"","","","","","html-button-response","118","518232","0.0-118.0","480624F7D2124687AD60694DFA6D7702","019cf516-970d-7ebf-86b9-d06715add293","019cf509-e3f1-72d9-bf6b-e2f1118fdaab","","1158","
                <div class=""stimulus-container"">
                    <img src=""images/causal_sequence/saving_a_cat_causal/saving_a_cat_causal_9.png"" class=""exp-image"">
                    <div class=""question-area"">
                        <p style=""font-size: 20px; font-weight: bold; margin: 0;"">Is there a person in this image?</p>
                    </div>
                </div>","0","main_experiment_trial","9","saving_a_cat_causal","causal_sequence","","","","",""
"","","","","","html-keyboard-response","119","523246","0.0-119.0","480624F7D2124687AD60694DFA6D7702","019cf516-970d-7ebf-86b9-d06715add293","019cf509-e3f1-72d9-bf6b-e2f1118fdaab","","null","
                <div class=""stimulus-container"">
                    <img src=""images/causal_sequence/saving_a_cat_causal/saving_a_cat_causal_ten.png"" class=""exp-image"">
                    <div class=""question-area""></div> 
                </div>","null","","","","","","","","",""
"","","","","","html-button-response","120","524760","0.0-120.0","480624F7D2124687AD60694DFA6D7702","019cf516-970d-7ebf-86b9-d06715add293","019cf509-e3f1-72d9-bf6b-e2f1118fdaab","","1512","
                <div class=""stimulus-container"">
                    <img src=""images/causal_sequence/saving_a_cat_causal/saving_a_cat_causal_ten.png"" class=""exp-image"">
                    <div class=""question-area"">
                        <p style=""font-size: 20px; font-weight: bold; margin: 0;"">Is there a person in this image?</p>
                    </div>
                </div>","0","main_experiment_trial","ten","saving_a_cat_causal","causal_sequence","","","","",""
"","","","","","html-keyboard-response","121","525771","0.0-121.0","480624F7D2124687AD60694DFA6D7702","019cf516-970d-7ebf-86b9-d06715add293","019cf509-e3f1-72d9-bf6b-e2f1118fdaab","","null","<div style=""background-color: white; width: 100vw; height: 100vh;""></div>","null","","","","","","","","",""
"","","","","","html-keyboard-response","122","530780","0.0-122.0","480624F7D2124687AD60694DFA6D7702","019cf516-970d-7ebf-86b9-d06715add293","019cf509-e3f1-72d9-bf6b-e2f1118fdaab","","null","
                <div class=""stimulus-container"">
                    <img src=""images/schematic_sequence/dinner_party_scheme/dinner_party_scheme_1.png"" class=""exp-image"">
                    <div class=""question-area""></div> 
                </div>","null","","","","","","","","",""
"","","","","","html-button-response","123","531811","0.0-123.0","480624F7D2124687AD60694DFA6D7702","019cf516-970d-7ebf-86b9-d06715add293","019cf509-e3f1-72d9-bf6b-e2f1118fdaab","","1029","
                <div class=""stimulus-container"">
                    <img src=""images/schematic_sequence/dinner_party_scheme/dinner_party_scheme_1.png"" class=""exp-image"">
                    <div class=""question-area"">
                        <p style=""font-size: 20px; font-weight: bold; margin: 0;"">Is there a person in this image?</p>
                    </div>
                </div>","0","main_experiment_trial","1","dinner_party_scheme","schematic_sequence","","","","",""
"","","","","","html-keyboard-response","124","536813","0.0-124.0","480624F7D2124687AD60694DFA6D7702","019cf516-970d-7ebf-86b9-d06715add293","019cf509-e3f1-72d9-bf6b-e2f1118fdaab","","null","
                <div class=""stimulus-container"">
                    <img src=""images/schematic_sequence/dinner_party_scheme/dinner_party_scheme_2.png"" class=""exp-image"">
                    <div class=""question-area""></div> 
                </div>","null","","","","","","","","",""
"","","","","","html-button-response","125","537995","0.0-125.0","480624F7D2124687AD60694DFA6D7702","019cf516-970d-7ebf-86b9-d06715add293","019cf509-e3f1-72d9-bf6b-e2f1118fdaab","","1180","
                <div class=""stimulus-container"">
                    <img src=""images/schematic_sequence/dinner_party_scheme/dinner_party_scheme_2.png"" class=""exp-image"">
                    <div class=""question-area"">
                        <p style=""font-size: 20px; font-weight: bold; margin: 0;"">Is there a person in this image?</p>
                    </div>
                </div>","0","main_experiment_trial","2","dinner_party_scheme","schematic_sequence","","","","",""
"","","","","","html-keyboard-response","126","543005","0.0-126.0","480624F7D2124687AD60694DFA6D7702","019cf516-970d-7ebf-86b9-d06715add293","019cf509-e3f1-72d9-bf6b-e2f1118fdaab","","null","
                <div class=""stimulus-container"">
                    <img src=""images/schematic_sequence/dinner_party_scheme/dinner_party_scheme_3.png"" class=""exp-image"">
                    <div class=""question-area""></div> 
                </div>","null","","","","","","","","",""
"","","","","","html-button-response","127","543671","0.0-127.0","480624F7D2124687AD60694DFA6D7702","019cf516-970d-7ebf-86b9-d06715add293","019cf509-e3f1-72d9-bf6b-e2f1118fdaab","","664","
                <div class=""stimulus-container"">
                    <img src=""images/schematic_sequence/dinner_party_scheme/dinner_party_scheme_3.png"" class=""exp-image"">
                    <div class=""question-area"">
                        <p style=""font-size: 20px; font-weight: bold; margin: 0;"">Is there a person in this image?</p>
                    </div>
                </div>","0","main_experiment_trial","3","dinner_party_scheme","schematic_sequence","","","","",""
"","","","","","html-keyboard-response","128","548679","0.0-128.0","480624F7D2124687AD60694DFA6D7702","019cf516-970d-7ebf-86b9-d06715add293","019cf509-e3f1-72d9-bf6b-e2f1118fdaab","","null","
                <div class=""stimulus-container"">
                    <img src=""images/schematic_sequence/dinner_party_scheme/dinner_party_scheme_4.png"" class=""exp-image"">
                    <div class=""question-area""></div> 
                </div>","null","","","","","","","","",""
"","","","","","html-button-response","129","549653","0.0-129.0","480624F7D2124687AD60694DFA6D7702","019cf516-970d-7ebf-86b9-d06715add293","019cf509-e3f1-72d9-bf6b-e2f1118fdaab","","973","
                <div class=""stimulus-container"">
                    <img src=""images/schematic_sequence/dinner_party_scheme/dinner_party_scheme_4.png"" class=""exp-image"">
                    <div class=""question-area"">
                        <p style=""font-size: 20px; font-weight: bold; margin: 0;"">Is there a person in this image?</p>
                    </div>
                </div>","0","main_experiment_trial","4","dinner_party_scheme","schematic_sequence","","","","",""
"","","","","","html-keyboard-response","130","554660","0.0-130.0","480624F7D2124687AD60694DFA6D7702","019cf516-970d-7ebf-86b9-d06715add293","019cf509-e3f1-72d9-bf6b-e2f1118fdaab","","null","
                <div class=""stimulus-container"">
                    <img src=""images/schematic_sequence/dinner_party_scheme/dinner_party_scheme_5.png"" class=""exp-image"">
                    <div class=""question-area""></div> 
                </div>","null","","","","","","","","",""
"","","","","","html-button-response","131","555274","0.0-131.0","480624F7D2124687AD60694DFA6D7702","019cf516-970d-7ebf-86b9-d06715add293","019cf509-e3f1-72d9-bf6b-e2f1118fdaab","","612","
                <div class=""stimulus-container"">
                    <img src=""images/schematic_sequence/dinner_party_scheme/dinner_party_scheme_5.png"" class=""exp-image"">
                    <div class=""question-area"">
                        <p style=""font-size: 20px; font-weight: bold; margin: 0;"">Is there a person in this image?</p>
                    </div>
                </div>","0","main_experiment_trial","5","dinner_party_scheme","schematic_sequence","","","","",""
"","","","","","html-keyboard-response","132","560277","0.0-132.0","480624F7D2124687AD60694DFA6D7702","019cf516-970d-7ebf-86b9-d06715add293","019cf509-e3f1-72d9-bf6b-e2f1118fdaab","","null","
                <div class=""stimulus-container"">
                    <img src=""images/schematic_sequence/dinner_party_scheme/dinner_party_scheme_6.png"" class=""exp-image"">
                    <div class=""question-area""></div> 
                </div>","null","","","","","","","","",""
"","","","","","html-button-response","133","561480","0.0-133.0","480624F7D2124687AD60694DFA6D7702","019cf516-970d-7ebf-86b9-d06715add293","019cf509-e3f1-72d9-bf6b-e2f1118fdaab","","1202","
                <div class=""stimulus-container"">
                    <img src=""images/schematic_sequence/dinner_party_scheme/dinner_party_scheme_6.png"" class=""exp-image"">
                    <div class=""question-area"">
                        <p style=""font-size: 20px; font-weight: bold; margin: 0;"">Is there a person in this image?</p>
                    </div>
                </div>","0","main_experiment_trial","6","dinner_party_scheme","schematic_sequence","","","","",""
"","","","","","html-keyboard-response","134","566485","0.0-134.0","480624F7D2124687AD60694DFA6D7702","019cf516-970d-7ebf-86b9-d06715add293","019cf509-e3f1-72d9-bf6b-e2f1118fdaab","","null","
                <div class=""stimulus-container"">
                    <img src=""images/schematic_sequence/dinner_party_scheme/dinner_party_scheme_7.png"" class=""exp-image"">
                    <div class=""question-area""></div> 
                </div>","null","","","","","","","","",""
"","","","","","html-button-response","135","567066","0.0-135.0","480624F7D2124687AD60694DFA6D7702","019cf516-970d-7ebf-86b9-d06715add293","019cf509-e3f1-72d9-bf6b-e2f1118fdaab","","579","
                <div class=""stimulus-container"">
                    <img src=""images/schematic_sequence/dinner_party_scheme/dinner_party_scheme_7.png"" class=""exp-image"">
                    <div class=""question-area"">
                        <p style=""font-size: 20px; font-weight: bold; margin: 0;"">Is there a person in this image?</p>
                    </div>
                </div>","0","main_experiment_trial","7","dinner_party_scheme","schematic_sequence","","","","",""
"","","","","","html-keyboard-response","136","572082","0.0-136.0","480624F7D2124687AD60694DFA6D7702","019cf516-970d-7ebf-86b9-d06715add293","019cf509-e3f1-72d9-bf6b-e2f1118fdaab","","null","
                <div class=""stimulus-container"">
                    <img src=""images/schematic_sequence/dinner_party_scheme/dinner_party_scheme_8.png"" class=""exp-image"">
                    <div class=""question-area""></div> 
                </div>","null","","","","","","","","",""
"","","","","","html-button-response","137","573053","0.0-137.0","480624F7D2124687AD60694DFA6D7702","019cf516-970d-7ebf-86b9-d06715add293","019cf509-e3f1-72d9-bf6b-e2f1118fdaab","","970","
                <div class=""stimulus-container"">
                    <img src=""images/schematic_sequence/dinner_party_scheme/dinner_party_scheme_8.png"" class=""exp-image"">
                    <div class=""question-area"">
                        <p style=""font-size: 20px; font-weight: bold; margin: 0;"">Is there a person in this image?</p>
                    </div>
                </div>","0","main_experiment_trial","8","dinner_party_scheme","schematic_sequence","","","","",""
"","","","","","html-keyboard-response","138","578060","0.0-138.0","480624F7D2124687AD60694DFA6D7702","019cf516-970d-7ebf-86b9-d06715add293","019cf509-e3f1-72d9-bf6b-e2f1118fdaab","","null","
                <div class=""stimulus-container"">
                    <img src=""images/schematic_sequence/dinner_party_scheme/dinner_party_scheme_9.png"" class=""exp-image"">
                    <div class=""question-area""></div> 
                </div>","null","","","","","","","","",""
"","","","","","html-button-response","139","578728","0.0-139.0","480624F7D2124687AD60694DFA6D7702","019cf516-970d-7ebf-86b9-d06715add293","019cf509-e3f1-72d9-bf6b-e2f1118fdaab","","666","
                <div class=""stimulus-container"">
                    <img src=""images/schematic_sequence/dinner_party_scheme/dinner_party_scheme_9.png"" class=""exp-image"">
                    <div class=""question-area"">
                        <p style=""font-size: 20px; font-weight: bold; margin: 0;"">Is there a person in this image?</p>
                    </div>
                </div>","0","main_experiment_trial","9","dinner_party_scheme","schematic_sequence","","","","",""
"","","","","","html-keyboard-response","140","583732","0.0-140.0","480624F7D2124687AD60694DFA6D7702","019cf516-970d-7ebf-86b9-d06715add293","019cf509-e3f1-72d9-bf6b-e2f1118fdaab","","null","
                <div class=""stimulus-container"">
                    <img src=""images/schematic_sequence/dinner_party_scheme/dinner_party_scheme_ten.png"" class=""exp-image"">
                    <div class=""question-area""></div> 
                </div>","null","","","","","","","","",""
"","","","","","html-button-response","141","584673","0.0-141.0","480624F7D2124687AD60694DFA6D7702","019cf516-970d-7ebf-86b9-d06715add293","019cf509-e3f1-72d9-bf6b-e2f1118fdaab","","940","
                <div class=""stimulus-container"">
                    <img src=""images/schematic_sequence/dinner_party_scheme/dinner_party_scheme_ten.png"" class=""exp-image"">
                    <div class=""question-area"">
                        <p style=""font-size: 20px; font-weight: bold; margin: 0;"">Is there a person in this image?</p>
                    </div>
                </div>","0","main_experiment_trial","ten","dinner_party_scheme","schematic_sequence","","","","",""
"","","","","","html-keyboard-response","142","585680","0.0-142.0","480624F7D2124687AD60694DFA6D7702","019cf516-970d-7ebf-86b9-d06715add293","019cf509-e3f1-72d9-bf6b-e2f1118fdaab","","null","<div style=""background-color: white; width: 100vw; height: 100vh;""></div>","null","","","","","","","","",""
"","","","","","html-keyboard-response","143","590693","0.0-143.0","480624F7D2124687AD60694DFA6D7702","019cf516-970d-7ebf-86b9-d06715add293","019cf509-e3f1-72d9-bf6b-e2f1118fdaab","","null","
                <div class=""stimulus-container"">
                    <img src=""images/schematic_sequence/supermarket_scheme/supermarket_scheme_1.png"" class=""exp-image"">
                    <div class=""question-area""></div> 
                </div>","null","","","","","","","","",""
"","","","","","html-button-response","144","591541","0.0-144.0","480624F7D2124687AD60694DFA6D7702","019cf516-970d-7ebf-86b9-d06715add293","019cf509-e3f1-72d9-bf6b-e2f1118fdaab","","846","
                <div class=""stimulus-container"">
                    <img src=""images/schematic_sequence/supermarket_scheme/supermarket_scheme_1.png"" class=""exp-image"">
                    <div class=""question-area"">
                        <p style=""font-size: 20px; font-weight: bold; margin: 0;"">Is there a person in this image?</p>
                    </div>
                </div>","1","main_experiment_trial","1","supermarket_scheme","schematic_sequence","","","","",""
"","","","","","html-keyboard-response","145","596547","0.0-145.0","480624F7D2124687AD60694DFA6D7702","019cf516-970d-7ebf-86b9-d06715add293","019cf509-e3f1-72d9-bf6b-e2f1118fdaab","","null","
                <div class=""stimulus-container"">
                    <img src=""images/schematic_sequence/supermarket_scheme/supermarket_scheme_2.png"" class=""exp-image"">
                    <div class=""question-area""></div> 
                </div>","null","","","","","","","","",""
"","","","","","html-button-response","146","597360","0.0-146.0","480624F7D2124687AD60694DFA6D7702","019cf516-970d-7ebf-86b9-d06715add293","019cf509-e3f1-72d9-bf6b-e2f1118fdaab","","812","
                <div class=""stimulus-container"">
                    <img src=""images/schematic_sequence/supermarket_scheme/supermarket_scheme_2.png"" class=""exp-image"">
                    <div class=""question-area"">
                        <p style=""font-size: 20px; font-weight: bold; margin: 0;"">Is there a person in this image?</p>
                    </div>
                </div>","1","main_experiment_trial","2","supermarket_scheme","schematic_sequence","","","","",""
"","","","","","html-keyboard-response","147","602361","0.0-147.0","480624F7D2124687AD60694DFA6D7702","019cf516-970d-7ebf-86b9-d06715add293","019cf509-e3f1-72d9-bf6b-e2f1118fdaab","","null","
                <div class=""stimulus-container"">
                    <img src=""images/schematic_sequence/supermarket_scheme/supermarket_scheme_3.png"" class=""exp-image"">
                    <div class=""question-area""></div> 
                </div>","null","","","","","","","","",""
"","","","","","html-button-response","148","603058","0.0-148.0","480624F7D2124687AD60694DFA6D7702","019cf516-970d-7ebf-86b9-d06715add293","019cf509-e3f1-72d9-bf6b-e2f1118fdaab","","695","
                <div class=""stimulus-container"">
                    <img src=""images/schematic_sequence/supermarket_scheme/supermarket_scheme_3.png"" class=""exp-image"">
                    <div class=""question-area"">
                        <p style=""font-size: 20px; font-weight: bold; margin: 0;"">Is there a person in this image?</p>
                    </div>
                </div>","1","main_experiment_trial","3","supermarket_scheme","schematic_sequence","","","","",""
"","","","","","html-keyboard-response","149","608067","0.0-149.0","480624F7D2124687AD60694DFA6D7702","019cf516-970d-7ebf-86b9-d06715add293","019cf509-e3f1-72d9-bf6b-e2f1118fdaab","","null","
                <div class=""stimulus-container"">
                    <img src=""images/schematic_sequence/supermarket_scheme/supermarket_scheme_4.png"" class=""exp-image"">
                    <div class=""question-area""></div> 
                </div>","null","","","","","","","","",""
"","","","","","html-button-response","150","608717","0.0-150.0","480624F7D2124687AD60694DFA6D7702","019cf516-970d-7ebf-86b9-d06715add293","019cf509-e3f1-72d9-bf6b-e2f1118fdaab","","648","
                <div class=""stimulus-container"">
                    <img src=""images/schematic_sequence/supermarket_scheme/supermarket_scheme_4.png"" class=""exp-image"">
                    <div class=""question-area"">
                        <p style=""font-size: 20px; font-weight: bold; margin: 0;"">Is there a person in this image?</p>
                    </div>
                </div>","0","main_experiment_trial","4","supermarket_scheme","schematic_sequence","","","","",""
"","","","","","html-keyboard-response","151","613725","0.0-151.0","480624F7D2124687AD60694DFA6D7702","019cf516-970d-7ebf-86b9-d06715add293","019cf509-e3f1-72d9-bf6b-e2f1118fdaab","","null","
                <div class=""stimulus-container"">
                    <img src=""images/schematic_sequence/supermarket_scheme/supermarket_scheme_5.png"" class=""exp-image"">
                    <div class=""question-area""></div> 
                </div>","null","","","","","","","","",""
"","","","","","html-button-response","152","614317","0.0-152.0","480624F7D2124687AD60694DFA6D7702","019cf516-970d-7ebf-86b9-d06715add293","019cf509-e3f1-72d9-bf6b-e2f1118fdaab","","591","
                <div class=""stimulus-container"">
                    <img src=""images/schematic_sequence/supermarket_scheme/supermarket_scheme_5.png"" class=""exp-image"">
                    <div class=""question-area"">
                        <p style=""font-size: 20px; font-weight: bold; margin: 0;"">Is there a person in this image?</p>
                    </div>
                </div>","1","main_experiment_trial","5","supermarket_scheme","schematic_sequence","","","","",""
"","","","","","html-keyboard-response","153","619327","0.0-153.0","480624F7D2124687AD60694DFA6D7702","019cf516-970d-7ebf-86b9-d06715add293","019cf509-e3f1-72d9-bf6b-e2f1118fdaab","","null","
                <div class=""stimulus-container"">
                    <img src=""images/schematic_sequence/supermarket_scheme/supermarket_scheme_6.png"" class=""exp-image"">
                    <div class=""question-area""></div> 
                </div>","null","","","","","","","","",""
"","","","","","html-button-response","154","620060","0.0-154.0","480624F7D2124687AD60694DFA6D7702","019cf516-970d-7ebf-86b9-d06715add293","019cf509-e3f1-72d9-bf6b-e2f1118fdaab","","731","
                <div class=""stimulus-container"">
                    <img src=""images/schematic_sequence/supermarket_scheme/supermarket_scheme_6.png"" class=""exp-image"">
                    <div class=""question-area"">
                        <p style=""font-size: 20px; font-weight: bold; margin: 0;"">Is there a person in this image?</p>
                    </div>
                </div>","0","main_experiment_trial","6","supermarket_scheme","schematic_sequence","","","","",""
"","","","","","html-keyboard-response","155","625072","0.0-155.0","480624F7D2124687AD60694DFA6D7702","019cf516-970d-7ebf-86b9-d06715add293","019cf509-e3f1-72d9-bf6b-e2f1118fdaab","","null","
                <div class=""stimulus-container"">
                    <img src=""images/schematic_sequence/supermarket_scheme/supermarket_scheme_7.png"" class=""exp-image"">
                    <div class=""question-area""></div> 
                </div>","null","","","","","","","","",""
"","","","","","html-button-response","156","625891","0.0-156.0","480624F7D2124687AD60694DFA6D7702","019cf516-970d-7ebf-86b9-d06715add293","019cf509-e3f1-72d9-bf6b-e2f1118fdaab","","817","
                <div class=""stimulus-container"">
                    <img src=""images/schematic_sequence/supermarket_scheme/supermarket_scheme_7.png"" class=""exp-image"">
                    <div class=""question-area"">
                        <p style=""font-size: 20px; font-weight: bold; margin: 0;"">Is there a person in this image?</p>
                    </div>
                </div>","0","main_experiment_trial","7","supermarket_scheme","schematic_sequence","","","","",""
"","","","","","html-keyboard-response","157","630900","0.0-157.0","480624F7D2124687AD60694DFA6D7702","019cf516-970d-7ebf-86b9-d06715add293","019cf509-e3f1-72d9-bf6b-e2f1118fdaab","","null","
                <div class=""stimulus-container"">
                    <img src=""images/schematic_sequence/supermarket_scheme/supermarket_scheme_8.png"" class=""exp-image"">
                    <div class=""question-area""></div> 
                </div>","null","","","","","","","","",""
"","","","","","html-button-response","158","631417","0.0-158.0","480624F7D2124687AD60694DFA6D7702","019cf516-970d-7ebf-86b9-d06715add293","019cf509-e3f1-72d9-bf6b-e2f1118fdaab","","515","
                <div class=""stimulus-container"">
                    <img src=""images/schematic_sequence/supermarket_scheme/supermarket_scheme_8.png"" class=""exp-image"">
                    <div class=""question-area"">
                        <p style=""font-size: 20px; font-weight: bold; margin: 0;"">Is there a person in this image?</p>
                    </div>
                </div>","0","main_experiment_trial","8","supermarket_scheme","schematic_sequence","","","","",""
"","","","","","html-keyboard-response","159","636426","0.0-159.0","480624F7D2124687AD60694DFA6D7702","019cf516-970d-7ebf-86b9-d06715add293","019cf509-e3f1-72d9-bf6b-e2f1118fdaab","","null","
                <div class=""stimulus-container"">
                    <img src=""images/schematic_sequence/supermarket_scheme/supermarket_scheme_9.png"" class=""exp-image"">
                    <div class=""question-area""></div> 
                </div>","null","","","","","","","","",""
"","","","","","html-button-response","160","637328","0.0-160.0","480624F7D2124687AD60694DFA6D7702","019cf516-970d-7ebf-86b9-d06715add293","019cf509-e3f1-72d9-bf6b-e2f1118fdaab","","901","
                <div class=""stimulus-container"">
                    <img src=""images/schematic_sequence/supermarket_scheme/supermarket_scheme_9.png"" class=""exp-image"">
                    <div class=""question-area"">
                        <p style=""font-size: 20px; font-weight: bold; margin: 0;"">Is there a person in this image?</p>
                    </div>
                </div>","0","main_experiment_trial","9","supermarket_scheme","schematic_sequence","","","","",""
"","","","","","html-keyboard-response","161","642340","0.0-161.0","480624F7D2124687AD60694DFA6D7702","019cf516-970d-7ebf-86b9-d06715add293","019cf509-e3f1-72d9-bf6b-e2f1118fdaab","","null","
                <div class=""stimulus-container"">
                    <img src=""images/schematic_sequence/supermarket_scheme/supermarket_scheme_ten.png"" class=""exp-image"">
                    <div class=""question-area""></div> 
                </div>","null","","","","","","","","",""
"","","","","","html-button-response","162","643189","0.0-162.0","480624F7D2124687AD60694DFA6D7702","019cf516-970d-7ebf-86b9-d06715add293","019cf509-e3f1-72d9-bf6b-e2f1118fdaab","","847","
                <div class=""stimulus-container"">
                    <img src=""images/schematic_sequence/supermarket_scheme/supermarket_scheme_ten.png"" class=""exp-image"">
                    <div class=""question-area"">
                        <p style=""font-size: 20px; font-weight: bold; margin: 0;"">Is there a person in this image?</p>
                    </div>
                </div>","1","main_experiment_trial","ten","supermarket_scheme","schematic_sequence","","","","",""
"","","","","","html-keyboard-response","163","644203","0.0-163.0","480624F7D2124687AD60694DFA6D7702","019cf516-970d-7ebf-86b9-d06715add293","019cf509-e3f1-72d9-bf6b-e2f1118fdaab","","null","<div style=""background-color: white; width: 100vw; height: 100vh;""></div>","null","","","","","","","","",""
"","","","","","html-keyboard-response","164","649210","0.0-164.0","480624F7D2124687AD60694DFA6D7702","019cf516-970d-7ebf-86b9-d06715add293","019cf509-e3f1-72d9-bf6b-e2f1118fdaab","","null","
                <div class=""stimulus-container"">
                    <img src=""images/schematic_sequence/restaurant_scheme/restaurant_scheme_1.png"" class=""exp-image"">
                    <div class=""question-area""></div> 
                </div>","null","","","","","","","","",""
"","","","","","html-button-response","165","649904","0.0-165.0","480624F7D2124687AD60694DFA6D7702","019cf516-970d-7ebf-86b9-d06715add293","019cf509-e3f1-72d9-bf6b-e2f1118fdaab","","692","
                <div class=""stimulus-container"">
                    <img src=""images/schematic_sequence/restaurant_scheme/restaurant_scheme_1.png"" class=""exp-image"">
                    <div class=""question-area"">
                        <p style=""font-size: 20px; font-weight: bold; margin: 0;"">Is there a person in this image?</p>
                    </div>
                </div>","0","main_experiment_trial","1","restaurant_scheme","schematic_sequence","","","","",""
"","","","","","html-keyboard-response","166","654918","0.0-166.0","480624F7D2124687AD60694DFA6D7702","019cf516-970d-7ebf-86b9-d06715add293","019cf509-e3f1-72d9-bf6b-e2f1118fdaab","","null","
                <div class=""stimulus-container"">
                    <img src=""images/schematic_sequence/restaurant_scheme/restaurant_scheme_2.png"" class=""exp-image"">
                    <div class=""question-area""></div> 
                </div>","null","","","","","","","","",""
"","","","","","html-button-response","167","655942","0.0-167.0","480624F7D2124687AD60694DFA6D7702","019cf516-970d-7ebf-86b9-d06715add293","019cf509-e3f1-72d9-bf6b-e2f1118fdaab","","1022","
                <div class=""stimulus-container"">
                    <img src=""images/schematic_sequence/restaurant_scheme/restaurant_scheme_2.png"" class=""exp-image"">
                    <div class=""question-area"">
                        <p style=""font-size: 20px; font-weight: bold; margin: 0;"">Is there a person in this image?</p>
                    </div>
                </div>","1","main_experiment_trial","2","restaurant_scheme","schematic_sequence","","","","",""
"","","","","","html-keyboard-response","168","660955","0.0-168.0","480624F7D2124687AD60694DFA6D7702","019cf516-970d-7ebf-86b9-d06715add293","019cf509-e3f1-72d9-bf6b-e2f1118fdaab","","null","
                <div class=""stimulus-container"">
                    <img src=""images/schematic_sequence/restaurant_scheme/restaurant_scheme_3.png"" class=""exp-image"">
                    <div class=""question-area""></div> 
                </div>","null","","","","","","","","",""
"","","","","","html-button-response","169","661970","0.0-169.0","480624F7D2124687AD60694DFA6D7702","019cf516-970d-7ebf-86b9-d06715add293","019cf509-e3f1-72d9-bf6b-e2f1118fdaab","","1014","
                <div class=""stimulus-container"">
                    <img src=""images/schematic_sequence/restaurant_scheme/restaurant_scheme_3.png"" class=""exp-image"">
                    <div class=""question-area"">
                        <p style=""font-size: 20px; font-weight: bold; margin: 0;"">Is there a person in this image?</p>
                    </div>
                </div>","1","main_experiment_trial","3","restaurant_scheme","schematic_sequence","","","","",""
"","","","","","html-keyboard-response","170","666978","0.0-170.0","480624F7D2124687AD60694DFA6D7702","019cf516-970d-7ebf-86b9-d06715add293","019cf509-e3f1-72d9-bf6b-e2f1118fdaab","","null","
                <div class=""stimulus-container"">
                    <img src=""images/schematic_sequence/restaurant_scheme/restaurant_scheme_4.png"" class=""exp-image"">
                    <div class=""question-area""></div> 
                </div>","null","","","","","","","","",""
"","","","","","html-button-response","171","667838","0.0-171.0","480624F7D2124687AD60694DFA6D7702","019cf516-970d-7ebf-86b9-d06715add293","019cf509-e3f1-72d9-bf6b-e2f1118fdaab","","860","
                <div class=""stimulus-container"">
                    <img src=""images/schematic_sequence/restaurant_scheme/restaurant_scheme_4.png"" class=""exp-image"">
                    <div class=""question-area"">
                        <p style=""font-size: 20px; font-weight: bold; margin: 0;"">Is there a person in this image?</p>
                    </div>
                </div>","0","main_experiment_trial","4","restaurant_scheme","schematic_sequence","","","","",""
"","","","","","html-keyboard-response","172","672845","0.0-172.0","480624F7D2124687AD60694DFA6D7702","019cf516-970d-7ebf-86b9-d06715add293","019cf509-e3f1-72d9-bf6b-e2f1118fdaab","","null","
                <div class=""stimulus-container"">
                    <img src=""images/schematic_sequence/restaurant_scheme/restaurant_scheme_5.png"" class=""exp-image"">
                    <div class=""question-area""></div> 
                </div>","null","","","","","","","","",""
"","","","","","html-button-response","173","673844","0.0-173.0","480624F7D2124687AD60694DFA6D7702","019cf516-970d-7ebf-86b9-d06715add293","019cf509-e3f1-72d9-bf6b-e2f1118fdaab","","998","
                <div class=""stimulus-container"">
                    <img src=""images/schematic_sequence/restaurant_scheme/restaurant_scheme_5.png"" class=""exp-image"">
                    <div class=""question-area"">
                        <p style=""font-size: 20px; font-weight: bold; margin: 0;"">Is there a person in this image?</p>
                    </div>
                </div>","0","main_experiment_trial","5","restaurant_scheme","schematic_sequence","","","","",""
"","","","","","html-keyboard-response","174","678857","0.0-174.0","480624F7D2124687AD60694DFA6D7702","019cf516-970d-7ebf-86b9-d06715add293","019cf509-e3f1-72d9-bf6b-e2f1118fdaab","","null","
                <div class=""stimulus-container"">
                    <img src=""images/schematic_sequence/restaurant_scheme/restaurant_scheme_6.png"" class=""exp-image"">
                    <div class=""question-area""></div> 
                </div>","null","","","","","","","","",""
"","","","","","html-button-response","175","679805","0.0-175.0","480624F7D2124687AD60694DFA6D7702","019cf516-970d-7ebf-86b9-d06715add293","019cf509-e3f1-72d9-bf6b-e2f1118fdaab","","947","
                <div class=""stimulus-container"">
                    <img src=""images/schematic_sequence/restaurant_scheme/restaurant_scheme_6.png"" class=""exp-image"">
                    <div class=""question-area"">
                        <p style=""font-size: 20px; font-weight: bold; margin: 0;"">Is there a person in this image?</p>
                    </div>
                </div>","1","main_experiment_trial","6","restaurant_scheme","schematic_sequence","","","","",""
"","","","","","html-keyboard-response","176","684820","0.0-176.0","480624F7D2124687AD60694DFA6D7702","019cf516-970d-7ebf-86b9-d06715add293","019cf509-e3f1-72d9-bf6b-e2f1118fdaab","","null","
                <div class=""stimulus-container"">
                    <img src=""images/schematic_sequence/restaurant_scheme/restaurant_scheme_7.png"" class=""exp-image"">
                    <div class=""question-area""></div> 
                </div>","null","","","","","","","","",""
"","","","","","html-button-response","177","685842","0.0-177.0","480624F7D2124687AD60694DFA6D7702","019cf516-970d-7ebf-86b9-d06715add293","019cf509-e3f1-72d9-bf6b-e2f1118fdaab","","1021","
                <div class=""stimulus-container"">
                    <img src=""images/schematic_sequence/restaurant_scheme/restaurant_scheme_7.png"" class=""exp-image"">
                    <div class=""question-area"">
                        <p style=""font-size: 20px; font-weight: bold; margin: 0;"">Is there a person in this image?</p>
                    </div>
                </div>","1","main_experiment_trial","7","restaurant_scheme","schematic_sequence","","","","",""
"","","","","","html-keyboard-response","178","690851","0.0-178.0","480624F7D2124687AD60694DFA6D7702","019cf516-970d-7ebf-86b9-d06715add293","019cf509-e3f1-72d9-bf6b-e2f1118fdaab","","null","
                <div class=""stimulus-container"">
                    <img src=""images/schematic_sequence/restaurant_scheme/restaurant_scheme_8.png"" class=""exp-image"">
                    <div class=""question-area""></div> 
                </div>","null","","","","","","","","",""
"","","","","","html-button-response","179","691853","0.0-179.0","480624F7D2124687AD60694DFA6D7702","019cf516-970d-7ebf-86b9-d06715add293","019cf509-e3f1-72d9-bf6b-e2f1118fdaab","","999","
                <div class=""stimulus-container"">
                    <img src=""images/schematic_sequence/restaurant_scheme/restaurant_scheme_8.png"" class=""exp-image"">
                    <div class=""question-area"">
                        <p style=""font-size: 20px; font-weight: bold; margin: 0;"">Is there a person in this image?</p>
                    </div>
                </div>","1","main_experiment_trial","8","restaurant_scheme","schematic_sequence","","","","",""
"","","","","","html-keyboard-response","180","696868","0.0-180.0","480624F7D2124687AD60694DFA6D7702","019cf516-970d-7ebf-86b9-d06715add293","019cf509-e3f1-72d9-bf6b-e2f1118fdaab","","null","
                <div class=""stimulus-container"">
                    <img src=""images/schematic_sequence/restaurant_scheme/restaurant_scheme_9.png"" class=""exp-image"">
                    <div class=""question-area""></div> 
                </div>","null","","","","","","","","",""
"","","","","","html-button-response","181","697729","0.0-181.0","480624F7D2124687AD60694DFA6D7702","019cf516-970d-7ebf-86b9-d06715add293","019cf509-e3f1-72d9-bf6b-e2f1118fdaab","","860","
                <div class=""stimulus-container"">
                    <img src=""images/schematic_sequence/restaurant_scheme/restaurant_scheme_9.png"" class=""exp-image"">
                    <div class=""question-area"">
                        <p style=""font-size: 20px; font-weight: bold; margin: 0;"">Is there a person in this image?</p>
                    </div>
                </div>","0","main_experiment_trial","9","restaurant_scheme","schematic_sequence","","","","",""
"","","","","","html-keyboard-response","182","702743","0.0-182.0","480624F7D2124687AD60694DFA6D7702","019cf516-970d-7ebf-86b9-d06715add293","019cf509-e3f1-72d9-bf6b-e2f1118fdaab","","null","
                <div class=""stimulus-container"">
                    <img src=""images/schematic_sequence/restaurant_scheme/restaurant_scheme_ten.png"" class=""exp-image"">
                    <div class=""question-area""></div> 
