"success","timeout","failed_images","failed_audio","failed_video","trial_type","trial_index","time_elapsed","internal_node_id","subject_id","study_id","session_id","view_history","rt","stimulus","response","task","image_index","folder","sequence_type","valuable_image_index","reward_type","chosen_image_index","correct_choice"
"true","false","[]","[]","[]","preload","0","6571","0.0-0.0","E21CFBC4F83547E69F5267D142EC3831","019cef8e-0921-7b7a-8df2-a0f2955d0ffa","019cef87-c56d-7b55-9135-c5814367ec25","","","","","","","","","","","",""
"","","","","","instructions","1","10645","0.0-1.0","E21CFBC4F83547E69F5267D142EC3831","019cef8e-0921-7b7a-8df2-a0f2955d0ffa","019cef87-c56d-7b55-9135-c5814367ec25","[{""page_index"":0,""viewing_time"":4073}]","4073","","","","","","","","","",""
"","","","","","instructions","2","14636","0.0-2.0","E21CFBC4F83547E69F5267D142EC3831","019cef8e-0921-7b7a-8df2-a0f2955d0ffa","019cef87-c56d-7b55-9135-c5814367ec25","[{""page_index"":0,""viewing_time"":3991}]","3991","","","","","","","","","",""
"true","","","","","fullscreen","3","17890","0.0-3.0","E21CFBC4F83547E69F5267D142EC3831","019cef8e-0921-7b7a-8df2-a0f2955d0ffa","019cef87-c56d-7b55-9135-c5814367ec25","","2249","","","","","","","","","",""
"","","","","","instructions","4","29563","0.0-4.0","E21CFBC4F83547E69F5267D142EC3831","019cef8e-0921-7b7a-8df2-a0f2955d0ffa","019cef87-c56d-7b55-9135-c5814367ec25","[{""page_index"":0,""viewing_time"":11672}]","11672","","","","","","","","","",""
"","","","","","instructions","5","40507","0.0-5.0","E21CFBC4F83547E69F5267D142EC3831","019cef8e-0921-7b7a-8df2-a0f2955d0ffa","019cef87-c56d-7b55-9135-c5814367ec25","[{""page_index"":0,""viewing_time"":10943}]","10943","","","","","","","","","",""
"","","","","","html-keyboard-response","6","44508","0.0-6.0","E21CFBC4F83547E69F5267D142EC3831","019cef8e-0921-7b7a-8df2-a0f2955d0ffa","019cef87-c56d-7b55-9135-c5814367ec25","","null","
                <div class=""stimulus-container"">
                    <img src=""images/instructions/movie_1.png"" class=""exp-image"">
                    <div class=""question-area""></div> 
                </div>","null","","","","","","","",""
"","","","","","html-button-response","7","46532","0.0-7.0","E21CFBC4F83547E69F5267D142EC3831","019cef8e-0921-7b7a-8df2-a0f2955d0ffa","019cef87-c56d-7b55-9135-c5814367ec25","","2022","
                <div class=""stimulus-container"">
                    <img src=""images/instructions/movie_1.png"" class=""exp-image"">
                    <div class=""question-area"">
                        <p style=""font-size: 20px; font-weight: bold; margin: 0;"">Was there a person in this image?</p>
                    </div>
                </div>","0","example_question","1","","","","","",""
"","","","","","html-keyboard-response","8","50535","0.0-8.0","E21CFBC4F83547E69F5267D142EC3831","019cef8e-0921-7b7a-8df2-a0f2955d0ffa","019cef87-c56d-7b55-9135-c5814367ec25","","null","
                <div class=""stimulus-container"">
                    <img src=""images/instructions/movie_2.png"" class=""exp-image"">
                    <div class=""question-area""></div> 
                </div>","null","","","","","","","",""
"","","","","","html-button-response","9","52087","0.0-9.0","E21CFBC4F83547E69F5267D142EC3831","019cef8e-0921-7b7a-8df2-a0f2955d0ffa","019cef87-c56d-7b55-9135-c5814367ec25","","1551","
                <div class=""stimulus-container"">
                    <img src=""images/instructions/movie_2.png"" class=""exp-image"">
                    <div class=""question-area"">
                        <p style=""font-size: 20px; font-weight: bold; margin: 0;"">Was there a person in this image?</p>
                    </div>
                </div>","0","example_question","2","","","","","",""
"","","","","","html-keyboard-response","10","56102","0.0-10.0","E21CFBC4F83547E69F5267D142EC3831","019cef8e-0921-7b7a-8df2-a0f2955d0ffa","019cef87-c56d-7b55-9135-c5814367ec25","","null","
                <div class=""stimulus-container"">
                    <img src=""images/instructions/movie_3.png"" class=""exp-image"">
                    <div class=""question-area""></div> 
                </div>","null","","","","","","","",""
"","","","","","html-button-response","11","56863","0.0-11.0","E21CFBC4F83547E69F5267D142EC3831","019cef8e-0921-7b7a-8df2-a0f2955d0ffa","019cef87-c56d-7b55-9135-c5814367ec25","","760","
                <div class=""stimulus-container"">
                    <img src=""images/instructions/movie_3.png"" class=""exp-image"">
                    <div class=""question-area"">
                        <p style=""font-size: 20px; font-weight: bold; margin: 0;"">Was there a person in this image?</p>
                    </div>
                </div>","0","example_question","3","","","","","",""
"","","","","","html-keyboard-response","12","60868","0.0-12.0","E21CFBC4F83547E69F5267D142EC3831","019cef8e-0921-7b7a-8df2-a0f2955d0ffa","019cef87-c56d-7b55-9135-c5814367ec25","","null","
                <div class=""stimulus-container"">
                    <img src=""images/instructions/movie_4.png"" class=""exp-image"">
                    <div class=""question-area""></div> 
                </div>","null","","","","","","","",""
"","","","","","html-button-response","13","62158","0.0-13.0","E21CFBC4F83547E69F5267D142EC3831","019cef8e-0921-7b7a-8df2-a0f2955d0ffa","019cef87-c56d-7b55-9135-c5814367ec25","","1289","
                <div class=""stimulus-container"">
                    <img src=""images/instructions/movie_4.png"" class=""exp-image"">
                    <div class=""question-area"">
                        <p style=""font-size: 20px; font-weight: bold; margin: 0;"">Was there a person in this image?</p>
                    </div>
                </div>","0","example_question","4","","","","","",""
"","","","","","instructions","14","63595","0.0-14.0","E21CFBC4F83547E69F5267D142EC3831","019cef8e-0921-7b7a-8df2-a0f2955d0ffa","019cef87-c56d-7b55-9135-c5814367ec25","[{""page_index"":0,""viewing_time"":1437}]","1438","","","","","","","","","",""
"","","","","","instructions","15","72136","0.0-15.0","E21CFBC4F83547E69F5267D142EC3831","019cef8e-0921-7b7a-8df2-a0f2955d0ffa","019cef87-c56d-7b55-9135-c5814367ec25","[{""page_index"":0,""viewing_time"":8540}]","8540","","","","","","","","","",""
"","","","","","html-keyboard-response","16","73143","0.0-16.0","E21CFBC4F83547E69F5267D142EC3831","019cef8e-0921-7b7a-8df2-a0f2955d0ffa","019cef87-c56d-7b55-9135-c5814367ec25","","null","<div style=""background-color: white; width: 100vw; height: 100vh;""></div>","null","","","","","","","",""
"","","","","","html-keyboard-response","17","78156","0.0-17.0","E21CFBC4F83547E69F5267D142EC3831","019cef8e-0921-7b7a-8df2-a0f2955d0ffa","019cef87-c56d-7b55-9135-c5814367ec25","","null","
                <div class=""stimulus-container"">
                    <img src=""images/causal_sequence/coin_causal/coin_causal_1.png"" class=""exp-image"">
                    <div class=""question-area""></div> 
                </div>","null","","","","","","","",""
"","","","","","html-button-response","18","79588","0.0-18.0","E21CFBC4F83547E69F5267D142EC3831","019cef8e-0921-7b7a-8df2-a0f2955d0ffa","019cef87-c56d-7b55-9135-c5814367ec25","","1430","
                <div class=""stimulus-container"">
                    <img src=""images/causal_sequence/coin_causal/coin_causal_1.png"" class=""exp-image"">
                    <div class=""question-area"">
                        <p style=""font-size: 20px; font-weight: bold; margin: 0;"">Is there a person in this image?</p>
                    </div>
                </div>","0","main_experiment_trial","1","coin_causal","causal_sequence","","","",""
"","","","","","html-keyboard-response","19","84596","0.0-19.0","E21CFBC4F83547E69F5267D142EC3831","019cef8e-0921-7b7a-8df2-a0f2955d0ffa","019cef87-c56d-7b55-9135-c5814367ec25","","null","
                <div class=""stimulus-container"">
                    <img src=""images/causal_sequence/coin_causal/coin_causal_2.png"" class=""exp-image"">
                    <div class=""question-area""></div> 
                </div>","null","","","","","","","",""
"","","","","","html-button-response","20","85700","0.0-20.0","E21CFBC4F83547E69F5267D142EC3831","019cef8e-0921-7b7a-8df2-a0f2955d0ffa","019cef87-c56d-7b55-9135-c5814367ec25","","1102","
                <div class=""stimulus-container"">
                    <img src=""images/causal_sequence/coin_causal/coin_causal_2.png"" class=""exp-image"">
                    <div class=""question-area"">
                        <p style=""font-size: 20px; font-weight: bold; margin: 0;"">Is there a person in this image?</p>
                    </div>
                </div>","0","main_experiment_trial","2","coin_causal","causal_sequence","","","",""
"","","","","","html-keyboard-response","21","90714","0.0-21.0","E21CFBC4F83547E69F5267D142EC3831","019cef8e-0921-7b7a-8df2-a0f2955d0ffa","019cef87-c56d-7b55-9135-c5814367ec25","","null","
                <div class=""stimulus-container"">
                    <img src=""images/causal_sequence/coin_causal/coin_causal_3.png"" class=""exp-image"">
                    <div class=""question-area""></div> 
                </div>","null","","","","","","","",""
"","","","","","html-button-response","22","91725","0.0-22.0","E21CFBC4F83547E69F5267D142EC3831","019cef8e-0921-7b7a-8df2-a0f2955d0ffa","019cef87-c56d-7b55-9135-c5814367ec25","","1009","
                <div class=""stimulus-container"">
                    <img src=""images/causal_sequence/coin_causal/coin_causal_3.png"" class=""exp-image"">
                    <div class=""question-area"">
                        <p style=""font-size: 20px; font-weight: bold; margin: 0;"">Is there a person in this image?</p>
                    </div>
                </div>","0","main_experiment_trial","3","coin_causal","causal_sequence","","","",""
"","","","","","html-keyboard-response","23","96729","0.0-23.0","E21CFBC4F83547E69F5267D142EC3831","019cef8e-0921-7b7a-8df2-a0f2955d0ffa","019cef87-c56d-7b55-9135-c5814367ec25","","null","
                <div class=""stimulus-container"">
                    <img src=""images/causal_sequence/coin_causal/coin_causal_4.png"" class=""exp-image"">
                    <div class=""question-area""></div> 
                </div>","null","","","","","","","",""
"","","","","","html-button-response","24","97636","0.0-24.0","E21CFBC4F83547E69F5267D142EC3831","019cef8e-0921-7b7a-8df2-a0f2955d0ffa","019cef87-c56d-7b55-9135-c5814367ec25","","906","
                <div class=""stimulus-container"">
                    <img src=""images/causal_sequence/coin_causal/coin_causal_4.png"" class=""exp-image"">
                    <div class=""question-area"">
                        <p style=""font-size: 20px; font-weight: bold; margin: 0;"">Is there a person in this image?</p>
                    </div>
                </div>","0","main_experiment_trial","4","coin_causal","causal_sequence","","","",""
"","","","","","html-keyboard-response","25","102645","0.0-25.0","E21CFBC4F83547E69F5267D142EC3831","019cef8e-0921-7b7a-8df2-a0f2955d0ffa","019cef87-c56d-7b55-9135-c5814367ec25","","null","
                <div class=""stimulus-container"">
                    <img src=""images/causal_sequence/coin_causal/coin_causal_5.png"" class=""exp-image"">
                    <div class=""question-area""></div> 
                </div>","null","","","","","","","",""
"","","","","","html-button-response","26","104213","0.0-26.0","E21CFBC4F83547E69F5267D142EC3831","019cef8e-0921-7b7a-8df2-a0f2955d0ffa","019cef87-c56d-7b55-9135-c5814367ec25","","1566","
                <div class=""stimulus-container"">
                    <img src=""images/causal_sequence/coin_causal/coin_causal_5.png"" class=""exp-image"">
                    <div class=""question-area"">
                        <p style=""font-size: 20px; font-weight: bold; margin: 0;"">Is there a person in this image?</p>
                    </div>
                </div>","0","main_experiment_trial","5","coin_causal","causal_sequence","","","",""
"","","","","","html-keyboard-response","27","109227","0.0-27.0","E21CFBC4F83547E69F5267D142EC3831","019cef8e-0921-7b7a-8df2-a0f2955d0ffa","019cef87-c56d-7b55-9135-c5814367ec25","","null","
                <div class=""stimulus-container"">
                    <img src=""images/causal_sequence/coin_causal/coin_causal_6.png"" class=""exp-image"">
                    <div class=""question-area""></div> 
                </div>","null","","","","","","","",""
"","","","","","html-button-response","28","110761","0.0-28.0","E21CFBC4F83547E69F5267D142EC3831","019cef8e-0921-7b7a-8df2-a0f2955d0ffa","019cef87-c56d-7b55-9135-c5814367ec25","","1533","
                <div class=""stimulus-container"">
                    <img src=""images/causal_sequence/coin_causal/coin_causal_6.png"" class=""exp-image"">
                    <div class=""question-area"">
                        <p style=""font-size: 20px; font-weight: bold; margin: 0;"">Is there a person in this image?</p>
                    </div>
                </div>","0","main_experiment_trial","6","coin_causal","causal_sequence","","","",""
"","","","","","html-keyboard-response","29","115773","0.0-29.0","E21CFBC4F83547E69F5267D142EC3831","019cef8e-0921-7b7a-8df2-a0f2955d0ffa","019cef87-c56d-7b55-9135-c5814367ec25","","null","
                <div class=""stimulus-container"">
                    <img src=""images/causal_sequence/coin_causal/coin_causal_7.png"" class=""exp-image"">
                    <div class=""question-area""></div> 
                </div>","null","","","","","","","",""
"","","","","","html-button-response","30","117195","0.0-30.0","E21CFBC4F83547E69F5267D142EC3831","019cef8e-0921-7b7a-8df2-a0f2955d0ffa","019cef87-c56d-7b55-9135-c5814367ec25","","1421","
                <div class=""stimulus-container"">
                    <img src=""images/causal_sequence/coin_causal/coin_causal_7.png"" class=""exp-image"">
                    <div class=""question-area"">
                        <p style=""font-size: 20px; font-weight: bold; margin: 0;"">Is there a person in this image?</p>
                    </div>
                </div>","1","main_experiment_trial","7","coin_causal","causal_sequence","","","",""
"","","","","","html-keyboard-response","31","122201","0.0-31.0","E21CFBC4F83547E69F5267D142EC3831","019cef8e-0921-7b7a-8df2-a0f2955d0ffa","019cef87-c56d-7b55-9135-c5814367ec25","","null","
                <div class=""stimulus-container"">
                    <img src=""images/causal_sequence/coin_causal/coin_causal_8.png"" class=""exp-image"">
                    <div class=""question-area""></div> 
                </div>","null","","","","","","","",""
"","","","","","html-button-response","32","123838","0.0-32.0","E21CFBC4F83547E69F5267D142EC3831","019cef8e-0921-7b7a-8df2-a0f2955d0ffa","019cef87-c56d-7b55-9135-c5814367ec25","","1636","
                <div class=""stimulus-container"">
                    <img src=""images/causal_sequence/coin_causal/coin_causal_8.png"" class=""exp-image"">
                    <div class=""question-area"">
                        <p style=""font-size: 20px; font-weight: bold; margin: 0;"">Is there a person in this image?</p>
                    </div>
                </div>","0","main_experiment_trial","8","coin_causal","causal_sequence","","","",""
"","","","","","html-keyboard-response","33","128843","0.0-33.0","E21CFBC4F83547E69F5267D142EC3831","019cef8e-0921-7b7a-8df2-a0f2955d0ffa","019cef87-c56d-7b55-9135-c5814367ec25","","null","
                <div class=""stimulus-container"">
                    <img src=""images/causal_sequence/coin_causal/coin_causal_9.png"" class=""exp-image"">
                    <div class=""question-area""></div> 
                </div>","null","","","","","","","",""
"","","","","","html-button-response","34","129839","0.0-34.0","E21CFBC4F83547E69F5267D142EC3831","019cef8e-0921-7b7a-8df2-a0f2955d0ffa","019cef87-c56d-7b55-9135-c5814367ec25","","992","
                <div class=""stimulus-container"">
                    <img src=""images/causal_sequence/coin_causal/coin_causal_9.png"" class=""exp-image"">
                    <div class=""question-area"">
                        <p style=""font-size: 20px; font-weight: bold; margin: 0;"">Is there a person in this image?</p>
                    </div>
                </div>","0","main_experiment_trial","9","coin_causal","causal_sequence","","","",""
"","","","","","html-keyboard-response","35","134853","0.0-35.0","E21CFBC4F83547E69F5267D142EC3831","019cef8e-0921-7b7a-8df2-a0f2955d0ffa","019cef87-c56d-7b55-9135-c5814367ec25","","null","
                <div class=""stimulus-container"">
                    <img src=""images/causal_sequence/coin_causal/coin_causal_ten.png"" class=""exp-image"">
                    <div class=""question-area""></div> 
                </div>","null","","","","","","","",""
"","","","","","html-button-response","36","136142","0.0-36.0","E21CFBC4F83547E69F5267D142EC3831","019cef8e-0921-7b7a-8df2-a0f2955d0ffa","019cef87-c56d-7b55-9135-c5814367ec25","","1288","
                <div class=""stimulus-container"">
                    <img src=""images/causal_sequence/coin_causal/coin_causal_ten.png"" class=""exp-image"">
                    <div class=""question-area"">
                        <p style=""font-size: 20px; font-weight: bold; margin: 0;"">Is there a person in this image?</p>
                    </div>
                </div>","0","main_experiment_trial","ten","coin_causal","causal_sequence","","","",""
"","","","","","html-keyboard-response","37","137152","0.0-37.0","E21CFBC4F83547E69F5267D142EC3831","019cef8e-0921-7b7a-8df2-a0f2955d0ffa","019cef87-c56d-7b55-9135-c5814367ec25","","null","<div style=""background-color: white; width: 100vw; height: 100vh;""></div>","null","","","","","","","",""
"","","","","","html-keyboard-response","38","142158","0.0-38.0","E21CFBC4F83547E69F5267D142EC3831","019cef8e-0921-7b7a-8df2-a0f2955d0ffa","019cef87-c56d-7b55-9135-c5814367ec25","","null","
                <div class=""stimulus-container"">
                    <img src=""images/schematic_sequence/dinner_party_scheme/dinner_party_scheme_1.png"" class=""exp-image"">
                    <div class=""question-area""></div> 
                </div>","null","","","","","","","",""
"","","","","","html-button-response","39","145176","0.0-39.0","E21CFBC4F83547E69F5267D142EC3831","019cef8e-0921-7b7a-8df2-a0f2955d0ffa","019cef87-c56d-7b55-9135-c5814367ec25","","null","
                <div class=""stimulus-container"">
                    <img src=""images/schematic_sequence/dinner_party_scheme/dinner_party_scheme_1.png"" class=""exp-image"">
                    <div class=""question-area"">
                        <p style=""font-size: 20px; font-weight: bold; margin: 0;"">Is there a person in this image?</p>
                    </div>
                </div>","null","main_experiment_trial","1","dinner_party_scheme","schematic_sequence","","","",""
"","","","","","html-keyboard-response","40","150183","0.0-40.0","E21CFBC4F83547E69F5267D142EC3831","019cef8e-0921-7b7a-8df2-a0f2955d0ffa","019cef87-c56d-7b55-9135-c5814367ec25","","null","
                <div class=""stimulus-container"">
                    <img src=""images/schematic_sequence/dinner_party_scheme/dinner_party_scheme_2.png"" class=""exp-image"">
                    <div class=""question-area""></div> 
                </div>","null","","","","","","","",""
"","","","","","html-button-response","41","151480","0.0-41.0","E21CFBC4F83547E69F5267D142EC3831","019cef8e-0921-7b7a-8df2-a0f2955d0ffa","019cef87-c56d-7b55-9135-c5814367ec25","","1296","
                <div class=""stimulus-container"">
                    <img src=""images/schematic_sequence/dinner_party_scheme/dinner_party_scheme_2.png"" class=""exp-image"">
                    <div class=""question-area"">
                        <p style=""font-size: 20px; font-weight: bold; margin: 0;"">Is there a person in this image?</p>
                    </div>
                </div>","0","main_experiment_trial","2","dinner_party_scheme","schematic_sequence","","","",""
"","","","","","html-keyboard-response","42","156488","0.0-42.0","E21CFBC4F83547E69F5267D142EC3831","019cef8e-0921-7b7a-8df2-a0f2955d0ffa","019cef87-c56d-7b55-9135-c5814367ec25","","null","
                <div class=""stimulus-container"">
                    <img src=""images/schematic_sequence/dinner_party_scheme/dinner_party_scheme_3.png"" class=""exp-image"">
                    <div class=""question-area""></div> 
                </div>","null","","","","","","","",""
"","","","","","html-button-response","43","157182","0.0-43.0","E21CFBC4F83547E69F5267D142EC3831","019cef8e-0921-7b7a-8df2-a0f2955d0ffa","019cef87-c56d-7b55-9135-c5814367ec25","","693","
                <div class=""stimulus-container"">
                    <img src=""images/schematic_sequence/dinner_party_scheme/dinner_party_scheme_3.png"" class=""exp-image"">
                    <div class=""question-area"">
                        <p style=""font-size: 20px; font-weight: bold; margin: 0;"">Is there a person in this image?</p>
                    </div>
                </div>","0","main_experiment_trial","3","dinner_party_scheme","schematic_sequence","","","",""
"","","","","","html-keyboard-response","44","162188","0.0-44.0","E21CFBC4F83547E69F5267D142EC3831","019cef8e-0921-7b7a-8df2-a0f2955d0ffa","019cef87-c56d-7b55-9135-c5814367ec25","","null","
                <div class=""stimulus-container"">
                    <img src=""images/schematic_sequence/dinner_party_scheme/dinner_party_scheme_4.png"" class=""exp-image"">
                    <div class=""question-area""></div> 
                </div>","null","","","","","","","",""
"","","","","","html-button-response","45","163121","0.0-45.0","E21CFBC4F83547E69F5267D142EC3831","019cef8e-0921-7b7a-8df2-a0f2955d0ffa","019cef87-c56d-7b55-9135-c5814367ec25","","932","
                <div class=""stimulus-container"">
                    <img src=""images/schematic_sequence/dinner_party_scheme/dinner_party_scheme_4.png"" class=""exp-image"">
                    <div class=""question-area"">
                        <p style=""font-size: 20px; font-weight: bold; margin: 0;"">Is there a person in this image?</p>
                    </div>
                </div>","0","main_experiment_trial","4","dinner_party_scheme","schematic_sequence","","","",""
"","","","","","html-keyboard-response","46","168132","0.0-46.0","E21CFBC4F83547E69F5267D142EC3831","019cef8e-0921-7b7a-8df2-a0f2955d0ffa","019cef87-c56d-7b55-9135-c5814367ec25","","null","
                <div class=""stimulus-container"">
                    <img src=""images/schematic_sequence/dinner_party_scheme/dinner_party_scheme_5.png"" class=""exp-image"">
                    <div class=""question-area""></div> 
                </div>","null","","","","","","","",""
"","","","","","html-button-response","47","168941","0.0-47.0","E21CFBC4F83547E69F5267D142EC3831","019cef8e-0921-7b7a-8df2-a0f2955d0ffa","019cef87-c56d-7b55-9135-c5814367ec25","","807","
                <div class=""stimulus-container"">
                    <img src=""images/schematic_sequence/dinner_party_scheme/dinner_party_scheme_5.png"" class=""exp-image"">
                    <div class=""question-area"">
                        <p style=""font-size: 20px; font-weight: bold; margin: 0;"">Is there a person in this image?</p>
                    </div>
                </div>","0","main_experiment_trial","5","dinner_party_scheme","schematic_sequence","","","",""
"","","","","","html-keyboard-response","48","173942","0.0-48.0","E21CFBC4F83547E69F5267D142EC3831","019cef8e-0921-7b7a-8df2-a0f2955d0ffa","019cef87-c56d-7b55-9135-c5814367ec25","","null","
                <div class=""stimulus-container"">
                    <img src=""images/schematic_sequence/dinner_party_scheme/dinner_party_scheme_6.png"" class=""exp-image"">
                    <div class=""question-area""></div> 
                </div>","null","","","","","","","",""
"","","","","","html-button-response","49","175151","0.0-49.0","E21CFBC4F83547E69F5267D142EC3831","019cef8e-0921-7b7a-8df2-a0f2955d0ffa","019cef87-c56d-7b55-9135-c5814367ec25","","1208","
                <div class=""stimulus-container"">
                    <img src=""images/schematic_sequence/dinner_party_scheme/dinner_party_scheme_6.png"" class=""exp-image"">
                    <div class=""question-area"">
                        <p style=""font-size: 20px; font-weight: bold; margin: 0;"">Is there a person in this image?</p>
                    </div>
                </div>","0","main_experiment_trial","6","dinner_party_scheme","schematic_sequence","","","",""
"","","","","","html-keyboard-response","50","180152","0.0-50.0","E21CFBC4F83547E69F5267D142EC3831","019cef8e-0921-7b7a-8df2-a0f2955d0ffa","019cef87-c56d-7b55-9135-c5814367ec25","","null","
                <div class=""stimulus-container"">
                    <img src=""images/schematic_sequence/dinner_party_scheme/dinner_party_scheme_7.png"" class=""exp-image"">
                    <div class=""question-area""></div> 
                </div>","null","","","","","","","",""
"","","","","","html-button-response","51","181003","0.0-51.0","E21CFBC4F83547E69F5267D142EC3831","019cef8e-0921-7b7a-8df2-a0f2955d0ffa","019cef87-c56d-7b55-9135-c5814367ec25","","850","
                <div class=""stimulus-container"">
                    <img src=""images/schematic_sequence/dinner_party_scheme/dinner_party_scheme_7.png"" class=""exp-image"">
                    <div class=""question-area"">
                        <p style=""font-size: 20px; font-weight: bold; margin: 0;"">Is there a person in this image?</p>
                    </div>
                </div>","0","main_experiment_trial","7","dinner_party_scheme","schematic_sequence","","","",""
"","","","","","html-keyboard-response","52","186017","0.0-52.0","E21CFBC4F83547E69F5267D142EC3831","019cef8e-0921-7b7a-8df2-a0f2955d0ffa","019cef87-c56d-7b55-9135-c5814367ec25","","null","
                <div class=""stimulus-container"">
                    <img src=""images/schematic_sequence/dinner_party_scheme/dinner_party_scheme_8.png"" class=""exp-image"">
                    <div class=""question-area""></div> 
                </div>","null","","","","","","","",""
"","","","","","html-button-response","53","187577","0.0-53.0","E21CFBC4F83547E69F5267D142EC3831","019cef8e-0921-7b7a-8df2-a0f2955d0ffa","019cef87-c56d-7b55-9135-c5814367ec25","","1559","
                <div class=""stimulus-container"">
                    <img src=""images/schematic_sequence/dinner_party_scheme/dinner_party_scheme_8.png"" class=""exp-image"">
                    <div class=""question-area"">
                        <p style=""font-size: 20px; font-weight: bold; margin: 0;"">Is there a person in this image?</p>
                    </div>
                </div>","0","main_experiment_trial","8","dinner_party_scheme","schematic_sequence","","","",""
"","","","","","html-keyboard-response","54","192591","0.0-54.0","E21CFBC4F83547E69F5267D142EC3831","019cef8e-0921-7b7a-8df2-a0f2955d0ffa","019cef87-c56d-7b55-9135-c5814367ec25","","null","
                <div class=""stimulus-container"">
                    <img src=""images/schematic_sequence/dinner_party_scheme/dinner_party_scheme_9.png"" class=""exp-image"">
                    <div class=""question-area""></div> 
                </div>","null","","","","","","","",""
"","","","","","html-button-response","55","193468","0.0-55.0","E21CFBC4F83547E69F5267D142EC3831","019cef8e-0921-7b7a-8df2-a0f2955d0ffa","019cef87-c56d-7b55-9135-c5814367ec25","","876","
                <div class=""stimulus-container"">
                    <img src=""images/schematic_sequence/dinner_party_scheme/dinner_party_scheme_9.png"" class=""exp-image"">
                    <div class=""question-area"">
                        <p style=""font-size: 20px; font-weight: bold; margin: 0;"">Is there a person in this image?</p>
                    </div>
                </div>","0","main_experiment_trial","9","dinner_party_scheme","schematic_sequence","","","",""
"","","","","","html-keyboard-response","56","198476","0.0-56.0","E21CFBC4F83547E69F5267D142EC3831","019cef8e-0921-7b7a-8df2-a0f2955d0ffa","019cef87-c56d-7b55-9135-c5814367ec25","","null","
                <div class=""stimulus-container"">
                    <img src=""images/schematic_sequence/dinner_party_scheme/dinner_party_scheme_ten.png"" class=""exp-image"">
                    <div class=""question-area""></div> 
                </div>","null","","","","","","","",""
"","","","","","html-button-response","57","201478","0.0-57.0","E21CFBC4F83547E69F5267D142EC3831","019cef8e-0921-7b7a-8df2-a0f2955d0ffa","019cef87-c56d-7b55-9135-c5814367ec25","","null","
                <div class=""stimulus-container"">
                    <img src=""images/schematic_sequence/dinner_party_scheme/dinner_party_scheme_ten.png"" class=""exp-image"">
                    <div class=""question-area"">
                        <p style=""font-size: 20px; font-weight: bold; margin: 0;"">Is there a person in this image?</p>
                    </div>
                </div>","null","main_experiment_trial","ten","dinner_party_scheme","schematic_sequence","","","",""
"","","","","","html-keyboard-response","58","202486","0.0-58.0","E21CFBC4F83547E69F5267D142EC3831","019cef8e-0921-7b7a-8df2-a0f2955d0ffa","019cef87-c56d-7b55-9135-c5814367ec25","","null","<div style=""background-color: white; width: 100vw; height: 100vh;""></div>","null","","","","","","","",""
"","","","","","html-keyboard-response","59","207502","0.0-59.0","E21CFBC4F83547E69F5267D142EC3831","019cef8e-0921-7b7a-8df2-a0f2955d0ffa","019cef87-c56d-7b55-9135-c5814367ec25","","null","
                <div class=""stimulus-container"">
                    <img src=""images/causal_sequence/saving_a_cat_causal/saving_a_cat_causal_1.png"" class=""exp-image"">
                    <div class=""question-area""></div> 
                </div>","null","","","","","","","",""
"","","","","","html-button-response","60","208120","0.0-60.0","E21CFBC4F83547E69F5267D142EC3831","019cef8e-0921-7b7a-8df2-a0f2955d0ffa","019cef87-c56d-7b55-9135-c5814367ec25","","617","
                <div class=""stimulus-container"">
                    <img src=""images/causal_sequence/saving_a_cat_causal/saving_a_cat_causal_1.png"" class=""exp-image"">
                    <div class=""question-area"">
                        <p style=""font-size: 20px; font-weight: bold; margin: 0;"">Is there a person in this image?</p>
                    </div>
                </div>","0","main_experiment_trial","1","saving_a_cat_causal","causal_sequence","","","",""
"","","","","","html-keyboard-response","61","213129","0.0-61.0","E21CFBC4F83547E69F5267D142EC3831","019cef8e-0921-7b7a-8df2-a0f2955d0ffa","019cef87-c56d-7b55-9135-c5814367ec25","","null","
                <div class=""stimulus-container"">
                    <img src=""images/causal_sequence/saving_a_cat_causal/saving_a_cat_causal_2.png"" class=""exp-image"">
                    <div class=""question-area""></div> 
                </div>","null","","","","","","","",""
"","","","","","html-button-response","62","213755","0.0-62.0","E21CFBC4F83547E69F5267D142EC3831","019cef8e-0921-7b7a-8df2-a0f2955d0ffa","019cef87-c56d-7b55-9135-c5814367ec25","","625","
                <div class=""stimulus-container"">
                    <img src=""images/causal_sequence/saving_a_cat_causal/saving_a_cat_causal_2.png"" class=""exp-image"">
                    <div class=""question-area"">
                        <p style=""font-size: 20px; font-weight: bold; margin: 0;"">Is there a person in this image?</p>
                    </div>
                </div>","1","main_experiment_trial","2","saving_a_cat_causal","causal_sequence","","","",""
"","","","","","html-keyboard-response","63","218769","0.0-63.0","E21CFBC4F83547E69F5267D142EC3831","019cef8e-0921-7b7a-8df2-a0f2955d0ffa","019cef87-c56d-7b55-9135-c5814367ec25","","null","
                <div class=""stimulus-container"">
                    <img src=""images/causal_sequence/saving_a_cat_causal/saving_a_cat_causal_3.png"" class=""exp-image"">
                    <div class=""question-area""></div> 
                </div>","null","","","","","","","",""
"","","","","","html-button-response","64","219222","0.0-64.0","E21CFBC4F83547E69F5267D142EC3831","019cef8e-0921-7b7a-8df2-a0f2955d0ffa","019cef87-c56d-7b55-9135-c5814367ec25","","451","
                <div class=""stimulus-container"">
                    <img src=""images/causal_sequence/saving_a_cat_causal/saving_a_cat_causal_3.png"" class=""exp-image"">
                    <div class=""question-area"">
                        <p style=""font-size: 20px; font-weight: bold; margin: 0;"">Is there a person in this image?</p>
                    </div>
                </div>","1","main_experiment_trial","3","saving_a_cat_causal","causal_sequence","","","",""
"","","","","","html-keyboard-response","65","224239","0.0-65.0","E21CFBC4F83547E69F5267D142EC3831","019cef8e-0921-7b7a-8df2-a0f2955d0ffa","019cef87-c56d-7b55-9135-c5814367ec25","","null","
                <div class=""stimulus-container"">
                    <img src=""images/causal_sequence/saving_a_cat_causal/saving_a_cat_causal_4.png"" class=""exp-image"">
                    <div class=""question-area""></div> 
                </div>","null","","","","","","","",""
"","","","","","html-button-response","66","225928","0.0-66.0","E21CFBC4F83547E69F5267D142EC3831","019cef8e-0921-7b7a-8df2-a0f2955d0ffa","019cef87-c56d-7b55-9135-c5814367ec25","","1688","
                <div class=""stimulus-container"">
                    <img src=""images/causal_sequence/saving_a_cat_causal/saving_a_cat_causal_4.png"" class=""exp-image"">
                    <div class=""question-area"">
                        <p style=""font-size: 20px; font-weight: bold; margin: 0;"">Is there a person in this image?</p>
                    </div>
                </div>","0","main_experiment_trial","4","saving_a_cat_causal","causal_sequence","","","",""
"","","","","","html-keyboard-response","67","230935","0.0-67.0","E21CFBC4F83547E69F5267D142EC3831","019cef8e-0921-7b7a-8df2-a0f2955d0ffa","019cef87-c56d-7b55-9135-c5814367ec25","","null","
                <div class=""stimulus-container"">
                    <img src=""images/causal_sequence/saving_a_cat_causal/saving_a_cat_causal_5.png"" class=""exp-image"">
                    <div class=""question-area""></div> 
                </div>","null","","","","","","","",""
"","","","","","html-button-response","68","232272","0.0-68.0","E21CFBC4F83547E69F5267D142EC3831","019cef8e-0921-7b7a-8df2-a0f2955d0ffa","019cef87-c56d-7b55-9135-c5814367ec25","","1336","
                <div class=""stimulus-container"">
                    <img src=""images/causal_sequence/saving_a_cat_causal/saving_a_cat_causal_5.png"" class=""exp-image"">
                    <div class=""question-area"">
                        <p style=""font-size: 20px; font-weight: bold; margin: 0;"">Is there a person in this image?</p>
                    </div>
                </div>","0","main_experiment_trial","5","saving_a_cat_causal","causal_sequence","","","",""
"","","","","","html-keyboard-response","69","237278","0.0-69.0","E21CFBC4F83547E69F5267D142EC3831","019cef8e-0921-7b7a-8df2-a0f2955d0ffa","019cef87-c56d-7b55-9135-c5814367ec25","","null","
                <div class=""stimulus-container"">
                    <img src=""images/causal_sequence/saving_a_cat_causal/saving_a_cat_causal_6.png"" class=""exp-image"">
                    <div class=""question-area""></div> 
                </div>","null","","","","","","","",""
"","","","","","html-button-response","70","238461","0.0-70.0","E21CFBC4F83547E69F5267D142EC3831","019cef8e-0921-7b7a-8df2-a0f2955d0ffa","019cef87-c56d-7b55-9135-c5814367ec25","","1181","
                <div class=""stimulus-container"">
                    <img src=""images/causal_sequence/saving_a_cat_causal/saving_a_cat_causal_6.png"" class=""exp-image"">
                    <div class=""question-area"">
                        <p style=""font-size: 20px; font-weight: bold; margin: 0;"">Is there a person in this image?</p>
                    </div>
                </div>","0","main_experiment_trial","6","saving_a_cat_causal","causal_sequence","","","",""
"","","","","","html-keyboard-response","71","243470","0.0-71.0","E21CFBC4F83547E69F5267D142EC3831","019cef8e-0921-7b7a-8df2-a0f2955d0ffa","019cef87-c56d-7b55-9135-c5814367ec25","","null","
                <div class=""stimulus-container"">
                    <img src=""images/causal_sequence/saving_a_cat_causal/saving_a_cat_causal_7.png"" class=""exp-image"">
                    <div class=""question-area""></div> 
                </div>","null","","","","","","","",""
"","","","","","html-button-response","72","245413","0.0-72.0","E21CFBC4F83547E69F5267D142EC3831","019cef8e-0921-7b7a-8df2-a0f2955d0ffa","019cef87-c56d-7b55-9135-c5814367ec25","","1942","
                <div class=""stimulus-container"">
                    <img src=""images/causal_sequence/saving_a_cat_causal/saving_a_cat_causal_7.png"" class=""exp-image"">
                    <div class=""question-area"">
                        <p style=""font-size: 20px; font-weight: bold; margin: 0;"">Is there a person in this image?</p>
                    </div>
                </div>","0","main_experiment_trial","7","saving_a_cat_causal","causal_sequence","","","",""
"","","","","","html-keyboard-response","73","250425","0.0-73.0","E21CFBC4F83547E69F5267D142EC3831","019cef8e-0921-7b7a-8df2-a0f2955d0ffa","019cef87-c56d-7b55-9135-c5814367ec25","","null","
                <div class=""stimulus-container"">
                    <img src=""images/causal_sequence/saving_a_cat_causal/saving_a_cat_causal_8.png"" class=""exp-image"">
                    <div class=""question-area""></div> 
                </div>","null","","","","","","","",""
"","","","","","html-button-response","74","251433","0.0-74.0","E21CFBC4F83547E69F5267D142EC3831","019cef8e-0921-7b7a-8df2-a0f2955d0ffa","019cef87-c56d-7b55-9135-c5814367ec25","","1007","
                <div class=""stimulus-container"">
                    <img src=""images/causal_sequence/saving_a_cat_causal/saving_a_cat_causal_8.png"" class=""exp-image"">
                    <div class=""question-area"">
                        <p style=""font-size: 20px; font-weight: bold; margin: 0;"">Is there a person in this image?</p>
                    </div>
                </div>","0","main_experiment_trial","8","saving_a_cat_causal","causal_sequence","","","",""
"","","","","","html-keyboard-response","75","256434","0.0-75.0","E21CFBC4F83547E69F5267D142EC3831","019cef8e-0921-7b7a-8df2-a0f2955d0ffa","019cef87-c56d-7b55-9135-c5814367ec25","","null","
                <div class=""stimulus-container"">
                    <img src=""images/causal_sequence/saving_a_cat_causal/saving_a_cat_causal_9.png"" class=""exp-image"">
                    <div class=""question-area""></div> 
                </div>","null","","","","","","","",""
"","","","","","html-button-response","76","256931","0.0-76.0","E21CFBC4F83547E69F5267D142EC3831","019cef8e-0921-7b7a-8df2-a0f2955d0ffa","019cef87-c56d-7b55-9135-c5814367ec25","","496","
                <div class=""stimulus-container"">
                    <img src=""images/causal_sequence/saving_a_cat_causal/saving_a_cat_causal_9.png"" class=""exp-image"">
                    <div class=""question-area"">
                        <p style=""font-size: 20px; font-weight: bold; margin: 0;"">Is there a person in this image?</p>
                    </div>
                </div>","0","main_experiment_trial","9","saving_a_cat_causal","causal_sequence","","","",""
"","","","","","html-keyboard-response","77","261935","0.0-77.0","E21CFBC4F83547E69F5267D142EC3831","019cef8e-0921-7b7a-8df2-a0f2955d0ffa","019cef87-c56d-7b55-9135-c5814367ec25","","null","
                <div class=""stimulus-container"">
                    <img src=""images/causal_sequence/saving_a_cat_causal/saving_a_cat_causal_ten.png"" class=""exp-image"">
                    <div class=""question-area""></div> 
                </div>","null","","","","","","","",""
"","","","","","html-button-response","78","262883","0.0-78.0","E21CFBC4F83547E69F5267D142EC3831","019cef8e-0921-7b7a-8df2-a0f2955d0ffa","019cef87-c56d-7b55-9135-c5814367ec25","","947","
                <div class=""stimulus-container"">
                    <img src=""images/causal_sequence/saving_a_cat_causal/saving_a_cat_causal_ten.png"" class=""exp-image"">
                    <div class=""question-area"">
                        <p style=""font-size: 20px; font-weight: bold; margin: 0;"">Is there a person in this image?</p>
                    </div>
                </div>","0","main_experiment_trial","ten","saving_a_cat_causal","causal_sequence","","","",""
"","","","","","html-keyboard-response","79","263893","0.0-79.0","E21CFBC4F83547E69F5267D142EC3831","019cef8e-0921-7b7a-8df2-a0f2955d0ffa","019cef87-c56d-7b55-9135-c5814367ec25","","null","<div style=""background-color: white; width: 100vw; height: 100vh;""></div>","null","","","","","","","",""
"","","","","","html-keyboard-response","80","268896","0.0-80.0","E21CFBC4F83547E69F5267D142EC3831","019cef8e-0921-7b7a-8df2-a0f2955d0ffa","019cef87-c56d-7b55-9135-c5814367ec25","","null","
                <div class=""stimulus-container"">
                    <img src=""images/schematic_sequence/hotel_scheme/hotel_scheme_1.png"" class=""exp-image"">
                    <div class=""question-area""></div> 
                </div>","null","","","","","","","",""
"","","","","","html-button-response","81","269731","0.0-81.0","E21CFBC4F83547E69F5267D142EC3831","019cef8e-0921-7b7a-8df2-a0f2955d0ffa","019cef87-c56d-7b55-9135-c5814367ec25","","835","
                <div class=""stimulus-container"">
                    <img src=""images/schematic_sequence/hotel_scheme/hotel_scheme_1.png"" class=""exp-image"">
                    <div class=""question-area"">
                        <p style=""font-size: 20px; font-weight: bold; margin: 0;"">Is there a person in this image?</p>
                    </div>
                </div>","1","main_experiment_trial","1","hotel_scheme","schematic_sequence","","","",""
"","","","","","html-keyboard-response","82","274741","0.0-82.0","E21CFBC4F83547E69F5267D142EC3831","019cef8e-0921-7b7a-8df2-a0f2955d0ffa","019cef87-c56d-7b55-9135-c5814367ec25","","null","
                <div class=""stimulus-container"">
                    <img src=""images/schematic_sequence/hotel_scheme/hotel_scheme_2.png"" class=""exp-image"">
                    <div class=""question-area""></div> 
                </div>","null","","","","","","","",""
"","","","","","html-button-response","83","275226","0.0-83.0","E21CFBC4F83547E69F5267D142EC3831","019cef8e-0921-7b7a-8df2-a0f2955d0ffa","019cef87-c56d-7b55-9135-c5814367ec25","","484","
                <div class=""stimulus-container"">
                    <img src=""images/schematic_sequence/hotel_scheme/hotel_scheme_2.png"" class=""exp-image"">
                    <div class=""question-area"">
                        <p style=""font-size: 20px; font-weight: bold; margin: 0;"">Is there a person in this image?</p>
                    </div>
                </div>","0","main_experiment_trial","2","hotel_scheme","schematic_sequence","","","",""
"","","","","","html-keyboard-response","84","280231","0.0-84.0","E21CFBC4F83547E69F5267D142EC3831","019cef8e-0921-7b7a-8df2-a0f2955d0ffa","019cef87-c56d-7b55-9135-c5814367ec25","","null","
                <div class=""stimulus-container"">
                    <img src=""images/schematic_sequence/hotel_scheme/hotel_scheme_3.png"" class=""exp-image"">
                    <div class=""question-area""></div> 
                </div>","null","","","","","","","",""
"","","","","","html-button-response","85","280846","0.0-85.0","E21CFBC4F83547E69F5267D142EC3831","019cef8e-0921-7b7a-8df2-a0f2955d0ffa","019cef87-c56d-7b55-9135-c5814367ec25","","614","
                <div class=""stimulus-container"">
                    <img src=""images/schematic_sequence/hotel_scheme/hotel_scheme_3.png"" class=""exp-image"">
                    <div class=""question-area"">
                        <p style=""font-size: 20px; font-weight: bold; margin: 0;"">Is there a person in this image?</p>
                    </div>
                </div>","0","main_experiment_trial","3","hotel_scheme","schematic_sequence","","","",""
"","","","","","html-keyboard-response","86","285851","0.0-86.0","E21CFBC4F83547E69F5267D142EC3831","019cef8e-0921-7b7a-8df2-a0f2955d0ffa","019cef87-c56d-7b55-9135-c5814367ec25","","null","
                <div class=""stimulus-container"">
                    <img src=""images/schematic_sequence/hotel_scheme/hotel_scheme_4.png"" class=""exp-image"">
                    <div class=""question-area""></div> 
                </div>","null","","","","","","","",""
"","","","","","html-button-response","87","286254","0.0-87.0","E21CFBC4F83547E69F5267D142EC3831","019cef8e-0921-7b7a-8df2-a0f2955d0ffa","019cef87-c56d-7b55-9135-c5814367ec25","","402","
                <div class=""stimulus-container"">
                    <img src=""images/schematic_sequence/hotel_scheme/hotel_scheme_4.png"" class=""exp-image"">
                    <div class=""question-area"">
                        <p style=""font-size: 20px; font-weight: bold; margin: 0;"">Is there a person in this image?</p>
                    </div>
                </div>","1","main_experiment_trial","4","hotel_scheme","schematic_sequence","","","",""
"","","","","","html-keyboard-response","88","291265","0.0-88.0","E21CFBC4F83547E69F5267D142EC3831","019cef8e-0921-7b7a-8df2-a0f2955d0ffa","019cef87-c56d-7b55-9135-c5814367ec25","","null","
                <div class=""stimulus-container"">
                    <img src=""images/schematic_sequence/hotel_scheme/hotel_scheme_5.png"" class=""exp-image"">
                    <div class=""question-area""></div> 
                </div>","null","","","","","","","",""
"","","","","","html-button-response","89","292136","0.0-89.0","E21CFBC4F83547E69F5267D142EC3831","019cef8e-0921-7b7a-8df2-a0f2955d0ffa","019cef87-c56d-7b55-9135-c5814367ec25","","870","
                <div class=""stimulus-container"">
                    <img src=""images/schematic_sequence/hotel_scheme/hotel_scheme_5.png"" class=""exp-image"">
                    <div class=""question-area"">
                        <p style=""font-size: 20px; font-weight: bold; margin: 0;"">Is there a person in this image?</p>
                    </div>
                </div>","0","main_experiment_trial","5","hotel_scheme","schematic_sequence","","","",""
"","","","","","html-keyboard-response","90","297140","0.0-90.0","E21CFBC4F83547E69F5267D142EC3831","019cef8e-0921-7b7a-8df2-a0f2955d0ffa","019cef87-c56d-7b55-9135-c5814367ec25","","null","
                <div class=""stimulus-container"">
                    <img src=""images/schematic_sequence/hotel_scheme/hotel_scheme_6.png"" class=""exp-image"">
                    <div class=""question-area""></div> 
                </div>","null","","","","","","","",""
"","","","","","html-button-response","91","297838","0.0-91.0","E21CFBC4F83547E69F5267D142EC3831","019cef8e-0921-7b7a-8df2-a0f2955d0ffa","019cef87-c56d-7b55-9135-c5814367ec25","","697","
                <div class=""stimulus-container"">
                    <img src=""images/schematic_sequence/hotel_scheme/hotel_scheme_6.png"" class=""exp-image"">
                    <div class=""question-area"">
                        <p style=""font-size: 20px; font-weight: bold; margin: 0;"">Is there a person in this image?</p>
                    </div>
                </div>","0","main_experiment_trial","6","hotel_scheme","schematic_sequence","","","",""
"","","","","","html-keyboard-response","92","302843","0.0-92.0","E21CFBC4F83547E69F5267D142EC3831","019cef8e-0921-7b7a-8df2-a0f2955d0ffa","019cef87-c56d-7b55-9135-c5814367ec25","","null","
                <div class=""stimulus-container"">
                    <img src=""images/schematic_sequence/hotel_scheme/hotel_scheme_7.png"" class=""exp-image"">
                    <div class=""question-area""></div> 
                </div>","null","","","","","","","",""
"","","","","","html-button-response","93","303256","0.0-93.0","E21CFBC4F83547E69F5267D142EC3831","019cef8e-0921-7b7a-8df2-a0f2955d0ffa","019cef87-c56d-7b55-9135-c5814367ec25","","412","
                <div class=""stimulus-container"">
                    <img src=""images/schematic_sequence/hotel_scheme/hotel_scheme_7.png"" class=""exp-image"">
                    <div class=""question-area"">
                        <p style=""font-size: 20px; font-weight: bold; margin: 0;"">Is there a person in this image?</p>
                    </div>
                </div>","0","main_experiment_trial","7","hotel_scheme","schematic_sequence","","","",""
"","","","","","html-keyboard-response","94","308263","0.0-94.0","E21CFBC4F83547E69F5267D142EC3831","019cef8e-0921-7b7a-8df2-a0f2955d0ffa","019cef87-c56d-7b55-9135-c5814367ec25","","null","
                <div class=""stimulus-container"">
                    <img src=""images/schematic_sequence/hotel_scheme/hotel_scheme_8.png"" class=""exp-image"">
                    <div class=""question-area""></div> 
                </div>","null","","","","","","","",""
"","","","","","html-button-response","95","308787","0.0-95.0","E21CFBC4F83547E69F5267D142EC3831","019cef8e-0921-7b7a-8df2-a0f2955d0ffa","019cef87-c56d-7b55-9135-c5814367ec25","","523","
                <div class=""stimulus-container"">
                    <img src=""images/schematic_sequence/hotel_scheme/hotel_scheme_8.png"" class=""exp-image"">
                    <div class=""question-area"">
                        <p style=""font-size: 20px; font-weight: bold; margin: 0;"">Is there a person in this image?</p>
                    </div>
                </div>","0","main_experiment_trial","8","hotel_scheme","schematic_sequence","","","",""
"","","","","","html-keyboard-response","96","313802","0.0-96.0","E21CFBC4F83547E69F5267D142EC3831","019cef8e-0921-7b7a-8df2-a0f2955d0ffa","019cef87-c56d-7b55-9135-c5814367ec25","","null","
                <div class=""stimulus-container"">
                    <img src=""images/schematic_sequence/hotel_scheme/hotel_scheme_9.png"" class=""exp-image"">
                    <div class=""question-area""></div> 
                </div>","null","","","","","","","",""
"","","","","","html-button-response","97","314183","0.0-97.0","E21CFBC4F83547E69F5267D142EC3831","019cef8e-0921-7b7a-8df2-a0f2955d0ffa","019cef87-c56d-7b55-9135-c5814367ec25","","380","
                <div class=""stimulus-container"">
                    <img src=""images/schematic_sequence/hotel_scheme/hotel_scheme_9.png"" class=""exp-image"">
                    <div class=""question-area"">
                        <p style=""font-size: 20px; font-weight: bold; margin: 0;"">Is there a person in this image?</p>
                    </div>
                </div>","0","main_experiment_trial","9","hotel_scheme","schematic_sequence","","","",""
"","","","","","html-keyboard-response","98","319199","0.0-98.0","E21CFBC4F83547E69F5267D142EC3831","019cef8e-0921-7b7a-8df2-a0f2955d0ffa","019cef87-c56d-7b55-9135-c5814367ec25","","null","
                <div class=""stimulus-container"">
                    <img src=""images/schematic_sequence/hotel_scheme/hotel_scheme_ten.png"" class=""exp-image"">
                    <div class=""question-area""></div> 
                </div>","null","","","","","","","",""
"","","","","","html-button-response","99","319743","0.0-99.0","E21CFBC4F83547E69F5267D142EC3831","019cef8e-0921-7b7a-8df2-a0f2955d0ffa","019cef87-c56d-7b55-9135-c5814367ec25","","543","
                <div class=""stimulus-container"">
                    <img src=""images/schematic_sequence/hotel_scheme/hotel_scheme_ten.png"" class=""exp-image"">
                    <div class=""question-area"">
                        <p style=""font-size: 20px; font-weight: bold; margin: 0;"">Is there a person in this image?</p>
                    </div>
                </div>","0","main_experiment_trial","ten","hotel_scheme","schematic_sequence","","","",""
"","","","","","html-keyboard-response","100","320754","0.0-100.0","E21CFBC4F83547E69F5267D142EC3831","019cef8e-0921-7b7a-8df2-a0f2955d0ffa","019cef87-c56d-7b55-9135-c5814367ec25","","null","<div style=""background-color: white; width: 100vw; height: 100vh;""></div>","null","","","","","","","",""
"","","","","","html-keyboard-response","101","325764","0.0-101.0","E21CFBC4F83547E69F5267D142EC3831","019cef8e-0921-7b7a-8df2-a0f2955d0ffa","019cef87-c56d-7b55-9135-c5814367ec25","","null","
                <div class=""stimulus-container"">
                    <img src=""images/causal_sequence/the_performance_causal/the_performance_causal_1.png"" class=""exp-image"">
                    <div class=""question-area""></div> 
                </div>","null","","","","","","","",""
"","","","","","html-button-response","102","326331","0.0-102.0","E21CFBC4F83547E69F5267D142EC3831","019cef8e-0921-7b7a-8df2-a0f2955d0ffa","019cef87-c56d-7b55-9135-c5814367ec25","","566","
                <div class=""stimulus-container"">
                    <img src=""images/causal_sequence/the_performance_causal/the_performance_causal_1.png"" class=""exp-image"">
                    <div class=""question-area"">
                        <p style=""font-size: 20px; font-weight: bold; margin: 0;"">Is there a person in this image?</p>
                    </div>
                </div>","0","main_experiment_trial","1","the_performance_causal","causal_sequence","","","",""
"","","","","","html-keyboard-response","103","331336","0.0-103.0","E21CFBC4F83547E69F5267D142EC3831","019cef8e-0921-7b7a-8df2-a0f2955d0ffa","019cef87-c56d-7b55-9135-c5814367ec25","","null","
                <div class=""stimulus-container"">
                    <img src=""images/causal_sequence/the_performance_causal/the_performance_causal_2.png"" class=""exp-image"">
                    <div class=""question-area""></div> 
                </div>","null","","","","","","","",""
"","","","","","html-button-response","104","331841","0.0-104.0","E21CFBC4F83547E69F5267D142EC3831","019cef8e-0921-7b7a-8df2-a0f2955d0ffa","019cef87-c56d-7b55-9135-c5814367ec25","","504","
                <div class=""stimulus-container"">
                    <img src=""images/causal_sequence/the_performance_causal/the_performance_causal_2.png"" class=""exp-image"">
                    <div class=""question-area"">
                        <p style=""font-size: 20px; font-weight: bold; margin: 0;"">Is there a person in this image?</p>
                    </div>
                </div>","0","main_experiment_trial","2","the_performance_causal","causal_sequence","","","",""
"","","","","","html-keyboard-response","105","336844","0.0-105.0","E21CFBC4F83547E69F5267D142EC3831","019cef8e-0921-7b7a-8df2-a0f2955d0ffa","019cef87-c56d-7b55-9135-c5814367ec25","","null","
                <div class=""stimulus-container"">
                    <img src=""images/causal_sequence/the_performance_causal/the_performance_causal_3.png"" class=""exp-image"">
                    <div class=""question-area""></div> 
                </div>","null","","","","","","","",""
"","","","","","html-button-response","106","337338","0.0-106.0","E21CFBC4F83547E69F5267D142EC3831","019cef8e-0921-7b7a-8df2-a0f2955d0ffa","019cef87-c56d-7b55-9135-c5814367ec25","","492","
                <div class=""stimulus-container"">
                    <img src=""images/causal_sequence/the_performance_causal/the_performance_causal_3.png"" class=""exp-image"">
                    <div class=""question-area"">
                        <p style=""font-size: 20px; font-weight: bold; margin: 0;"">Is there a person in this image?</p>
                    </div>
                </div>","0","main_experiment_trial","3","the_performance_causal","causal_sequence","","","",""
"","","","","","html-keyboard-response","107","342344","0.0-107.0","E21CFBC4F83547E69F5267D142EC3831","019cef8e-0921-7b7a-8df2-a0f2955d0ffa","019cef87-c56d-7b55-9135-c5814367ec25","","null","
                <div class=""stimulus-container"">
                    <img src=""images/causal_sequence/the_performance_causal/the_performance_causal_4.png"" class=""exp-image"">
                    <div class=""question-area""></div> 
                </div>","null","","","","","","","",""
"","","","","","html-button-response","108","344246","0.0-108.0","E21CFBC4F83547E69F5267D142EC3831","019cef8e-0921-7b7a-8df2-a0f2955d0ffa","019cef87-c56d-7b55-9135-c5814367ec25","","1901","
                <div class=""stimulus-container"">
                    <img src=""images/causal_sequence/the_performance_causal/the_performance_causal_4.png"" class=""exp-image"">
                    <div class=""question-area"">
                        <p style=""font-size: 20px; font-weight: bold; margin: 0;"">Is there a person in this image?</p>
                    </div>
                </div>","0","main_experiment_trial","4","the_performance_causal","causal_sequence","","","",""
"","","","","","html-keyboard-response","109","349256","0.0-109.0","E21CFBC4F83547E69F5267D142EC3831","019cef8e-0921-7b7a-8df2-a0f2955d0ffa","019cef87-c56d-7b55-9135-c5814367ec25","","null","
                <div class=""stimulus-container"">
                    <img src=""images/causal_sequence/the_performance_causal/the_performance_causal_5.png"" class=""exp-image"">
                    <div class=""question-area""></div> 
                </div>","null","","","","","","","",""
"","","","","","html-button-response","110","349928","0.0-110.0","E21CFBC4F83547E69F5267D142EC3831","019cef8e-0921-7b7a-8df2-a0f2955d0ffa","019cef87-c56d-7b55-9135-c5814367ec25","","671","
                <div class=""stimulus-container"">
                    <img src=""images/causal_sequence/the_performance_causal/the_performance_causal_5.png"" class=""exp-image"">
                    <div class=""question-area"">
                        <p style=""font-size: 20px; font-weight: bold; margin: 0;"">Is there a person in this image?</p>
                    </div>
                </div>","0","main_experiment_trial","5","the_performance_causal","causal_sequence","","","",""
"","","","","","html-keyboard-response","111","354933","0.0-111.0","E21CFBC4F83547E69F5267D142EC3831","019cef8e-0921-7b7a-8df2-a0f2955d0ffa","019cef87-c56d-7b55-9135-c5814367ec25","","null","
                <div class=""stimulus-container"">
                    <img src=""images/causal_sequence/the_performance_causal/the_performance_causal_6.png"" class=""exp-image"">
                    <div class=""question-area""></div> 
                </div>","null","","","","","","","",""
"","","","","","html-button-response","112","355386","0.0-112.0","E21CFBC4F83547E69F5267D142EC3831","019cef8e-0921-7b7a-8df2-a0f2955d0ffa","019cef87-c56d-7b55-9135-c5814367ec25","","452","
                <div class=""stimulus-container"">
                    <img src=""images/causal_sequence/the_performance_causal/the_performance_causal_6.png"" class=""exp-image"">
                    <div class=""question-area"">
                        <p style=""font-size: 20px; font-weight: bold; margin: 0;"">Is there a person in this image?</p>
                    </div>
                </div>","0","main_experiment_trial","6","the_performance_causal","causal_sequence","","","",""
"","","","","","html-keyboard-response","113","360399","0.0-113.0","E21CFBC4F83547E69F5267D142EC3831","019cef8e-0921-7b7a-8df2-a0f2955d0ffa","019cef87-c56d-7b55-9135-c5814367ec25","","null","
                <div class=""stimulus-container"">
                    <img src=""images/causal_sequence/the_performance_causal/the_performance_causal_7.png"" class=""exp-image"">
                    <div class=""question-area""></div> 
                </div>","null","","","","","","","",""
"","","","","","html-button-response","114","361200","0.0-114.0","E21CFBC4F83547E69F5267D142EC3831","019cef8e-0921-7b7a-8df2-a0f2955d0ffa","019cef87-c56d-7b55-9135-c5814367ec25","","800","
                <div class=""stimulus-container"">
                    <img src=""images/causal_sequence/the_performance_causal/the_performance_causal_7.png"" class=""exp-image"">
                    <div class=""question-area"">
                        <p style=""font-size: 20px; font-weight: bold; margin: 0;"">Is there a person in this image?</p>
                    </div>
                </div>","0","main_experiment_trial","7","the_performance_causal","causal_sequence","","","",""
"","","","","","html-keyboard-response","115","366215","0.0-115.0","E21CFBC4F83547E69F5267D142EC3831","019cef8e-0921-7b7a-8df2-a0f2955d0ffa","019cef87-c56d-7b55-9135-c5814367ec25","","null","
                <div class=""stimulus-container"">
                    <img src=""images/causal_sequence/the_performance_causal/the_performance_causal_8.png"" class=""exp-image"">
                    <div class=""question-area""></div> 
                </div>","null","","","","","","","",""
"","","","","","html-button-response","116","366805","0.0-116.0","E21CFBC4F83547E69F5267D142EC3831","019cef8e-0921-7b7a-8df2-a0f2955d0ffa","019cef87-c56d-7b55-9135-c5814367ec25","","588","
                <div class=""stimulus-container"">
                    <img src=""images/causal_sequence/the_performance_causal/the_performance_causal_8.png"" class=""exp-image"">
                    <div class=""question-area"">
                        <p style=""font-size: 20px; font-weight: bold; margin: 0;"">Is there a person in this image?</p>
                    </div>
                </div>","0","main_experiment_trial","8","the_performance_causal","causal_sequence","","","",""
"","","","","","html-keyboard-response","117","371819","0.0-117.0","E21CFBC4F83547E69F5267D142EC3831","019cef8e-0921-7b7a-8df2-a0f2955d0ffa","019cef87-c56d-7b55-9135-c5814367ec25","","null","
                <div class=""stimulus-container"">
                    <img src=""images/causal_sequence/the_performance_causal/the_performance_causal_9.png"" class=""exp-image"">
                    <div class=""question-area""></div> 
                </div>","null","","","","","","","",""
"","","","","","html-button-response","118","372590","0.0-118.0","E21CFBC4F83547E69F5267D142EC3831","019cef8e-0921-7b7a-8df2-a0f2955d0ffa","019cef87-c56d-7b55-9135-c5814367ec25","","770","
                <div class=""stimulus-container"">
                    <img src=""images/causal_sequence/the_performance_causal/the_performance_causal_9.png"" class=""exp-image"">
                    <div class=""question-area"">
                        <p style=""font-size: 20px; font-weight: bold; margin: 0;"">Is there a person in this image?</p>
                    </div>
                </div>","0","main_experiment_trial","9","the_performance_causal","causal_sequence","","","",""
"","","","","","html-keyboard-response","119","377622","0.0-119.0","E21CFBC4F83547E69F5267D142EC3831","019cef8e-0921-7b7a-8df2-a0f2955d0ffa","019cef87-c56d-7b55-9135-c5814367ec25","","null","
                <div class=""stimulus-container"">
                    <img src=""images/causal_sequence/the_performance_causal/the_performance_causal_ten.png"" class=""exp-image"">
                    <div class=""question-area""></div> 
                </div>","null","","","","","","","",""
"","","","","","html-button-response","120","378013","0.0-120.0","E21CFBC4F83547E69F5267D142EC3831","019cef8e-0921-7b7a-8df2-a0f2955d0ffa","019cef87-c56d-7b55-9135-c5814367ec25","","390","
                <div class=""stimulus-container"">
                    <img src=""images/causal_sequence/the_performance_causal/the_performance_causal_ten.png"" class=""exp-image"">
                    <div class=""question-area"">
                        <p style=""font-size: 20px; font-weight: bold; margin: 0;"">Is there a person in this image?</p>
                    </div>
                </div>","0","main_experiment_trial","ten","the_performance_causal","causal_sequence","","","",""
"","","","","","html-keyboard-response","121","379025","0.0-121.0","E21CFBC4F83547E69F5267D142EC3831","019cef8e-0921-7b7a-8df2-a0f2955d0ffa","019cef87-c56d-7b55-9135-c5814367ec25","","null","<div style=""background-color: white; width: 100vw; height: 100vh;""></div>","null","","","","","","","",""
"","","","","","html-keyboard-response","122","384028","0.0-122.0","E21CFBC4F83547E69F5267D142EC3831","019cef8e-0921-7b7a-8df2-a0f2955d0ffa","019cef87-c56d-7b55-9135-c5814367ec25","","null","
                <div class=""stimulus-container"">
                    <img src=""images/schematic_sequence/flight_scheme/flight_scheme_1.png"" class=""exp-image"">
                    <div class=""question-area""></div> 
                </div>","null","","","","","","","",""
"","","","","","html-button-response","123","385467","0.0-123.0","E21CFBC4F83547E69F5267D142EC3831","019cef8e-0921-7b7a-8df2-a0f2955d0ffa","019cef87-c56d-7b55-9135-c5814367ec25","","1438","
                <div class=""stimulus-container"">
                    <img src=""images/schematic_sequence/flight_scheme/flight_scheme_1.png"" class=""exp-image"">
                    <div class=""question-area"">
                        <p style=""font-size: 20px; font-weight: bold; margin: 0;"">Is there a person in this image?</p>
                    </div>
                </div>","0","main_experiment_trial","1","flight_scheme","schematic_sequence","","","",""
"","","","","","html-keyboard-response","124","390471","0.0-124.0","E21CFBC4F83547E69F5267D142EC3831","019cef8e-0921-7b7a-8df2-a0f2955d0ffa","019cef87-c56d-7b55-9135-c5814367ec25","","null","
                <div class=""stimulus-container"">
                    <img src=""images/schematic_sequence/flight_scheme/flight_scheme_2.png"" class=""exp-image"">
                    <div class=""question-area""></div> 
                </div>","null","","","","","","","",""
"","","","","","html-button-response","125","391050","0.0-125.0","E21CFBC4F83547E69F5267D142EC3831","019cef8e-0921-7b7a-8df2-a0f2955d0ffa","019cef87-c56d-7b55-9135-c5814367ec25","","578","
                <div class=""stimulus-container"">
                    <img src=""images/schematic_sequence/flight_scheme/flight_scheme_2.png"" class=""exp-image"">
                    <div class=""question-area"">
                        <p style=""font-size: 20px; font-weight: bold; margin: 0;"">Is there a person in this image?</p>
                    </div>
                </div>","1","main_experiment_trial","2","flight_scheme","schematic_sequence","","","",""
"","","","","","html-keyboard-response","126","396065","0.0-126.0","E21CFBC4F83547E69F5267D142EC3831","019cef8e-0921-7b7a-8df2-a0f2955d0ffa","019cef87-c56d-7b55-9135-c5814367ec25","","null","
                <div class=""stimulus-container"">
                    <img src=""images/schematic_sequence/flight_scheme/flight_scheme_3.png"" class=""exp-image"">
                    <div class=""question-area""></div> 
                </div>","null","","","","","","","",""
"","","","","","html-button-response","127","396517","0.0-127.0","E21CFBC4F83547E69F5267D142EC3831","019cef8e-0921-7b7a-8df2-a0f2955d0ffa","019cef87-c56d-7b55-9135-c5814367ec25","","452","
                <div class=""stimulus-container"">
                    <img src=""images/schematic_sequence/flight_scheme/flight_scheme_3.png"" class=""exp-image"">
                    <div class=""question-area"">
                        <p style=""font-size: 20px; font-weight: bold; margin: 0;"">Is there a person in this image?</p>
                    </div>
                </div>","0","main_experiment_trial","3","flight_scheme","schematic_sequence","","","",""
"","","","","","html-keyboard-response","128","401533","0.0-128.0","E21CFBC4F83547E69F5267D142EC3831","019cef8e-0921-7b7a-8df2-a0f2955d0ffa","019cef87-c56d-7b55-9135-c5814367ec25","","null","
                <div class=""stimulus-container"">
                    <img src=""images/schematic_sequence/flight_scheme/flight_scheme_4.png"" class=""exp-image"">
                    <div class=""question-area""></div> 
                </div>","null","","","","","","","",""
"","","","","","html-button-response","129","402101","0.0-129.0","E21CFBC4F83547E69F5267D142EC3831","019cef8e-0921-7b7a-8df2-a0f2955d0ffa","019cef87-c56d-7b55-9135-c5814367ec25","","567","
                <div class=""stimulus-container"">
                    <img src=""images/schematic_sequence/flight_scheme/flight_scheme_4.png"" class=""exp-image"">
                    <div class=""question-area"">
                        <p style=""font-size: 20px; font-weight: bold; margin: 0;"">Is there a person in this image?</p>
                    </div>
                </div>","0","main_experiment_trial","4","flight_scheme","schematic_sequence","","","",""
"","","","","","html-keyboard-response","130","407107","0.0-130.0","E21CFBC4F83547E69F5267D142EC3831","019cef8e-0921-7b7a-8df2-a0f2955d0ffa","019cef87-c56d-7b55-9135-c5814367ec25","","null","
                <div class=""stimulus-container"">
                    <img src=""images/schematic_sequence/flight_scheme/flight_scheme_5.png"" class=""exp-image"">
                    <div class=""question-area""></div> 
                </div>","null","","","","","","","",""
"","","","","","html-button-response","131","407662","0.0-131.0","E21CFBC4F83547E69F5267D142EC3831","019cef8e-0921-7b7a-8df2-a0f2955d0ffa","019cef87-c56d-7b55-9135-c5814367ec25","","554","
                <div class=""stimulus-container"">
                    <img src=""images/schematic_sequence/flight_scheme/flight_scheme_5.png"" class=""exp-image"">
                    <div class=""question-area"">
                        <p style=""font-size: 20px; font-weight: bold; margin: 0;"">Is there a person in this image?</p>
                    </div>
                </div>","0","main_experiment_trial","5","flight_scheme","schematic_sequence","","","",""
"","","","","","html-keyboard-response","132","412669","0.0-132.0","E21CFBC4F83547E69F5267D142EC3831","019cef8e-0921-7b7a-8df2-a0f2955d0ffa","019cef87-c56d-7b55-9135-c5814367ec25","","null","
                <div class=""stimulus-container"">
                    <img src=""images/schematic_sequence/flight_scheme/flight_scheme_6.png"" class=""exp-image"">
                    <div class=""question-area""></div> 
                </div>","null","","","","","","","",""
"","","","","","html-button-response","133","413168","0.0-133.0","E21CFBC4F83547E69F5267D142EC3831","019cef8e-0921-7b7a-8df2-a0f2955d0ffa","019cef87-c56d-7b55-9135-c5814367ec25","","497","
                <div class=""stimulus-container"">
                    <img src=""images/schematic_sequence/flight_scheme/flight_scheme_6.png"" class=""exp-image"">
                    <div class=""question-area"">
                        <p style=""font-size: 20px; font-weight: bold; margin: 0;"">Is there a person in this image?</p>
                    </div>
                </div>","1","main_experiment_trial","6","flight_scheme","schematic_sequence","","","",""
"","","","","","html-keyboard-response","134","418181","0.0-134.0","E21CFBC4F83547E69F5267D142EC3831","019cef8e-0921-7b7a-8df2-a0f2955d0ffa","019cef87-c56d-7b55-9135-c5814367ec25","","null","
                <div class=""stimulus-container"">
                    <img src=""images/schematic_sequence/flight_scheme/flight_scheme_7.png"" class=""exp-image"">
                    <div class=""question-area""></div> 
                </div>","null","","","","","","","",""
"","","","","","html-button-response","135","418654","0.0-135.0","E21CFBC4F83547E69F5267D142EC3831","019cef8e-0921-7b7a-8df2-a0f2955d0ffa","019cef87-c56d-7b55-9135-c5814367ec25","","471","
                <div class=""stimulus-container"">
                    <img src=""images/schematic_sequence/flight_scheme/flight_scheme_7.png"" class=""exp-image"">
                    <div class=""question-area"">
                        <p style=""font-size: 20px; font-weight: bold; margin: 0;"">Is there a person in this image?</p>
                    </div>
                </div>","1","main_experiment_trial","7","flight_scheme","schematic_sequence","","","",""
"","","","","","html-keyboard-response","136","423665","0.0-136.0","E21CFBC4F83547E69F5267D142EC3831","019cef8e-0921-7b7a-8df2-a0f2955d0ffa","019cef87-c56d-7b55-9135-c5814367ec25","","null","
                <div class=""stimulus-container"">
                    <img src=""images/schematic_sequence/flight_scheme/flight_scheme_8.png"" class=""exp-image"">
                    <div class=""question-area""></div> 
                </div>","null","","","","","","","",""
"","","","","","html-button-response","137","424176","0.0-137.0","E21CFBC4F83547E69F5267D142EC3831","019cef8e-0921-7b7a-8df2-a0f2955d0ffa","019cef87-c56d-7b55-9135-c5814367ec25","","510","
                <div class=""stimulus-container"">
                    <img src=""images/schematic_sequence/flight_scheme/flight_scheme_8.png"" class=""exp-image"">
                    <div class=""question-area"">
                        <p style=""font-size: 20px; font-weight: bold; margin: 0;"">Is there a person in this image?</p>
                    </div>
                </div>","1","main_experiment_trial","8","flight_scheme","schematic_sequence","","","",""
"","","","","","html-keyboard-response","138","429186","0.0-138.0","E21CFBC4F83547E69F5267D142EC3831","019cef8e-0921-7b7a-8df2-a0f2955d0ffa","019cef87-c56d-7b55-9135-c5814367ec25","","null","
                <div class=""stimulus-container"">
                    <img src=""images/schematic_sequence/flight_scheme/flight_scheme_9.png"" class=""exp-image"">
                    <div class=""question-area""></div> 
                </div>","null","","","","","","","",""
"","","","","","html-button-response","139","429690","0.0-139.0","E21CFBC4F83547E69F5267D142EC3831","019cef8e-0921-7b7a-8df2-a0f2955d0ffa","019cef87-c56d-7b55-9135-c5814367ec25","","503","
                <div class=""stimulus-container"">
                    <img src=""images/schematic_sequence/flight_scheme/flight_scheme_9.png"" class=""exp-image"">
                    <div class=""question-area"">
                        <p style=""font-size: 20px; font-weight: bold; margin: 0;"">Is there a person in this image?</p>
                    </div>
                </div>","0","main_experiment_trial","9","flight_scheme","schematic_sequence","","","",""
"","","","","","html-keyboard-response","140","434706","0.0-140.0","E21CFBC4F83547E69F5267D142EC3831","019cef8e-0921-7b7a-8df2-a0f2955d0ffa","019cef87-c56d-7b55-9135-c5814367ec25","","null","
                <div class=""stimulus-container"">
                    <img src=""images/schematic_sequence/flight_scheme/flight_scheme_ten.png"" class=""exp-image"">
                    <div class=""question-area""></div> 
                </div>","null","","","","","","","",""
"","","","","","html-button-response","141","435195","0.0-141.0","E21CFBC4F83547E69F5267D142EC3831","019cef8e-0921-7b7a-8df2-a0f2955d0ffa","019cef87-c56d-7b55-9135-c5814367ec25","","487","
                <div class=""stimulus-container"">
                    <img src=""images/schematic_sequence/flight_scheme/flight_scheme_ten.png"" class=""exp-image"">
                    <div class=""question-area"">
                        <p style=""font-size: 20px; font-weight: bold; margin: 0;"">Is there a person in this image?</p>
                    </div>
                </div>","0","main_experiment_trial","ten","flight_scheme","schematic_sequence","","","",""
"","","","","","html-keyboard-response","142","436211","0.0-142.0","E21CFBC4F83547E69F5267D142EC3831","019cef8e-0921-7b7a-8df2-a0f2955d0ffa","019cef87-c56d-7b55-9135-c5814367ec25","","null","<div style=""background-color: white; width: 100vw; height: 100vh;""></div>","null","","","","","","","",""
"","","","","","html-keyboard-response","143","441221","0.0-143.0","E21CFBC4F83547E69F5267D142EC3831","019cef8e-0921-7b7a-8df2-a0f2955d0ffa","019cef87-c56d-7b55-9135-c5814367ec25","","null","
                <div class=""stimulus-container"">
                    <img src=""images/schematic_sequence/restaurant_scheme/restaurant_scheme_1.png"" class=""exp-image"">
                    <div class=""question-area""></div> 
                </div>","null","","","","","","","",""
"","","","","","html-button-response","144","441727","0.0-144.0","E21CFBC4F83547E69F5267D142EC3831","019cef8e-0921-7b7a-8df2-a0f2955d0ffa","019cef87-c56d-7b55-9135-c5814367ec25","","504","
                <div class=""stimulus-container"">
                    <img src=""images/schematic_sequence/restaurant_scheme/restaurant_scheme_1.png"" class=""exp-image"">
                    <div class=""question-area"">
                        <p style=""font-size: 20px; font-weight: bold; margin: 0;"">Is there a person in this image?</p>
                    </div>
                </div>","0","main_experiment_trial","1","restaurant_scheme","schematic_sequence","","","",""
"","","","","","html-keyboard-response","145","446737","0.0-145.0","E21CFBC4F83547E69F5267D142EC3831","019cef8e-0921-7b7a-8df2-a0f2955d0ffa","019cef87-c56d-7b55-9135-c5814367ec25","","null","
                <div class=""stimulus-container"">
                    <img src=""images/schematic_sequence/restaurant_scheme/restaurant_scheme_2.png"" class=""exp-image"">
                    <div class=""question-area""></div> 
                </div>","null","","","","","","","",""
"","","","","","html-button-response","146","447924","0.0-146.0","E21CFBC4F83547E69F5267D142EC3831","019cef8e-0921-7b7a-8df2-a0f2955d0ffa","019cef87-c56d-7b55-9135-c5814367ec25","","1186","
                <div class=""stimulus-container"">
                    <img src=""images/schematic_sequence/restaurant_scheme/restaurant_scheme_2.png"" class=""exp-image"">
                    <div class=""question-area"">
                        <p style=""font-size: 20px; font-weight: bold; margin: 0;"">Is there a person in this image?</p>
                    </div>
                </div>","1","main_experiment_trial","2","restaurant_scheme","schematic_sequence","","","",""
"","","","","","html-keyboard-response","147","452931","0.0-147.0","E21CFBC4F83547E69F5267D142EC3831","019cef8e-0921-7b7a-8df2-a0f2955d0ffa","019cef87-c56d-7b55-9135-c5814367ec25","","null","
                <div class=""stimulus-container"">
                    <img src=""images/schematic_sequence/restaurant_scheme/restaurant_scheme_3.png"" class=""exp-image"">
                    <div class=""question-area""></div> 
                </div>","null","","","","","","","",""
"","","","","","html-button-response","148","453567","0.0-148.0","E21CFBC4F83547E69F5267D142EC3831","019cef8e-0921-7b7a-8df2-a0f2955d0ffa","019cef87-c56d-7b55-9135-c5814367ec25","","635","
                <div class=""stimulus-container"">
                    <img src=""images/schematic_sequence/restaurant_scheme/restaurant_scheme_3.png"" class=""exp-image"">
                    <div class=""question-area"">
                        <p style=""font-size: 20px; font-weight: bold; margin: 0;"">Is there a person in this image?</p>
                    </div>
                </div>","1","main_experiment_trial","3","restaurant_scheme","schematic_sequence","","","",""
"","","","","","html-keyboard-response","149","458577","0.0-149.0","E21CFBC4F83547E69F5267D142EC3831","019cef8e-0921-7b7a-8df2-a0f2955d0ffa","019cef87-c56d-7b55-9135-c5814367ec25","","null","
                <div class=""stimulus-container"">
                    <img src=""images/schematic_sequence/restaurant_scheme/restaurant_scheme_4.png"" class=""exp-image"">
                    <div class=""question-area""></div> 
                </div>","null","","","","","","","",""
"","","","","","html-button-response","150","459001","0.0-150.0","E21CFBC4F83547E69F5267D142EC3831","019cef8e-0921-7b7a-8df2-a0f2955d0ffa","019cef87-c56d-7b55-9135-c5814367ec25","","423","
                <div class=""stimulus-container"">
                    <img src=""images/schematic_sequence/restaurant_scheme/restaurant_scheme_4.png"" class=""exp-image"">
                    <div class=""question-area"">
                        <p style=""font-size: 20px; font-weight: bold; margin: 0;"">Is there a person in this image?</p>
                    </div>
                </div>","0","main_experiment_trial","4","restaurant_scheme","schematic_sequence","","","",""
"","","","","","html-keyboard-response","151","464008","0.0-151.0","E21CFBC4F83547E69F5267D142EC3831","019cef8e-0921-7b7a-8df2-a0f2955d0ffa","019cef87-c56d-7b55-9135-c5814367ec25","","null","
                <div class=""stimulus-container"">
                    <img src=""images/schematic_sequence/restaurant_scheme/restaurant_scheme_5.png"" class=""exp-image"">
                    <div class=""question-area""></div> 
                </div>","null","","","","","","","",""
"","","","","","html-button-response","152","464697","0.0-152.0","E21CFBC4F83547E69F5267D142EC3831","019cef8e-0921-7b7a-8df2-a0f2955d0ffa","019cef87-c56d-7b55-9135-c5814367ec25","","688","
                <div class=""stimulus-container"">
                    <img src=""images/schematic_sequence/restaurant_scheme/restaurant_scheme_5.png"" class=""exp-image"">
                    <div class=""question-area"">
                        <p style=""font-size: 20px; font-weight: bold; margin: 0;"">Is there a person in this image?</p>
                    </div>
                </div>","0","main_experiment_trial","5","restaurant_scheme","schematic_sequence","","","",""
"","","","","","html-keyboard-response","153","469702","0.0-153.0","E21CFBC4F83547E69F5267D142EC3831","019cef8e-0921-7b7a-8df2-a0f2955d0ffa","019cef87-c56d-7b55-9135-c5814367ec25","","null","
                <div class=""stimulus-container"">
                    <img src=""images/schematic_sequence/restaurant_scheme/restaurant_scheme_6.png"" class=""exp-image"">
                    <div class=""question-area""></div> 
                </div>","null","","","","","","","",""
"","","","","","html-button-response","154","470237","0.0-154.0","E21CFBC4F83547E69F5267D142EC3831","019cef8e-0921-7b7a-8df2-a0f2955d0ffa","019cef87-c56d-7b55-9135-c5814367ec25","","534","
                <div class=""stimulus-container"">
                    <img src=""images/schematic_sequence/restaurant_scheme/restaurant_scheme_6.png"" class=""exp-image"">
                    <div class=""question-area"">
                        <p style=""font-size: 20px; font-weight: bold; margin: 0;"">Is there a person in this image?</p>
                    </div>
                </div>","1","main_experiment_trial","6","restaurant_scheme","schematic_sequence","","","",""
"","","","","","html-keyboard-response","155","475242","0.0-155.0","E21CFBC4F83547E69F5267D142EC3831","019cef8e-0921-7b7a-8df2-a0f2955d0ffa","019cef87-c56d-7b55-9135-c5814367ec25","","null","
                <div class=""stimulus-container"">
                    <img src=""images/schematic_sequence/restaurant_scheme/restaurant_scheme_7.png"" class=""exp-image"">
                    <div class=""question-area""></div> 
                </div>","null","","","","","","","",""
"","","","","","html-button-response","156","475633","0.0-156.0","E21CFBC4F83547E69F5267D142EC3831","019cef8e-0921-7b7a-8df2-a0f2955d0ffa","019cef87-c56d-7b55-9135-c5814367ec25","","390","
                <div class=""stimulus-container"">
                    <img src=""images/schematic_sequence/restaurant_scheme/restaurant_scheme_7.png"" class=""exp-image"">
                    <div class=""question-area"">
                        <p style=""font-size: 20px; font-weight: bold; margin: 0;"">Is there a person in this image?</p>
                    </div>
                </div>","1","main_experiment_trial","7","restaurant_scheme","schematic_sequence","","","",""
"","","","","","html-keyboard-response","157","480644","0.0-157.0","E21CFBC4F83547E69F5267D142EC3831","019cef8e-0921-7b7a-8df2-a0f2955d0ffa","019cef87-c56d-7b55-9135-c5814367ec25","","null","
                <div class=""stimulus-container"">
                    <img src=""images/schematic_sequence/restaurant_scheme/restaurant_scheme_8.png"" class=""exp-image"">
                    <div class=""question-area""></div> 
                </div>","null","","","","","","","",""
"","","","","","html-button-response","158","481198","0.0-158.0","E21CFBC4F83547E69F5267D142EC3831","019cef8e-0921-7b7a-8df2-a0f2955d0ffa","019cef87-c56d-7b55-9135-c5814367ec25","","552","
                <div class=""stimulus-container"">
                    <img src=""images/schematic_sequence/restaurant_scheme/restaurant_scheme_8.png"" class=""exp-image"">
                    <div class=""question-area"">
                        <p style=""font-size: 20px; font-weight: bold; margin: 0;"">Is there a person in this image?</p>
                    </div>
                </div>","1","main_experiment_trial","8","restaurant_scheme","schematic_sequence","","","",""
"","","","","","html-keyboard-response","159","486203","0.0-159.0","E21CFBC4F83547E69F5267D142EC3831","019cef8e-0921-7b7a-8df2-a0f2955d0ffa","019cef87-c56d-7b55-9135-c5814367ec25","","null","
                <div class=""stimulus-container"">
                    <img src=""images/schematic_sequence/restaurant_scheme/restaurant_scheme_9.png"" class=""exp-image"">
                    <div class=""question-area""></div> 
                </div>","null","","","","","","","",""
"","","","","","html-button-response","160","486798","0.0-160.0","E21CFBC4F83547E69F5267D142EC3831","019cef8e-0921-7b7a-8df2-a0f2955d0ffa","019cef87-c56d-7b55-9135-c5814367ec25","","594","
                <div class=""stimulus-container"">
                    <img src=""images/schematic_sequence/restaurant_scheme/restaurant_scheme_9.png"" class=""exp-image"">
                    <div class=""question-area"">
                        <p style=""font-size: 20px; font-weight: bold; margin: 0;"">Is there a person in this image?</p>
                    </div>
                </div>","0","main_experiment_trial","9","restaurant_scheme","schematic_sequence","","","",""
"","","","","","html-keyboard-response","161","491815","0.0-161.0","E21CFBC4F83547E69F5267D142EC3831","019cef8e-0921-7b7a-8df2-a0f2955d0ffa","019cef87-c56d-7b55-9135-c5814367ec25","","null","
                <div class=""stimulus-container"">
                    <img src=""images/schematic_sequence/restaurant_scheme/restaurant_scheme_ten.png"" class=""exp-image"">
                    <div class=""question-area""></div> 
                </div>","null","","","","","","","",""
"","","","","","html-button-response","162","492324","0.0-162.0","E21CFBC4F83547E69F5267D142EC3831","019cef8e-0921-7b7a-8df2-a0f2955d0ffa","019cef87-c56d-7b55-9135-c5814367ec25","","507","
                <div class=""stimulus-container"">
                    <img src=""images/schematic_sequence/restaurant_scheme/restaurant_scheme_ten.png"" class=""exp-image"">
                    <div class=""question-area"">
                        <p style=""font-size: 20px; font-weight: bold; margin: 0;"">Is there a person in this image?</p>
                    </div>
                </div>","0","main_experiment_trial","ten","restaurant_scheme","schematic_sequence","","","",""
"","","","","","html-keyboard-response","163","493332","0.0-163.0","E21CFBC4F83547E69F5267D142EC3831","019cef8e-0921-7b7a-8df2-a0f2955d0ffa","019cef87-c56d-7b55-9135-c5814367ec25","","null","<div style=""background-color: white; width: 100vw; height: 100vh;""></div>","null","","","","","","","",""
"","","","","","html-keyboard-response","164","498344","0.0-164.0","E21CFBC4F83547E69F5267D142EC3831","019cef8e-0921-7b7a-8df2-a0f2955d0ffa","019cef87-c56d-7b55-9135-c5814367ec25","","null","
                <div class=""stimulus-container"">
                    <img src=""images/causal_sequence/museum_causal/museum_causal_1.png"" class=""exp-image"">
                    <div class=""question-area""></div> 
                </div>","null","","","","","","","",""
"","","","","","html-button-response","165","499918","0.0-165.0","E21CFBC4F83547E69F5267D142EC3831","019cef8e-0921-7b7a-8df2-a0f2955d0ffa","019cef87-c56d-7b55-9135-c5814367ec25","","1573","
                <div class=""stimulus-container"">
                    <img src=""images/causal_sequence/museum_causal/museum_causal_1.png"" class=""exp-image"">
                    <div class=""question-area"">
                        <p style=""font-size: 20px; font-weight: bold; margin: 0;"">Is there a person in this image?</p>
                    </div>
                </div>","0","main_experiment_trial","1","museum_causal","causal_sequence","","","",""
"","","","","","html-keyboard-response","166","504932","0.0-166.0","E21CFBC4F83547E69F5267D142EC3831","019cef8e-0921-7b7a-8df2-a0f2955d0ffa","019cef87-c56d-7b55-9135-c5814367ec25","","null","
                <div class=""stimulus-container"">
                    <img src=""images/causal_sequence/museum_causal/museum_causal_2.png"" class=""exp-image"">
                    <div class=""question-area""></div> 
                </div>","null","","","","","","","",""
"","","","","","html-button-response","167","505338","0.0-167.0","E21CFBC4F83547E69F5267D142EC3831","019cef8e-0921-7b7a-8df2-a0f2955d0ffa","019cef87-c56d-7b55-9135-c5814367ec25","","405","
                <div class=""stimulus-container"">
                    <img src=""images/causal_sequence/museum_causal/museum_causal_2.png"" class=""exp-image"">
                    <div class=""question-area"">
                        <p style=""font-size: 20px; font-weight: bold; margin: 0;"">Is there a person in this image?</p>
                    </div>
                </div>","1","main_experiment_trial","2","museum_causal","causal_sequence","","","",""
"","","","","","html-keyboard-response","168","510347","0.0-168.0","E21CFBC4F83547E69F5267D142EC3831","019cef8e-0921-7b7a-8df2-a0f2955d0ffa","019cef87-c56d-7b55-9135-c5814367ec25","","null","
                <div class=""stimulus-container"">
                    <img src=""images/causal_sequence/museum_causal/museum_causal_3.png"" class=""exp-image"">
                    <div class=""question-area""></div> 
                </div>","null","","","","","","","",""
"","","","","","html-button-response","169","510949","0.0-169.0","E21CFBC4F83547E69F5267D142EC3831","019cef8e-0921-7b7a-8df2-a0f2955d0ffa","019cef87-c56d-7b55-9135-c5814367ec25","","600","
                <div class=""stimulus-container"">
                    <img src=""images/causal_sequence/museum_causal/museum_causal_3.png"" class=""exp-image"">
                    <div class=""question-area"">
                        <p style=""font-size: 20px; font-weight: bold; margin: 0;"">Is there a person in this image?</p>
                    </div>
                </div>","0","main_experiment_trial","3","museum_causal","causal_sequence","","","",""
"","","","","","html-keyboard-response","170","515956","0.0-170.0","E21CFBC4F83547E69F5267D142EC3831","019cef8e-0921-7b7a-8df2-a0f2955d0ffa","019cef87-c56d-7b55-9135-c5814367ec25","","null","
                <div class=""stimulus-container"">
                    <img src=""images/causal_sequence/museum_causal/museum_causal_4.png"" class=""exp-image"">
                    <div class=""question-area""></div> 
                </div>","null","","","","","","","",""
"","","","","","html-button-response","171","516517","0.0-171.0","E21CFBC4F83547E69F5267D142EC3831","019cef8e-0921-7b7a-8df2-a0f2955d0ffa","019cef87-c56d-7b55-9135-c5814367ec25","","559","
                <div class=""stimulus-container"">
                    <img src=""images/causal_sequence/museum_causal/museum_causal_4.png"" class=""exp-image"">
                    <div class=""question-area"">
                        <p style=""font-size: 20px; font-weight: bold; margin: 0;"">Is there a person in this image?</p>
                    </div>
                </div>","1","main_experiment_trial","4","museum_causal","causal_sequence","","","",""
"","","","","","html-keyboard-response","172","521521","0.0-172.0","E21CFBC4F83547E69F5267D142EC3831","019cef8e-0921-7b7a-8df2-a0f2955d0ffa","019cef87-c56d-7b55-9135-c5814367ec25","","null","
                <div class=""stimulus-container"">
                    <img src=""images/causal_sequence/museum_causal/museum_causal_5.png"" class=""exp-image"">
                    <div class=""question-area""></div> 
                </div>","null","","","","","","","",""
"","","","","","html-button-response","173","522015","0.0-173.0","E21CFBC4F83547E69F5267D142EC3831","019cef8e-0921-7b7a-8df2-a0f2955d0ffa","019cef87-c56d-7b55-9135-c5814367ec25","","492","
                <div class=""stimulus-container"">
                    <img src=""images/causal_sequence/museum_causal/museum_causal_5.png"" class=""exp-image"">
                    <div class=""question-area"">
                        <p style=""font-size: 20px; font-weight: bold; margin: 0;"">Is there a person in this image?</p>
                    </div>
                </div>","0","main_experiment_trial","5","museum_causal","causal_sequence","","","",""
"","","","","","html-keyboard-response","174","527022","0.0-174.0","E21CFBC4F83547E69F5267D142EC3831","019cef8e-0921-7b7a-8df2-a0f2955d0ffa","019cef87-c56d-7b55-9135-c5814367ec25","","null","
                <div class=""stimulus-container"">
                    <img src=""images/causal_sequence/museum_causal/museum_causal_6.png"" class=""exp-image"">
                    <div class=""question-area""></div> 
                </div>","null","","","","","","","",""
"","","","","","html-button-response","175","527521","0.0-175.0","E21CFBC4F83547E69F5267D142EC3831","019cef8e-0921-7b7a-8df2-a0f2955d0ffa","019cef87-c56d-7b55-9135-c5814367ec25","","498","
                <div class=""stimulus-container"">
                    <img src=""images/causal_sequence/museum_causal/museum_causal_6.png"" class=""exp-image"">
                    <div class=""question-area"">
                        <p style=""font-size: 20px; font-weight: bold; margin: 0;"">Is there a person in this image?</p>
                    </div>
                </div>","0","main_experiment_trial","6","museum_causal","causal_sequence","","","",""
"","","","","","html-keyboard-response","176","532527","0.0-176.0","E21CFBC4F83547E69F5267D142EC3831","019cef8e-0921-7b7a-8df2-a0f2955d0ffa","019cef87-c56d-7b55-9135-c5814367ec25","","null","
                <div class=""stimulus-container"">
                    <img src=""images/causal_sequence/museum_causal/museum_causal_7.png"" class=""exp-image"">
                    <div class=""question-area""></div> 
                </div>","null","","","","","","","",""
"","","","","","html-button-response","177","533963","0.0-177.0","E21CFBC4F83547E69F5267D142EC3831","019cef8e-0921-7b7a-8df2-a0f2955d0ffa","019cef87-c56d-7b55-9135-c5814367ec25","","1434","
                <div class=""stimulus-container"">
                    <img src=""images/causal_sequence/museum_causal/museum_causal_7.png"" class=""exp-image"">
                    <div class=""question-area"">
                        <p style=""font-size: 20px; font-weight: bold; margin: 0;"">Is there a person in this image?</p>
                    </div>
                </div>","1","main_experiment_trial","7","museum_causal","causal_sequence","","","",""
"","","","","","html-keyboard-response","178","538969","0.0-178.0","E21CFBC4F83547E69F5267D142EC3831","019cef8e-0921-7b7a-8df2-a0f2955d0ffa","019cef87-c56d-7b55-9135-c5814367ec25","","null","
                <div class=""stimulus-container"">
                    <img src=""images/causal_sequence/museum_causal/museum_causal_8.png"" class=""exp-image"">
                    <div class=""question-area""></div> 
                </div>","null","","","","","","","",""
"","","","","","html-button-response","179","539683","0.0-179.0","E21CFBC4F83547E69F5267D142EC3831","019cef8e-0921-7b7a-8df2-a0f2955d0ffa","019cef87-c56d-7b55-9135-c5814367ec25","","714","
                <div class=""stimulus-container"">
                    <img src=""images/causal_sequence/museum_causal/museum_causal_8.png"" class=""exp-image"">
                    <div class=""question-area"">
                        <p style=""font-size: 20px; font-weight: bold; margin: 0;"">Is there a person in this image?</p>
                    </div>
                </div>","0","main_experiment_trial","8","museum_causal","causal_sequence","","","",""
"","","","","","html-keyboard-response","180","544685","0.0-180.0","E21CFBC4F83547E69F5267D142EC3831","019cef8e-0921-7b7a-8df2-a0f2955d0ffa","019cef87-c56d-7b55-9135-c5814367ec25","","null","
                <div class=""stimulus-container"">
                    <img src=""images/causal_sequence/museum_causal/museum_causal_9.png"" class=""exp-image"">
                    <div class=""question-area""></div> 
                </div>","null","","","","","","","",""
"","","","","","html-button-response","181","545435","0.0-181.0","E21CFBC4F83547E69F5267D142EC3831","019cef8e-0921-7b7a-8df2-a0f2955d0ffa","019cef87-c56d-7b55-9135-c5814367ec25","","748","
                <div class=""stimulus-container"">
                    <img src=""images/causal_sequence/museum_causal/museum_causal_9.png"" class=""exp-image"">
                    <div class=""question-area"">
                        <p style=""font-size: 20px; font-weight: bold; margin: 0;"">Is there a person in this image?</p>
                    </div>
                </div>","1","main_experiment_trial","9","museum_causal","causal_sequence","","","",""
"","","","","","html-keyboard-response","182","550437","0.0-182.0","E21CFBC4F83547E69F5267D142EC3831","019cef8e-0921-7b7a-8df2-a0f2955d0ffa","019cef87-c56d-7b55-9135-c5814367ec25","","null","
                <div class=""stimulus-container"">
                    <img src=""images/causal_sequence/museum_causal/museum_causal_ten.png"" class=""exp-image"">
                    <div class=""question-area""></div> 
                </div>","null","","","","","","","",""
"","","","","","html-button-response","183","550944","0.0-183.0","E21CFBC4F83547E69F5267D142EC3831","019cef8e-0921-7b7a-8df2-a0f2955d0ffa","019cef87-c56d-7b55-9135-c5814367ec25","","505","
                <div class=""stimulus-container"">
                    <img src=""images/causal_sequence/museum_causal/museum_causal_ten.png"" class=""exp-image"">
                    <div class=""question-area"">
                        <p style=""font-size: 20px; font-weight: bold; margin: 0;"">Is there a person in this image?</p>
                    </div>
                </div>","0","main_experiment_trial","ten","museum_causal","causal_sequence","","","",""
"","","","","","html-keyboard-response","184","551961","0.0-184.0","E21CFBC4F83547E69F5267D142EC3831","019cef8e-0921-7b7a-8df2-a0f2955d0ffa","019cef87-c56d-7b55-9135-c5814367ec25","","null","<div style=""background-color: white; width: 100vw; height: 100vh;""></div>","null","","","","","","","",""
