"success","timeout","failed_images","failed_audio","failed_video","trial_type","trial_index","time_elapsed","internal_node_id","subject_id","study_id","session_id","view_history","rt","stimulus","response","task","image_index","folder","valuable_image_index","valuable_X","chosen_image_index","distance_from_X"
"false","false","[]","[]","[]","preload","0","4318","0.0-0.0","8DFA07C880FC4350BCAE8401C5098747","019ce76a-755b-7487-ba6f-a79730f3716c","019ce768-b048-7627-b827-888248f65c31","","","","","","","","","","",""
"","","","","","instructions","1","39462","0.0-1.0","8DFA07C880FC4350BCAE8401C5098747","019ce76a-755b-7487-ba6f-a79730f3716c","019ce768-b048-7627-b827-888248f65c31","[{""page_index"":0,""viewing_time"":35144}]","35144","","","","","","","","",""
"","","","","","instructions","2","94310","0.0-2.0","8DFA07C880FC4350BCAE8401C5098747","019ce76a-755b-7487-ba6f-a79730f3716c","019ce768-b048-7627-b827-888248f65c31","[{""page_index"":0,""viewing_time"":54847}]","54847","","","","","","","","",""
"true","","","","","fullscreen","3","96922","0.0-3.0","8DFA07C880FC4350BCAE8401C5098747","019ce76a-755b-7487-ba6f-a79730f3716c","019ce768-b048-7627-b827-888248f65c31","","1610","","","","","","","","",""
"","","","","","instructions","4","106441","0.0-4.0","8DFA07C880FC4350BCAE8401C5098747","019ce76a-755b-7487-ba6f-a79730f3716c","019ce768-b048-7627-b827-888248f65c31","[{""page_index"":0,""viewing_time"":9519}]","9519","","","","","","","","",""
"","","","","","instructions","5","115423","0.0-5.0","8DFA07C880FC4350BCAE8401C5098747","019ce76a-755b-7487-ba6f-a79730f3716c","019ce768-b048-7627-b827-888248f65c31","[{""page_index"":0,""viewing_time"":8981}]","8981","","","","","","","","",""
"","","","","","html-keyboard-response","6","119428","0.0-6.0","8DFA07C880FC4350BCAE8401C5098747","019ce76a-755b-7487-ba6f-a79730f3716c","019ce768-b048-7627-b827-888248f65c31","","null","
                <div class=""stimulus-container"">
                    <img src=""images/instructions/movie_1.png"" class=""exp-image"">
                    <div class=""question-area""></div> 
                </div>","null","","","","","","",""
"","","","","","html-button-response","7","120731","0.0-7.0","8DFA07C880FC4350BCAE8401C5098747","019ce76a-755b-7487-ba6f-a79730f3716c","019ce768-b048-7627-b827-888248f65c31","","1302","
                <div class=""stimulus-container"">
                    <img src=""images/instructions/movie_1.png"" class=""exp-image"">
                    <div class=""question-area"">
                        <p style=""font-size: 20px; font-weight: bold; margin: 0;"">Was there a person in this image?</p>
                    </div>
                </div>","0","example_question","1","","","","",""
"","","","","","html-keyboard-response","8","124735","0.0-8.0","8DFA07C880FC4350BCAE8401C5098747","019ce76a-755b-7487-ba6f-a79730f3716c","019ce768-b048-7627-b827-888248f65c31","","null","
                <div class=""stimulus-container"">
                    <img src=""images/instructions/movie_2.png"" class=""exp-image"">
                    <div class=""question-area""></div> 
                </div>","null","","","","","","",""
"","","","","","html-button-response","9","125538","0.0-9.0","8DFA07C880FC4350BCAE8401C5098747","019ce76a-755b-7487-ba6f-a79730f3716c","019ce768-b048-7627-b827-888248f65c31","","803","
                <div class=""stimulus-container"">
                    <img src=""images/instructions/movie_2.png"" class=""exp-image"">
                    <div class=""question-area"">
                        <p style=""font-size: 20px; font-weight: bold; margin: 0;"">Was there a person in this image?</p>
                    </div>
                </div>","0","example_question","2","","","","",""
"","","","","","html-keyboard-response","10","129544","0.0-10.0","8DFA07C880FC4350BCAE8401C5098747","019ce76a-755b-7487-ba6f-a79730f3716c","019ce768-b048-7627-b827-888248f65c31","","null","
                <div class=""stimulus-container"">
                    <img src=""images/instructions/movie_3.png"" class=""exp-image"">
                    <div class=""question-area""></div> 
                </div>","null","","","","","","",""
"","","","","","html-button-response","11","130032","0.0-11.0","8DFA07C880FC4350BCAE8401C5098747","019ce76a-755b-7487-ba6f-a79730f3716c","019ce768-b048-7627-b827-888248f65c31","","488","
                <div class=""stimulus-container"">
                    <img src=""images/instructions/movie_3.png"" class=""exp-image"">
                    <div class=""question-area"">
                        <p style=""font-size: 20px; font-weight: bold; margin: 0;"">Was there a person in this image?</p>
                    </div>
                </div>","0","example_question","3","","","","",""
"","","","","","html-keyboard-response","12","134048","0.0-12.0","8DFA07C880FC4350BCAE8401C5098747","019ce76a-755b-7487-ba6f-a79730f3716c","019ce768-b048-7627-b827-888248f65c31","","null","
                <div class=""stimulus-container"">
                    <img src=""images/instructions/movie_4.png"" class=""exp-image"">
                    <div class=""question-area""></div> 
                </div>","null","","","","","","",""
"","","","","","html-button-response","13","134531","0.0-13.0","8DFA07C880FC4350BCAE8401C5098747","019ce76a-755b-7487-ba6f-a79730f3716c","019ce768-b048-7627-b827-888248f65c31","","482","
                <div class=""stimulus-container"">
                    <img src=""images/instructions/movie_4.png"" class=""exp-image"">
                    <div class=""question-area"">
                        <p style=""font-size: 20px; font-weight: bold; margin: 0;"">Was there a person in this image?</p>
                    </div>
                </div>","0","example_question","4","","","","",""
"","","","","","instructions","14","137630","0.0-14.0","8DFA07C880FC4350BCAE8401C5098747","019ce76a-755b-7487-ba6f-a79730f3716c","019ce768-b048-7627-b827-888248f65c31","[{""page_index"":0,""viewing_time"":3100}]","3100","","","","","","","","",""
"","","","","","html-keyboard-response","15","138632","0.0-15.0","8DFA07C880FC4350BCAE8401C5098747","019ce76a-755b-7487-ba6f-a79730f3716c","019ce768-b048-7627-b827-888248f65c31","","null","<div style=""background-color: gray; width: 100vw; height: 100vh;""></div>","null","","","","","","",""
"","","","","","html-keyboard-response","16","143638","0.0-16.0","8DFA07C880FC4350BCAE8401C5098747","019ce76a-755b-7487-ba6f-a79730f3716c","019ce768-b048-7627-b827-888248f65c31","","null","
                    <div class=""stimulus-container"">
                        <img src=""images/causal_sequence/saving_a_cat_causal/saving_a_cat_causal_1.png"" class=""exp-image"">
                        <div class=""question-area""></div> 
                    </div>","null","","","","","","",""
"","","","","","html-button-response","17","144463","0.0-17.0","8DFA07C880FC4350BCAE8401C5098747","019ce76a-755b-7487-ba6f-a79730f3716c","019ce768-b048-7627-b827-888248f65c31","","824","
                    <div class=""stimulus-container"">
                        <img src=""images/causal_sequence/saving_a_cat_causal/saving_a_cat_causal_1.png"" class=""exp-image"">
                        <div class=""question-area"">
                            <p style=""font-size: 20px; font-weight: bold; margin: 0;"">Is there a person in this image?</p>
                        </div>
                    </div>","0","main_causal_task","1","saving_a_cat_causal","","","",""
"","","","","","html-keyboard-response","18","149473","0.0-18.0","8DFA07C880FC4350BCAE8401C5098747","019ce76a-755b-7487-ba6f-a79730f3716c","019ce768-b048-7627-b827-888248f65c31","","null","
                    <div class=""stimulus-container"">
                        <img src=""images/causal_sequence/saving_a_cat_causal/saving_a_cat_causal_2.png"" class=""exp-image"">
                        <div class=""question-area""></div> 
                    </div>","null","","","","","","",""
"","","","","","html-button-response","19","150474","0.0-19.0","8DFA07C880FC4350BCAE8401C5098747","019ce76a-755b-7487-ba6f-a79730f3716c","019ce768-b048-7627-b827-888248f65c31","","1001","
                    <div class=""stimulus-container"">
                        <img src=""images/causal_sequence/saving_a_cat_causal/saving_a_cat_causal_2.png"" class=""exp-image"">
                        <div class=""question-area"">
                            <p style=""font-size: 20px; font-weight: bold; margin: 0;"">Is there a person in this image?</p>
                        </div>
                    </div>","1","main_causal_task","2","saving_a_cat_causal","","","",""
"","","","","","html-keyboard-response","20","155481","0.0-20.0","8DFA07C880FC4350BCAE8401C5098747","019ce76a-755b-7487-ba6f-a79730f3716c","019ce768-b048-7627-b827-888248f65c31","","null","
                    <div class=""stimulus-container"">
                        <img src=""images/causal_sequence/saving_a_cat_causal/saving_a_cat_causal_3.png"" class=""exp-image"">
                        <div class=""question-area""></div> 
                    </div>","null","","","","","","",""
"","","","","","html-button-response","21","156591","0.0-21.0","8DFA07C880FC4350BCAE8401C5098747","019ce76a-755b-7487-ba6f-a79730f3716c","019ce768-b048-7627-b827-888248f65c31","","1109","
                    <div class=""stimulus-container"">
                        <img src=""images/causal_sequence/saving_a_cat_causal/saving_a_cat_causal_3.png"" class=""exp-image"">
                        <div class=""question-area"">
                            <p style=""font-size: 20px; font-weight: bold; margin: 0;"">Is there a person in this image?</p>
                        </div>
                    </div>","1","main_causal_task","3","saving_a_cat_causal","","","",""
"","","","","","html-keyboard-response","22","161599","0.0-22.0","8DFA07C880FC4350BCAE8401C5098747","019ce76a-755b-7487-ba6f-a79730f3716c","019ce768-b048-7627-b827-888248f65c31","","null","
                    <div class=""stimulus-container"">
                        <img src=""images/causal_sequence/saving_a_cat_causal/saving_a_cat_causal_4.png"" class=""exp-image"">
                        <div class=""question-area""></div> 
                    </div>","null","","","","","","",""
"","","","","","html-button-response","23","162274","0.0-23.0","8DFA07C880FC4350BCAE8401C5098747","019ce76a-755b-7487-ba6f-a79730f3716c","019ce768-b048-7627-b827-888248f65c31","","675","
                    <div class=""stimulus-container"">
                        <img src=""images/causal_sequence/saving_a_cat_causal/saving_a_cat_causal_4.png"" class=""exp-image"">
                        <div class=""question-area"">
                            <p style=""font-size: 20px; font-weight: bold; margin: 0;"">Is there a person in this image?</p>
                        </div>
                    </div>","0","main_causal_task","4","saving_a_cat_causal","","","",""
"","","","","","html-keyboard-response","24","167287","0.0-24.0","8DFA07C880FC4350BCAE8401C5098747","019ce76a-755b-7487-ba6f-a79730f3716c","019ce768-b048-7627-b827-888248f65c31","","null","
                    <div class=""stimulus-container"">
                        <img src=""images/causal_sequence/saving_a_cat_causal/saving_a_cat_causal_5.png"" class=""exp-image"">
                        <div class=""question-area""></div> 
                    </div>","null","","","","","","",""
"","","","","","html-button-response","25","167700","0.0-25.0","8DFA07C880FC4350BCAE8401C5098747","019ce76a-755b-7487-ba6f-a79730f3716c","019ce768-b048-7627-b827-888248f65c31","","412","
                    <div class=""stimulus-container"">
                        <img src=""images/causal_sequence/saving_a_cat_causal/saving_a_cat_causal_5.png"" class=""exp-image"">
                        <div class=""question-area"">
                            <p style=""font-size: 20px; font-weight: bold; margin: 0;"">Is there a person in this image?</p>
                        </div>
                    </div>","0","main_causal_task","5","saving_a_cat_causal","","","",""
"","","","","","html-keyboard-response","26","172706","0.0-26.0","8DFA07C880FC4350BCAE8401C5098747","019ce76a-755b-7487-ba6f-a79730f3716c","019ce768-b048-7627-b827-888248f65c31","","null","
                    <div class=""stimulus-container"">
                        <img src=""images/causal_sequence/saving_a_cat_causal/saving_a_cat_causal_6.png"" class=""exp-image"">
                        <div class=""question-area""></div> 
                    </div>","null","","","","","","",""
"","","","","","html-button-response","27","173178","0.0-27.0","8DFA07C880FC4350BCAE8401C5098747","019ce76a-755b-7487-ba6f-a79730f3716c","019ce768-b048-7627-b827-888248f65c31","","472","
                    <div class=""stimulus-container"">
                        <img src=""images/causal_sequence/saving_a_cat_causal/saving_a_cat_causal_6.png"" class=""exp-image"">
                        <div class=""question-area"">
                            <p style=""font-size: 20px; font-weight: bold; margin: 0;"">Is there a person in this image?</p>
                        </div>
                    </div>","0","main_causal_task","6","saving_a_cat_causal","","","",""
"","","","","","html-keyboard-response","28","178185","0.0-28.0","8DFA07C880FC4350BCAE8401C5098747","019ce76a-755b-7487-ba6f-a79730f3716c","019ce768-b048-7627-b827-888248f65c31","","null","
                    <div class=""stimulus-container"">
                        <img src=""images/causal_sequence/saving_a_cat_causal/saving_a_cat_causal_7.png"" class=""exp-image"">
                        <div class=""question-area""></div> 
                    </div>","null","","","","","","",""
"","","","","","html-button-response","29","178703","0.0-29.0","8DFA07C880FC4350BCAE8401C5098747","019ce76a-755b-7487-ba6f-a79730f3716c","019ce768-b048-7627-b827-888248f65c31","","518","
                    <div class=""stimulus-container"">
                        <img src=""images/causal_sequence/saving_a_cat_causal/saving_a_cat_causal_7.png"" class=""exp-image"">
                        <div class=""question-area"">
                            <p style=""font-size: 20px; font-weight: bold; margin: 0;"">Is there a person in this image?</p>
                        </div>
                    </div>","0","main_causal_task","7","saving_a_cat_causal","","","",""
"","","","","","html-keyboard-response","30","183710","0.0-30.0","8DFA07C880FC4350BCAE8401C5098747","019ce76a-755b-7487-ba6f-a79730f3716c","019ce768-b048-7627-b827-888248f65c31","","null","
                    <div class=""stimulus-container"">
                        <img src=""images/causal_sequence/saving_a_cat_causal/saving_a_cat_causal_8.png"" class=""exp-image"">
                        <div class=""question-area""></div> 
                    </div>","null","","","","","","",""
"","","","","","html-button-response","31","184119","0.0-31.0","8DFA07C880FC4350BCAE8401C5098747","019ce76a-755b-7487-ba6f-a79730f3716c","019ce768-b048-7627-b827-888248f65c31","","408","
                    <div class=""stimulus-container"">
                        <img src=""images/causal_sequence/saving_a_cat_causal/saving_a_cat_causal_8.png"" class=""exp-image"">
                        <div class=""question-area"">
                            <p style=""font-size: 20px; font-weight: bold; margin: 0;"">Is there a person in this image?</p>
                        </div>
                    </div>","0","main_causal_task","8","saving_a_cat_causal","","","",""
"","","","","","html-keyboard-response","32","189122","0.0-32.0","8DFA07C880FC4350BCAE8401C5098747","019ce76a-755b-7487-ba6f-a79730f3716c","019ce768-b048-7627-b827-888248f65c31","","null","
                    <div class=""stimulus-container"">
                        <img src=""images/causal_sequence/saving_a_cat_causal/saving_a_cat_causal_9.png"" class=""exp-image"">
                        <div class=""question-area""></div> 
                    </div>","null","","","","","","",""
"","","","","","html-button-response","33","189698","0.0-33.0","8DFA07C880FC4350BCAE8401C5098747","019ce76a-755b-7487-ba6f-a79730f3716c","019ce768-b048-7627-b827-888248f65c31","","575","
                    <div class=""stimulus-container"">
                        <img src=""images/causal_sequence/saving_a_cat_causal/saving_a_cat_causal_9.png"" class=""exp-image"">
                        <div class=""question-area"">
                            <p style=""font-size: 20px; font-weight: bold; margin: 0;"">Is there a person in this image?</p>
                        </div>
                    </div>","0","main_causal_task","9","saving_a_cat_causal","","","",""
"","","","","","html-keyboard-response","34","190708","0.0-34.0","8DFA07C880FC4350BCAE8401C5098747","019ce76a-755b-7487-ba6f-a79730f3716c","019ce768-b048-7627-b827-888248f65c31","","null","<div style=""background-color: gray; width: 100vw; height: 100vh;""></div>","null","","","","","","",""
"","","","","","html-keyboard-response","35","195718","0.0-35.0","8DFA07C880FC4350BCAE8401C5098747","019ce76a-755b-7487-ba6f-a79730f3716c","019ce768-b048-7627-b827-888248f65c31","","null","
                    <div class=""stimulus-container"">
                        <img src=""images/causal_sequence/dog_causal/dog_causal_1.png"" class=""exp-image"">
                        <div class=""question-area""></div> 
                    </div>","null","","","","","","",""
"","","","","","html-button-response","36","196079","0.0-36.0","8DFA07C880FC4350BCAE8401C5098747","019ce76a-755b-7487-ba6f-a79730f3716c","019ce768-b048-7627-b827-888248f65c31","","360","
                    <div class=""stimulus-container"">
                        <img src=""images/causal_sequence/dog_causal/dog_causal_1.png"" class=""exp-image"">
                        <div class=""question-area"">
                            <p style=""font-size: 20px; font-weight: bold; margin: 0;"">Is there a person in this image?</p>
                        </div>
                    </div>","0","main_causal_task","1","dog_causal","","","",""
"","","","","","html-keyboard-response","37","201082","0.0-37.0","8DFA07C880FC4350BCAE8401C5098747","019ce76a-755b-7487-ba6f-a79730f3716c","019ce768-b048-7627-b827-888248f65c31","","null","
                    <div class=""stimulus-container"">
                        <img src=""images/causal_sequence/dog_causal/dog_causal_2.png"" class=""exp-image"">
                        <div class=""question-area""></div> 
                    </div>","null","","","","","","",""
"","","","","","html-button-response","38","201714","0.0-38.0","8DFA07C880FC4350BCAE8401C5098747","019ce76a-755b-7487-ba6f-a79730f3716c","019ce768-b048-7627-b827-888248f65c31","","631","
                    <div class=""stimulus-container"">
                        <img src=""images/causal_sequence/dog_causal/dog_causal_2.png"" class=""exp-image"">
                        <div class=""question-area"">
                            <p style=""font-size: 20px; font-weight: bold; margin: 0;"">Is there a person in this image?</p>
                        </div>
                    </div>","0","main_causal_task","2","dog_causal","","","",""
"","","","","","html-keyboard-response","39","206725","0.0-39.0","8DFA07C880FC4350BCAE8401C5098747","019ce76a-755b-7487-ba6f-a79730f3716c","019ce768-b048-7627-b827-888248f65c31","","null","
                    <div class=""stimulus-container"">
                        <img src=""images/causal_sequence/dog_causal/dog_causal_3.png"" class=""exp-image"">
                        <div class=""question-area""></div> 
                    </div>","null","","","","","","",""
"","","","","","html-button-response","40","207570","0.0-40.0","8DFA07C880FC4350BCAE8401C5098747","019ce76a-755b-7487-ba6f-a79730f3716c","019ce768-b048-7627-b827-888248f65c31","","844","
                    <div class=""stimulus-container"">
                        <img src=""images/causal_sequence/dog_causal/dog_causal_3.png"" class=""exp-image"">
                        <div class=""question-area"">
                            <p style=""font-size: 20px; font-weight: bold; margin: 0;"">Is there a person in this image?</p>
                        </div>
                    </div>","0","main_causal_task","3","dog_causal","","","",""
"","","","","","html-keyboard-response","41","212578","0.0-41.0","8DFA07C880FC4350BCAE8401C5098747","019ce76a-755b-7487-ba6f-a79730f3716c","019ce768-b048-7627-b827-888248f65c31","","null","
                    <div class=""stimulus-container"">
                        <img src=""images/causal_sequence/dog_causal/dog_causal_4.png"" class=""exp-image"">
                        <div class=""question-area""></div> 
                    </div>","null","","","","","","",""
"","","","","","html-button-response","42","212925","0.0-42.0","8DFA07C880FC4350BCAE8401C5098747","019ce76a-755b-7487-ba6f-a79730f3716c","019ce768-b048-7627-b827-888248f65c31","","347","
                    <div class=""stimulus-container"">
                        <img src=""images/causal_sequence/dog_causal/dog_causal_4.png"" class=""exp-image"">
                        <div class=""question-area"">
                            <p style=""font-size: 20px; font-weight: bold; margin: 0;"">Is there a person in this image?</p>
                        </div>
                    </div>","0","main_causal_task","4","dog_causal","","","",""
"","","","","","html-keyboard-response","43","217933","0.0-43.0","8DFA07C880FC4350BCAE8401C5098747","019ce76a-755b-7487-ba6f-a79730f3716c","019ce768-b048-7627-b827-888248f65c31","","null","
                    <div class=""stimulus-container"">
                        <img src=""images/causal_sequence/dog_causal/dog_causal_5.png"" class=""exp-image"">
                        <div class=""question-area""></div> 
                    </div>","null","","","","","","",""
"","","","","","html-button-response","44","218378","0.0-44.0","8DFA07C880FC4350BCAE8401C5098747","019ce76a-755b-7487-ba6f-a79730f3716c","019ce768-b048-7627-b827-888248f65c31","","444","
                    <div class=""stimulus-container"">
                        <img src=""images/causal_sequence/dog_causal/dog_causal_5.png"" class=""exp-image"">
                        <div class=""question-area"">
                            <p style=""font-size: 20px; font-weight: bold; margin: 0;"">Is there a person in this image?</p>
                        </div>
                    </div>","0","main_causal_task","5","dog_causal","","","",""
"","","","","","html-keyboard-response","45","223380","0.0-45.0","8DFA07C880FC4350BCAE8401C5098747","019ce76a-755b-7487-ba6f-a79730f3716c","019ce768-b048-7627-b827-888248f65c31","","null","
                    <div class=""stimulus-container"">
                        <img src=""images/causal_sequence/dog_causal/dog_causal_6.png"" class=""exp-image"">
                        <div class=""question-area""></div> 
                    </div>","null","","","","","","",""
"","","","","","html-button-response","46","223722","0.0-46.0","8DFA07C880FC4350BCAE8401C5098747","019ce76a-755b-7487-ba6f-a79730f3716c","019ce768-b048-7627-b827-888248f65c31","","341","
                    <div class=""stimulus-container"">
                        <img src=""images/causal_sequence/dog_causal/dog_causal_6.png"" class=""exp-image"">
                        <div class=""question-area"">
                            <p style=""font-size: 20px; font-weight: bold; margin: 0;"">Is there a person in this image?</p>
                        </div>
                    </div>","0","main_causal_task","6","dog_causal","","","",""
"","","","","","html-keyboard-response","47","228727","0.0-47.0","8DFA07C880FC4350BCAE8401C5098747","019ce76a-755b-7487-ba6f-a79730f3716c","019ce768-b048-7627-b827-888248f65c31","","null","
                    <div class=""stimulus-container"">
                        <img src=""images/causal_sequence/dog_causal/dog_causal_7.png"" class=""exp-image"">
                        <div class=""question-area""></div> 
                    </div>","null","","","","","","",""
"","","","","","html-button-response","48","229123","0.0-48.0","8DFA07C880FC4350BCAE8401C5098747","019ce76a-755b-7487-ba6f-a79730f3716c","019ce768-b048-7627-b827-888248f65c31","","395","
                    <div class=""stimulus-container"">
                        <img src=""images/causal_sequence/dog_causal/dog_causal_7.png"" class=""exp-image"">
                        <div class=""question-area"">
                            <p style=""font-size: 20px; font-weight: bold; margin: 0;"">Is there a person in this image?</p>
                        </div>
                    </div>","0","main_causal_task","7","dog_causal","","","",""
"","","","","","html-keyboard-response","49","234135","0.0-49.0","8DFA07C880FC4350BCAE8401C5098747","019ce76a-755b-7487-ba6f-a79730f3716c","019ce768-b048-7627-b827-888248f65c31","","null","
                    <div class=""stimulus-container"">
                        <img src=""images/causal_sequence/dog_causal/dog_causal_8.png"" class=""exp-image"">
                        <div class=""question-area""></div> 
                    </div>","null","","","","","","",""
"","","","","","html-button-response","50","234827","0.0-50.0","8DFA07C880FC4350BCAE8401C5098747","019ce76a-755b-7487-ba6f-a79730f3716c","019ce768-b048-7627-b827-888248f65c31","","691","
                    <div class=""stimulus-container"">
                        <img src=""images/causal_sequence/dog_causal/dog_causal_8.png"" class=""exp-image"">
                        <div class=""question-area"">
                            <p style=""font-size: 20px; font-weight: bold; margin: 0;"">Is there a person in this image?</p>
                        </div>
                    </div>","0","main_causal_task","8","dog_causal","","","",""
"","","","","","html-keyboard-response","51","239840","0.0-51.0","8DFA07C880FC4350BCAE8401C5098747","019ce76a-755b-7487-ba6f-a79730f3716c","019ce768-b048-7627-b827-888248f65c31","","null","
                    <div class=""stimulus-container"">
                        <img src=""images/causal_sequence/dog_causal/dog_causal_9.png"" class=""exp-image"">
                        <div class=""question-area""></div> 
                    </div>","null","","","","","","",""
"","","","","","html-button-response","52","240321","0.0-52.0","8DFA07C880FC4350BCAE8401C5098747","019ce76a-755b-7487-ba6f-a79730f3716c","019ce768-b048-7627-b827-888248f65c31","","480","
                    <div class=""stimulus-container"">
                        <img src=""images/causal_sequence/dog_causal/dog_causal_9.png"" class=""exp-image"">
                        <div class=""question-area"">
                            <p style=""font-size: 20px; font-weight: bold; margin: 0;"">Is there a person in this image?</p>
                        </div>
                    </div>","0","main_causal_task","9","dog_causal","","","",""
"","","","","","html-keyboard-response","53","241331","0.0-53.0","8DFA07C880FC4350BCAE8401C5098747","019ce76a-755b-7487-ba6f-a79730f3716c","019ce768-b048-7627-b827-888248f65c31","","null","<div style=""background-color: gray; width: 100vw; height: 100vh;""></div>","null","","","","","","",""
"","","","","","html-keyboard-response","54","246342","0.0-54.0","8DFA07C880FC4350BCAE8401C5098747","019ce76a-755b-7487-ba6f-a79730f3716c","019ce768-b048-7627-b827-888248f65c31","","null","
                    <div class=""stimulus-container"">
                        <img src=""images/causal_sequence/the_performance_causal/the_performance_causal_1.png"" class=""exp-image"">
                        <div class=""question-area""></div> 
                    </div>","null","","","","","","",""
"","","","","","html-button-response","55","246720","0.0-55.0","8DFA07C880FC4350BCAE8401C5098747","019ce76a-755b-7487-ba6f-a79730f3716c","019ce768-b048-7627-b827-888248f65c31","","377","
                    <div class=""stimulus-container"">
                        <img src=""images/causal_sequence/the_performance_causal/the_performance_causal_1.png"" class=""exp-image"">
                        <div class=""question-area"">
                            <p style=""font-size: 20px; font-weight: bold; margin: 0;"">Is there a person in this image?</p>
                        </div>
                    </div>","0","main_causal_task","1","the_performance_causal","","","",""
"","","","","","html-keyboard-response","56","251727","0.0-56.0","8DFA07C880FC4350BCAE8401C5098747","019ce76a-755b-7487-ba6f-a79730f3716c","019ce768-b048-7627-b827-888248f65c31","","null","
                    <div class=""stimulus-container"">
                        <img src=""images/causal_sequence/the_performance_causal/the_performance_causal_2.png"" class=""exp-image"">
                        <div class=""question-area""></div> 
                    </div>","null","","","","","","",""
"","","","","","html-button-response","57","252315","0.0-57.0","8DFA07C880FC4350BCAE8401C5098747","019ce76a-755b-7487-ba6f-a79730f3716c","019ce768-b048-7627-b827-888248f65c31","","587","
                    <div class=""stimulus-container"">
                        <img src=""images/causal_sequence/the_performance_causal/the_performance_causal_2.png"" class=""exp-image"">
                        <div class=""question-area"">
                            <p style=""font-size: 20px; font-weight: bold; margin: 0;"">Is there a person in this image?</p>
                        </div>
                    </div>","0","main_causal_task","2","the_performance_causal","","","",""
"","","","","","html-keyboard-response","58","257326","0.0-58.0","8DFA07C880FC4350BCAE8401C5098747","019ce76a-755b-7487-ba6f-a79730f3716c","019ce768-b048-7627-b827-888248f65c31","","null","
                    <div class=""stimulus-container"">
                        <img src=""images/causal_sequence/the_performance_causal/the_performance_causal_3.png"" class=""exp-image"">
                        <div class=""question-area""></div> 
                    </div>","null","","","","","","",""
"","","","","","html-button-response","59","257724","0.0-59.0","8DFA07C880FC4350BCAE8401C5098747","019ce76a-755b-7487-ba6f-a79730f3716c","019ce768-b048-7627-b827-888248f65c31","","397","
                    <div class=""stimulus-container"">
                        <img src=""images/causal_sequence/the_performance_causal/the_performance_causal_3.png"" class=""exp-image"">
                        <div class=""question-area"">
                            <p style=""font-size: 20px; font-weight: bold; margin: 0;"">Is there a person in this image?</p>
                        </div>
                    </div>","0","main_causal_task","3","the_performance_causal","","","",""
"","","","","","html-keyboard-response","60","262732","0.0-60.0","8DFA07C880FC4350BCAE8401C5098747","019ce76a-755b-7487-ba6f-a79730f3716c","019ce768-b048-7627-b827-888248f65c31","","null","
                    <div class=""stimulus-container"">
                        <img src=""images/causal_sequence/the_performance_causal/the_performance_causal_4.png"" class=""exp-image"">
                        <div class=""question-area""></div> 
                    </div>","null","","","","","","",""
"","","","","","html-button-response","61","263042","0.0-61.0","8DFA07C880FC4350BCAE8401C5098747","019ce76a-755b-7487-ba6f-a79730f3716c","019ce768-b048-7627-b827-888248f65c31","","309","
                    <div class=""stimulus-container"">
                        <img src=""images/causal_sequence/the_performance_causal/the_performance_causal_4.png"" class=""exp-image"">
                        <div class=""question-area"">
                            <p style=""font-size: 20px; font-weight: bold; margin: 0;"">Is there a person in this image?</p>
                        </div>
                    </div>","0","main_causal_task","4","the_performance_causal","","","",""
"","","","","","html-keyboard-response","62","268053","0.0-62.0","8DFA07C880FC4350BCAE8401C5098747","019ce76a-755b-7487-ba6f-a79730f3716c","019ce768-b048-7627-b827-888248f65c31","","null","
                    <div class=""stimulus-container"">
                        <img src=""images/causal_sequence/the_performance_causal/the_performance_causal_5.png"" class=""exp-image"">
                        <div class=""question-area""></div> 
                    </div>","null","","","","","","",""
"","","","","","html-button-response","63","268458","0.0-63.0","8DFA07C880FC4350BCAE8401C5098747","019ce76a-755b-7487-ba6f-a79730f3716c","019ce768-b048-7627-b827-888248f65c31","","404","
                    <div class=""stimulus-container"">
                        <img src=""images/causal_sequence/the_performance_causal/the_performance_causal_5.png"" class=""exp-image"">
                        <div class=""question-area"">
                            <p style=""font-size: 20px; font-weight: bold; margin: 0;"">Is there a person in this image?</p>
                        </div>
                    </div>","0","main_causal_task","5","the_performance_causal","","","",""
"","","","","","html-keyboard-response","64","273470","0.0-64.0","8DFA07C880FC4350BCAE8401C5098747","019ce76a-755b-7487-ba6f-a79730f3716c","019ce768-b048-7627-b827-888248f65c31","","null","
                    <div class=""stimulus-container"">
                        <img src=""images/causal_sequence/the_performance_causal/the_performance_causal_6.png"" class=""exp-image"">
                        <div class=""question-area""></div> 
                    </div>","null","","","","","","",""
"","","","","","html-button-response","65","273878","0.0-65.0","8DFA07C880FC4350BCAE8401C5098747","019ce76a-755b-7487-ba6f-a79730f3716c","019ce768-b048-7627-b827-888248f65c31","","408","
                    <div class=""stimulus-container"">
                        <img src=""images/causal_sequence/the_performance_causal/the_performance_causal_6.png"" class=""exp-image"">
                        <div class=""question-area"">
                            <p style=""font-size: 20px; font-weight: bold; margin: 0;"">Is there a person in this image?</p>
                        </div>
                    </div>","0","main_causal_task","6","the_performance_causal","","","",""
"","","","","","html-keyboard-response","66","278887","0.0-66.0","8DFA07C880FC4350BCAE8401C5098747","019ce76a-755b-7487-ba6f-a79730f3716c","019ce768-b048-7627-b827-888248f65c31","","null","
                    <div class=""stimulus-container"">
                        <img src=""images/causal_sequence/the_performance_causal/the_performance_causal_7.png"" class=""exp-image"">
                        <div class=""question-area""></div> 
                    </div>","null","","","","","","",""
"","","","","","html-button-response","67","279438","0.0-67.0","8DFA07C880FC4350BCAE8401C5098747","019ce76a-755b-7487-ba6f-a79730f3716c","019ce768-b048-7627-b827-888248f65c31","","550","
                    <div class=""stimulus-container"">
                        <img src=""images/causal_sequence/the_performance_causal/the_performance_causal_7.png"" class=""exp-image"">
                        <div class=""question-area"">
                            <p style=""font-size: 20px; font-weight: bold; margin: 0;"">Is there a person in this image?</p>
                        </div>
                    </div>","0","main_causal_task","7","the_performance_causal","","","",""
"","","","","","html-keyboard-response","68","284439","0.0-68.0","8DFA07C880FC4350BCAE8401C5098747","019ce76a-755b-7487-ba6f-a79730f3716c","019ce768-b048-7627-b827-888248f65c31","","null","
                    <div class=""stimulus-container"">
                        <img src=""images/causal_sequence/the_performance_causal/the_performance_causal_8.png"" class=""exp-image"">
                        <div class=""question-area""></div> 
                    </div>","null","","","","","","",""
"","","","","","html-button-response","69","284925","0.0-69.0","8DFA07C880FC4350BCAE8401C5098747","019ce76a-755b-7487-ba6f-a79730f3716c","019ce768-b048-7627-b827-888248f65c31","","485","
                    <div class=""stimulus-container"">
                        <img src=""images/causal_sequence/the_performance_causal/the_performance_causal_8.png"" class=""exp-image"">
                        <div class=""question-area"">
                            <p style=""font-size: 20px; font-weight: bold; margin: 0;"">Is there a person in this image?</p>
                        </div>
                    </div>","0","main_causal_task","8","the_performance_causal","","","",""
"","","","","","html-keyboard-response","70","289927","0.0-70.0","8DFA07C880FC4350BCAE8401C5098747","019ce76a-755b-7487-ba6f-a79730f3716c","019ce768-b048-7627-b827-888248f65c31","","null","
                    <div class=""stimulus-container"">
                        <img src=""images/causal_sequence/the_performance_causal/the_performance_causal_9.png"" class=""exp-image"">
                        <div class=""question-area""></div> 
                    </div>","null","","","","","","",""
"","","","","","html-button-response","71","290293","0.0-71.0","8DFA07C880FC4350BCAE8401C5098747","019ce76a-755b-7487-ba6f-a79730f3716c","019ce768-b048-7627-b827-888248f65c31","","366","
                    <div class=""stimulus-container"">
                        <img src=""images/causal_sequence/the_performance_causal/the_performance_causal_9.png"" class=""exp-image"">
                        <div class=""question-area"">
                            <p style=""font-size: 20px; font-weight: bold; margin: 0;"">Is there a person in this image?</p>
                        </div>
                    </div>","0","main_causal_task","9","the_performance_causal","","","",""
"","","","","","html-keyboard-response","72","291299","0.0-72.0","8DFA07C880FC4350BCAE8401C5098747","019ce76a-755b-7487-ba6f-a79730f3716c","019ce768-b048-7627-b827-888248f65c31","","null","<div style=""background-color: gray; width: 100vw; height: 100vh;""></div>","null","","","","","","",""
"","","","","","html-keyboard-response","73","296307","0.0-73.0","8DFA07C880FC4350BCAE8401C5098747","019ce76a-755b-7487-ba6f-a79730f3716c","019ce768-b048-7627-b827-888248f65c31","","null","
                    <div class=""stimulus-container"">
                        <img src=""images/causal_sequence/museum_causal/museum_causal_1.png"" class=""exp-image"">
                        <div class=""question-area""></div> 
                    </div>","null","","","","","","",""
"","","","","","html-button-response","74","296704","0.0-74.0","8DFA07C880FC4350BCAE8401C5098747","019ce76a-755b-7487-ba6f-a79730f3716c","019ce768-b048-7627-b827-888248f65c31","","396","
                    <div class=""stimulus-container"">
                        <img src=""images/causal_sequence/museum_causal/museum_causal_1.png"" class=""exp-image"">
                        <div class=""question-area"">
                            <p style=""font-size: 20px; font-weight: bold; margin: 0;"">Is there a person in this image?</p>
                        </div>
                    </div>","0","main_causal_task","1","museum_causal","","","",""
"","","","","","html-keyboard-response","75","301716","0.0-75.0","8DFA07C880FC4350BCAE8401C5098747","019ce76a-755b-7487-ba6f-a79730f3716c","019ce768-b048-7627-b827-888248f65c31","","null","
                    <div class=""stimulus-container"">
                        <img src=""images/causal_sequence/museum_causal/museum_causal_2.png"" class=""exp-image"">
                        <div class=""question-area""></div> 
                    </div>","null","","","","","","",""
"","","","","","html-button-response","76","302719","0.0-76.0","8DFA07C880FC4350BCAE8401C5098747","019ce76a-755b-7487-ba6f-a79730f3716c","019ce768-b048-7627-b827-888248f65c31","","1002","
                    <div class=""stimulus-container"">
                        <img src=""images/causal_sequence/museum_causal/museum_causal_2.png"" class=""exp-image"">
                        <div class=""question-area"">
                            <p style=""font-size: 20px; font-weight: bold; margin: 0;"">Is there a person in this image?</p>
                        </div>
                    </div>","1","main_causal_task","2","museum_causal","","","",""
"","","","","","html-keyboard-response","77","307724","0.0-77.0","8DFA07C880FC4350BCAE8401C5098747","019ce76a-755b-7487-ba6f-a79730f3716c","019ce768-b048-7627-b827-888248f65c31","","null","
                    <div class=""stimulus-container"">
                        <img src=""images/causal_sequence/museum_causal/museum_causal_3.png"" class=""exp-image"">
                        <div class=""question-area""></div> 
                    </div>","null","","","","","","",""
"","","","","","html-button-response","78","308095","0.0-78.0","8DFA07C880FC4350BCAE8401C5098747","019ce76a-755b-7487-ba6f-a79730f3716c","019ce768-b048-7627-b827-888248f65c31","","371","
                    <div class=""stimulus-container"">
                        <img src=""images/causal_sequence/museum_causal/museum_causal_3.png"" class=""exp-image"">
                        <div class=""question-area"">
                            <p style=""font-size: 20px; font-weight: bold; margin: 0;"">Is there a person in this image?</p>
                        </div>
                    </div>","0","main_causal_task","3","museum_causal","","","",""
"","","","","","html-keyboard-response","79","313099","0.0-79.0","8DFA07C880FC4350BCAE8401C5098747","019ce76a-755b-7487-ba6f-a79730f3716c","019ce768-b048-7627-b827-888248f65c31","","null","
                    <div class=""stimulus-container"">
                        <img src=""images/causal_sequence/museum_causal/museum_causal_4.png"" class=""exp-image"">
                        <div class=""question-area""></div> 
                    </div>","null","","","","","","",""
"","","","","","html-button-response","80","313466","0.0-80.0","8DFA07C880FC4350BCAE8401C5098747","019ce76a-755b-7487-ba6f-a79730f3716c","019ce768-b048-7627-b827-888248f65c31","","367","
                    <div class=""stimulus-container"">
                        <img src=""images/causal_sequence/museum_causal/museum_causal_4.png"" class=""exp-image"">
                        <div class=""question-area"">
                            <p style=""font-size: 20px; font-weight: bold; margin: 0;"">Is there a person in this image?</p>
                        </div>
                    </div>","1","main_causal_task","4","museum_causal","","","",""
"","","","","","html-keyboard-response","81","318474","0.0-81.0","8DFA07C880FC4350BCAE8401C5098747","019ce76a-755b-7487-ba6f-a79730f3716c","019ce768-b048-7627-b827-888248f65c31","","null","
                    <div class=""stimulus-container"">
                        <img src=""images/causal_sequence/museum_causal/museum_causal_5.png"" class=""exp-image"">
                        <div class=""question-area""></div> 
                    </div>","null","","","","","","",""
"","","","","","html-button-response","82","318845","0.0-82.0","8DFA07C880FC4350BCAE8401C5098747","019ce76a-755b-7487-ba6f-a79730f3716c","019ce768-b048-7627-b827-888248f65c31","","370","
                    <div class=""stimulus-container"">
                        <img src=""images/causal_sequence/museum_causal/museum_causal_5.png"" class=""exp-image"">
                        <div class=""question-area"">
                            <p style=""font-size: 20px; font-weight: bold; margin: 0;"">Is there a person in this image?</p>
                        </div>
                    </div>","0","main_causal_task","5","museum_causal","","","",""
"","","","","","html-keyboard-response","83","323846","0.0-83.0","8DFA07C880FC4350BCAE8401C5098747","019ce76a-755b-7487-ba6f-a79730f3716c","019ce768-b048-7627-b827-888248f65c31","","null","
                    <div class=""stimulus-container"">
                        <img src=""images/causal_sequence/museum_causal/museum_causal_6.png"" class=""exp-image"">
                        <div class=""question-area""></div> 
                    </div>","null","","","","","","",""
"","","","","","html-button-response","84","324262","0.0-84.0","8DFA07C880FC4350BCAE8401C5098747","019ce76a-755b-7487-ba6f-a79730f3716c","019ce768-b048-7627-b827-888248f65c31","","415","
                    <div class=""stimulus-container"">
                        <img src=""images/causal_sequence/museum_causal/museum_causal_6.png"" class=""exp-image"">
                        <div class=""question-area"">
                            <p style=""font-size: 20px; font-weight: bold; margin: 0;"">Is there a person in this image?</p>
                        </div>
                    </div>","0","main_causal_task","6","museum_causal","","","",""
"","","","","","html-keyboard-response","85","329264","0.0-85.0","8DFA07C880FC4350BCAE8401C5098747","019ce76a-755b-7487-ba6f-a79730f3716c","019ce768-b048-7627-b827-888248f65c31","","null","
                    <div class=""stimulus-container"">
                        <img src=""images/causal_sequence/museum_causal/museum_causal_7.png"" class=""exp-image"">
                        <div class=""question-area""></div> 
                    </div>","null","","","","","","",""
"","","","","","html-button-response","86","329823","0.0-86.0","8DFA07C880FC4350BCAE8401C5098747","019ce76a-755b-7487-ba6f-a79730f3716c","019ce768-b048-7627-b827-888248f65c31","","559","
                    <div class=""stimulus-container"">
                        <img src=""images/causal_sequence/museum_causal/museum_causal_7.png"" class=""exp-image"">
                        <div class=""question-area"">
                            <p style=""font-size: 20px; font-weight: bold; margin: 0;"">Is there a person in this image?</p>
                        </div>
                    </div>","1","main_causal_task","7","museum_causal","","","",""
"","","","","","html-keyboard-response","87","334835","0.0-87.0","8DFA07C880FC4350BCAE8401C5098747","019ce76a-755b-7487-ba6f-a79730f3716c","019ce768-b048-7627-b827-888248f65c31","","null","
                    <div class=""stimulus-container"">
                        <img src=""images/causal_sequence/museum_causal/museum_causal_8.png"" class=""exp-image"">
                        <div class=""question-area""></div> 
                    </div>","null","","","","","","",""
"","","","","","html-button-response","88","335241","0.0-88.0","8DFA07C880FC4350BCAE8401C5098747","019ce76a-755b-7487-ba6f-a79730f3716c","019ce768-b048-7627-b827-888248f65c31","","406","
                    <div class=""stimulus-container"">
                        <img src=""images/causal_sequence/museum_causal/museum_causal_8.png"" class=""exp-image"">
                        <div class=""question-area"">
                            <p style=""font-size: 20px; font-weight: bold; margin: 0;"">Is there a person in this image?</p>
                        </div>
                    </div>","0","main_causal_task","8","museum_causal","","","",""
"","","","","","html-keyboard-response","89","340253","0.0-89.0","8DFA07C880FC4350BCAE8401C5098747","019ce76a-755b-7487-ba6f-a79730f3716c","019ce768-b048-7627-b827-888248f65c31","","null","
                    <div class=""stimulus-container"">
                        <img src=""images/causal_sequence/museum_causal/museum_causal_9.png"" class=""exp-image"">
                        <div class=""question-area""></div> 
                    </div>","null","","","","","","",""
"","","","","","html-button-response","90","340648","0.0-90.0","8DFA07C880FC4350BCAE8401C5098747","019ce76a-755b-7487-ba6f-a79730f3716c","019ce768-b048-7627-b827-888248f65c31","","394","
                    <div class=""stimulus-container"">
                        <img src=""images/causal_sequence/museum_causal/museum_causal_9.png"" class=""exp-image"">
                        <div class=""question-area"">
                            <p style=""font-size: 20px; font-weight: bold; margin: 0;"">Is there a person in this image?</p>
                        </div>
                    </div>","1","main_causal_task","9","museum_causal","","","",""
"","","","","","html-keyboard-response","91","341649","0.0-91.0","8DFA07C880FC4350BCAE8401C5098747","019ce76a-755b-7487-ba6f-a79730f3716c","019ce768-b048-7627-b827-888248f65c31","","null","<div style=""background-color: gray; width: 100vw; height: 100vh;""></div>","null","","","","","","",""
"","","","","","html-keyboard-response","92","346654","0.0-92.0","8DFA07C880FC4350BCAE8401C5098747","019ce76a-755b-7487-ba6f-a79730f3716c","019ce768-b048-7627-b827-888248f65c31","","null","
                    <div class=""stimulus-container"">
                        <img src=""images/causal_sequence/package_causal/package_causal_1.png"" class=""exp-image"">
                        <div class=""question-area""></div> 
                    </div>","null","","","","","","",""
"","","","","","html-button-response","93","347034","0.0-93.0","8DFA07C880FC4350BCAE8401C5098747","019ce76a-755b-7487-ba6f-a79730f3716c","019ce768-b048-7627-b827-888248f65c31","","379","
                    <div class=""stimulus-container"">
                        <img src=""images/causal_sequence/package_causal/package_causal_1.png"" class=""exp-image"">
                        <div class=""question-area"">
                            <p style=""font-size: 20px; font-weight: bold; margin: 0;"">Is there a person in this image?</p>
                        </div>
                    </div>","0","main_causal_task","1","package_causal","","","",""
"","","","","","html-keyboard-response","94","352039","0.0-94.0","8DFA07C880FC4350BCAE8401C5098747","019ce76a-755b-7487-ba6f-a79730f3716c","019ce768-b048-7627-b827-888248f65c31","","null","
                    <div class=""stimulus-container"">
                        <img src=""images/causal_sequence/package_causal/package_causal_2.png"" class=""exp-image"">
                        <div class=""question-area""></div> 
                    </div>","null","","","","","","",""
"","","","","","html-button-response","95","352404","0.0-95.0","8DFA07C880FC4350BCAE8401C5098747","019ce76a-755b-7487-ba6f-a79730f3716c","019ce768-b048-7627-b827-888248f65c31","","364","
                    <div class=""stimulus-container"">
                        <img src=""images/causal_sequence/package_causal/package_causal_2.png"" class=""exp-image"">
                        <div class=""question-area"">
                            <p style=""font-size: 20px; font-weight: bold; margin: 0;"">Is there a person in this image?</p>
                        </div>
                    </div>","0","main_causal_task","2","package_causal","","","",""
"","","","","","html-keyboard-response","96","357406","0.0-96.0","8DFA07C880FC4350BCAE8401C5098747","019ce76a-755b-7487-ba6f-a79730f3716c","019ce768-b048-7627-b827-888248f65c31","","null","
                    <div class=""stimulus-container"">
                        <img src=""images/causal_sequence/package_causal/package_causal_3.png"" class=""exp-image"">
                        <div class=""question-area""></div> 
                    </div>","null","","","","","","",""
"","","","","","html-button-response","97","357800","0.0-97.0","8DFA07C880FC4350BCAE8401C5098747","019ce76a-755b-7487-ba6f-a79730f3716c","019ce768-b048-7627-b827-888248f65c31","","393","
                    <div class=""stimulus-container"">
                        <img src=""images/causal_sequence/package_causal/package_causal_3.png"" class=""exp-image"">
                        <div class=""question-area"">
                            <p style=""font-size: 20px; font-weight: bold; margin: 0;"">Is there a person in this image?</p>
                        </div>
                    </div>","0","main_causal_task","3","package_causal","","","",""
"","","","","","html-keyboard-response","98","362813","0.0-98.0","8DFA07C880FC4350BCAE8401C5098747","019ce76a-755b-7487-ba6f-a79730f3716c","019ce768-b048-7627-b827-888248f65c31","","null","
                    <div class=""stimulus-container"">
                        <img src=""images/causal_sequence/package_causal/package_causal_4.png"" class=""exp-image"">
                        <div class=""question-area""></div> 
                    </div>","null","","","","","","",""
"","","","","","html-button-response","99","363279","0.0-99.0","8DFA07C880FC4350BCAE8401C5098747","019ce76a-755b-7487-ba6f-a79730f3716c","019ce768-b048-7627-b827-888248f65c31","","465","
                    <div class=""stimulus-container"">
                        <img src=""images/causal_sequence/package_causal/package_causal_4.png"" class=""exp-image"">
                        <div class=""question-area"">
                            <p style=""font-size: 20px; font-weight: bold; margin: 0;"">Is there a person in this image?</p>
                        </div>
                    </div>","1","main_causal_task","4","package_causal","","","",""
"","","","","","html-keyboard-response","100","368284","0.0-100.0","8DFA07C880FC4350BCAE8401C5098747","019ce76a-755b-7487-ba6f-a79730f3716c","019ce768-b048-7627-b827-888248f65c31","","null","
                    <div class=""stimulus-container"">
                        <img src=""images/causal_sequence/package_causal/package_causal_5.png"" class=""exp-image"">
                        <div class=""question-area""></div> 
                    </div>","null","","","","","","",""
"","","","","","html-button-response","101","368675","0.0-101.0","8DFA07C880FC4350BCAE8401C5098747","019ce76a-755b-7487-ba6f-a79730f3716c","019ce768-b048-7627-b827-888248f65c31","","390","
                    <div class=""stimulus-container"">
                        <img src=""images/causal_sequence/package_causal/package_causal_5.png"" class=""exp-image"">
                        <div class=""question-area"">
                            <p style=""font-size: 20px; font-weight: bold; margin: 0;"">Is there a person in this image?</p>
                        </div>
                    </div>","0","main_causal_task","5","package_causal","","","",""
"","","","","","html-keyboard-response","102","373677","0.0-102.0","8DFA07C880FC4350BCAE8401C5098747","019ce76a-755b-7487-ba6f-a79730f3716c","019ce768-b048-7627-b827-888248f65c31","","null","
                    <div class=""stimulus-container"">
                        <img src=""images/causal_sequence/package_causal/package_causal_6.png"" class=""exp-image"">
                        <div class=""question-area""></div> 
                    </div>","null","","","","","","",""
"","","","","","html-button-response","103","374087","0.0-103.0","8DFA07C880FC4350BCAE8401C5098747","019ce76a-755b-7487-ba6f-a79730f3716c","019ce768-b048-7627-b827-888248f65c31","","410","
                    <div class=""stimulus-container"">
                        <img src=""images/causal_sequence/package_causal/package_causal_6.png"" class=""exp-image"">
                        <div class=""question-area"">
                            <p style=""font-size: 20px; font-weight: bold; margin: 0;"">Is there a person in this image?</p>
                        </div>
                    </div>","0","main_causal_task","6","package_causal","","","",""
"","","","","","html-keyboard-response","104","379097","0.0-104.0","8DFA07C880FC4350BCAE8401C5098747","019ce76a-755b-7487-ba6f-a79730f3716c","019ce768-b048-7627-b827-888248f65c31","","null","
                    <div class=""stimulus-container"">
                        <img src=""images/causal_sequence/package_causal/package_causal_7.png"" class=""exp-image"">
                        <div class=""question-area""></div> 
                    </div>","null","","","","","","",""
"","","","","","html-button-response","105","379476","0.0-105.0","8DFA07C880FC4350BCAE8401C5098747","019ce76a-755b-7487-ba6f-a79730f3716c","019ce768-b048-7627-b827-888248f65c31","","379","
                    <div class=""stimulus-container"">
                        <img src=""images/causal_sequence/package_causal/package_causal_7.png"" class=""exp-image"">
                        <div class=""question-area"">
                            <p style=""font-size: 20px; font-weight: bold; margin: 0;"">Is there a person in this image?</p>
                        </div>
                    </div>","0","main_causal_task","7","package_causal","","","",""
"","","","","","html-keyboard-response","106","384485","0.0-106.0","8DFA07C880FC4350BCAE8401C5098747","019ce76a-755b-7487-ba6f-a79730f3716c","019ce768-b048-7627-b827-888248f65c31","","null","
                    <div class=""stimulus-container"">
                        <img src=""images/causal_sequence/package_causal/package_causal_8.png"" class=""exp-image"">
                        <div class=""question-area""></div> 
                    </div>","null","","","","","","",""
"","","","","","html-button-response","107","384856","0.0-107.0","8DFA07C880FC4350BCAE8401C5098747","019ce76a-755b-7487-ba6f-a79730f3716c","019ce768-b048-7627-b827-888248f65c31","","370","
                    <div class=""stimulus-container"">
                        <img src=""images/causal_sequence/package_causal/package_causal_8.png"" class=""exp-image"">
                        <div class=""question-area"">
                            <p style=""font-size: 20px; font-weight: bold; margin: 0;"">Is there a person in this image?</p>
                        </div>
                    </div>","0","main_causal_task","8","package_causal","","","",""
"","","","","","html-keyboard-response","108","389870","0.0-108.0","8DFA07C880FC4350BCAE8401C5098747","019ce76a-755b-7487-ba6f-a79730f3716c","019ce768-b048-7627-b827-888248f65c31","","null","
                    <div class=""stimulus-container"">
                        <img src=""images/causal_sequence/package_causal/package_causal_9.png"" class=""exp-image"">
                        <div class=""question-area""></div> 
                    </div>","null","","","","","","",""
"","","","","","html-button-response","109","390229","0.0-109.0","8DFA07C880FC4350BCAE8401C5098747","019ce76a-755b-7487-ba6f-a79730f3716c","019ce768-b048-7627-b827-888248f65c31","","358","
                    <div class=""stimulus-container"">
                        <img src=""images/causal_sequence/package_causal/package_causal_9.png"" class=""exp-image"">
                        <div class=""question-area"">
                            <p style=""font-size: 20px; font-weight: bold; margin: 0;"">Is there a person in this image?</p>
                        </div>
                    </div>","0","main_causal_task","9","package_causal","","","",""
"","","","","","html-keyboard-response","110","391237","0.0-110.0","8DFA07C880FC4350BCAE8401C5098747","019ce76a-755b-7487-ba6f-a79730f3716c","019ce768-b048-7627-b827-888248f65c31","","null","<div style=""background-color: gray; width: 100vw; height: 100vh;""></div>","null","","","","","","",""
"","","","","","html-keyboard-response","111","396244","0.0-111.0","8DFA07C880FC4350BCAE8401C5098747","019ce76a-755b-7487-ba6f-a79730f3716c","019ce768-b048-7627-b827-888248f65c31","","null","
                    <div class=""stimulus-container"">
                        <img src=""images/causal_sequence/coin_causal/coin_causal_1.png"" class=""exp-image"">
                        <div class=""question-area""></div> 
                    </div>","null","","","","","","",""
"","","","","","html-button-response","112","396690","0.0-112.0","8DFA07C880FC4350BCAE8401C5098747","019ce76a-755b-7487-ba6f-a79730f3716c","019ce768-b048-7627-b827-888248f65c31","","445","
                    <div class=""stimulus-container"">
                        <img src=""images/causal_sequence/coin_causal/coin_causal_1.png"" class=""exp-image"">
                        <div class=""question-area"">
                            <p style=""font-size: 20px; font-weight: bold; margin: 0;"">Is there a person in this image?</p>
                        </div>
                    </div>","0","main_causal_task","1","coin_causal","","","",""
"","","","","","html-keyboard-response","113","401695","0.0-113.0","8DFA07C880FC4350BCAE8401C5098747","019ce76a-755b-7487-ba6f-a79730f3716c","019ce768-b048-7627-b827-888248f65c31","","null","
                    <div class=""stimulus-container"">
                        <img src=""images/causal_sequence/coin_causal/coin_causal_2.png"" class=""exp-image"">
                        <div class=""question-area""></div> 
                    </div>","null","","","","","","",""
"","","","","","html-button-response","114","402233","0.0-114.0","8DFA07C880FC4350BCAE8401C5098747","019ce76a-755b-7487-ba6f-a79730f3716c","019ce768-b048-7627-b827-888248f65c31","","537","
                    <div class=""stimulus-container"">
                        <img src=""images/causal_sequence/coin_causal/coin_causal_2.png"" class=""exp-image"">
                        <div class=""question-area"">
                            <p style=""font-size: 20px; font-weight: bold; margin: 0;"">Is there a person in this image?</p>
                        </div>
                    </div>","0","main_causal_task","2","coin_causal","","","",""
"","","","","","html-keyboard-response","115","407239","0.0-115.0","8DFA07C880FC4350BCAE8401C5098747","019ce76a-755b-7487-ba6f-a79730f3716c","019ce768-b048-7627-b827-888248f65c31","","null","
                    <div class=""stimulus-container"">
                        <img src=""images/causal_sequence/coin_causal/coin_causal_3.png"" class=""exp-image"">
                        <div class=""question-area""></div> 
                    </div>","null","","","","","","",""
"","","","","","html-button-response","116","407793","0.0-116.0","8DFA07C880FC4350BCAE8401C5098747","019ce76a-755b-7487-ba6f-a79730f3716c","019ce768-b048-7627-b827-888248f65c31","","553","
                    <div class=""stimulus-container"">
                        <img src=""images/causal_sequence/coin_causal/coin_causal_3.png"" class=""exp-image"">
                        <div class=""question-area"">
                            <p style=""font-size: 20px; font-weight: bold; margin: 0;"">Is there a person in this image?</p>
                        </div>
                    </div>","0","main_causal_task","3","coin_causal","","","",""
"","","","","","html-keyboard-response","117","412797","0.0-117.0","8DFA07C880FC4350BCAE8401C5098747","019ce76a-755b-7487-ba6f-a79730f3716c","019ce768-b048-7627-b827-888248f65c31","","null","
                    <div class=""stimulus-container"">
                        <img src=""images/causal_sequence/coin_causal/coin_causal_4.png"" class=""exp-image"">
                        <div class=""question-area""></div> 
                    </div>","null","","","","","","",""
"","","","","","html-button-response","118","413195","0.0-118.0","8DFA07C880FC4350BCAE8401C5098747","019ce76a-755b-7487-ba6f-a79730f3716c","019ce768-b048-7627-b827-888248f65c31","","398","
                    <div class=""stimulus-container"">
                        <img src=""images/causal_sequence/coin_causal/coin_causal_4.png"" class=""exp-image"">
                        <div class=""question-area"">
                            <p style=""font-size: 20px; font-weight: bold; margin: 0;"">Is there a person in this image?</p>
                        </div>
                    </div>","0","main_causal_task","4","coin_causal","","","",""
"","","","","","html-keyboard-response","119","418203","0.0-119.0","8DFA07C880FC4350BCAE8401C5098747","019ce76a-755b-7487-ba6f-a79730f3716c","019ce768-b048-7627-b827-888248f65c31","","null","
                    <div class=""stimulus-container"">
                        <img src=""images/causal_sequence/coin_causal/coin_causal_5.png"" class=""exp-image"">
                        <div class=""question-area""></div> 
                    </div>","null","","","","","","",""
"","","","","","html-button-response","120","418605","0.0-120.0","8DFA07C880FC4350BCAE8401C5098747","019ce76a-755b-7487-ba6f-a79730f3716c","019ce768-b048-7627-b827-888248f65c31","","401","
                    <div class=""stimulus-container"">
                        <img src=""images/causal_sequence/coin_causal/coin_causal_5.png"" class=""exp-image"">
                        <div class=""question-area"">
                            <p style=""font-size: 20px; font-weight: bold; margin: 0;"">Is there a person in this image?</p>
                        </div>
                    </div>","0","main_causal_task","5","coin_causal","","","",""
"","","","","","html-keyboard-response","121","423615","0.0-121.0","8DFA07C880FC4350BCAE8401C5098747","019ce76a-755b-7487-ba6f-a79730f3716c","019ce768-b048-7627-b827-888248f65c31","","null","
                    <div class=""stimulus-container"">
                        <img src=""images/causal_sequence/coin_causal/coin_causal_6.png"" class=""exp-image"">
                        <div class=""question-area""></div> 
                    </div>","null","","","","","","",""
"","","","","","html-button-response","122","424114","0.0-122.0","8DFA07C880FC4350BCAE8401C5098747","019ce76a-755b-7487-ba6f-a79730f3716c","019ce768-b048-7627-b827-888248f65c31","","498","
                    <div class=""stimulus-container"">
                        <img src=""images/causal_sequence/coin_causal/coin_causal_6.png"" class=""exp-image"">
                        <div class=""question-area"">
                            <p style=""font-size: 20px; font-weight: bold; margin: 0;"">Is there a person in this image?</p>
                        </div>
                    </div>","0","main_causal_task","6","coin_causal","","","",""
"","","","","","html-keyboard-response","123","429130","0.0-123.0","8DFA07C880FC4350BCAE8401C5098747","019ce76a-755b-7487-ba6f-a79730f3716c","019ce768-b048-7627-b827-888248f65c31","","null","
                    <div class=""stimulus-container"">
                        <img src=""images/causal_sequence/coin_causal/coin_causal_7.png"" class=""exp-image"">
                        <div class=""question-area""></div> 
                    </div>","null","","","","","","",""
"","","","","","html-button-response","124","429526","0.0-124.0","8DFA07C880FC4350BCAE8401C5098747","019ce76a-755b-7487-ba6f-a79730f3716c","019ce768-b048-7627-b827-888248f65c31","","395","
                    <div class=""stimulus-container"">
                        <img src=""images/causal_sequence/coin_causal/coin_causal_7.png"" class=""exp-image"">
                        <div class=""question-area"">
                            <p style=""font-size: 20px; font-weight: bold; margin: 0;"">Is there a person in this image?</p>
                        </div>
                    </div>","1","main_causal_task","7","coin_causal","","","",""
"","","","","","html-keyboard-response","125","434535","0.0-125.0","8DFA07C880FC4350BCAE8401C5098747","019ce76a-755b-7487-ba6f-a79730f3716c","019ce768-b048-7627-b827-888248f65c31","","null","
                    <div class=""stimulus-container"">
                        <img src=""images/causal_sequence/coin_causal/coin_causal_8.png"" class=""exp-image"">
                        <div class=""question-area""></div> 
                    </div>","null","","","","","","",""
"","","","","","html-button-response","126","434876","0.0-126.0","8DFA07C880FC4350BCAE8401C5098747","019ce76a-755b-7487-ba6f-a79730f3716c","019ce768-b048-7627-b827-888248f65c31","","341","
                    <div class=""stimulus-container"">
                        <img src=""images/causal_sequence/coin_causal/coin_causal_8.png"" class=""exp-image"">
                        <div class=""question-area"">
                            <p style=""font-size: 20px; font-weight: bold; margin: 0;"">Is there a person in this image?</p>
                        </div>
                    </div>","0","main_causal_task","8","coin_causal","","","",""
"","","","","","html-keyboard-response","127","439891","0.0-127.0","8DFA07C880FC4350BCAE8401C5098747","019ce76a-755b-7487-ba6f-a79730f3716c","019ce768-b048-7627-b827-888248f65c31","","null","
                    <div class=""stimulus-container"">
                        <img src=""images/causal_sequence/coin_causal/coin_causal_9.png"" class=""exp-image"">
                        <div class=""question-area""></div> 
                    </div>","null","","","","","","",""
"","","","","","html-button-response","128","440378","0.0-128.0","8DFA07C880FC4350BCAE8401C5098747","019ce76a-755b-7487-ba6f-a79730f3716c","019ce768-b048-7627-b827-888248f65c31","","487","
                    <div class=""stimulus-container"">
                        <img src=""images/causal_sequence/coin_causal/coin_causal_9.png"" class=""exp-image"">
                        <div class=""question-area"">
                            <p style=""font-size: 20px; font-weight: bold; margin: 0;"">Is there a person in this image?</p>
                        </div>
                    </div>","0","main_causal_task","9","coin_causal","","","",""
"","","","","","instructions","129","441628","0.0-129.0","8DFA07C880FC4350BCAE8401C5098747","019ce76a-755b-7487-ba6f-a79730f3716c","019ce768-b048-7627-b827-888248f65c31","[{""page_index"":0,""viewing_time"":1249}]","1249","","","","","","","","",""
"","","","","","instructions","130","447737","0.0-130.0","8DFA07C880FC4350BCAE8401C5098747","019ce76a-755b-7487-ba6f-a79730f3716c","019ce768-b048-7627-b827-888248f65c31","[{""page_index"":0,""viewing_time"":6108}]","6109","","","","","","","","",""
"","","","","","html-keyboard-response","131","448751","0.0-131.0","8DFA07C880FC4350BCAE8401C5098747","019ce76a-755b-7487-ba6f-a79730f3716c","019ce768-b048-7627-b827-888248f65c31","","null","
        <div class=""stimulus-container"" style=""display: flex; align-items: center; justify-content: center; gap: 30px;"">
            <img src=""images/instructions/movie_1.png"" class=""exp-image"">
            <div style=""font-size: 40px; font-weight: bold; color: green; border: 5px solid green; padding: 25px; border-radius: 15px; background-color: #f0fff0;"">
                WORTH<br>$1
            </div>
        </div>
        <div class=""question-area""></div>","null","","","","","","",""
"","","","","","html-button-response","132","450305","0.0-132.0","8DFA07C880FC4350BCAE8401C5098747","019ce76a-755b-7487-ba6f-a79730f3716c","019ce768-b048-7627-b827-888248f65c31","","1553","
        <div class=""stimulus-container"" style=""display: flex; align-items: center; justify-content: center; gap: 30px;"">
            <img src=""images/instructions/movie_1.png"" class=""exp-image"">
            <div style=""font-size: 40px; font-weight: bold; color: green; border: 5px solid green; padding: 25px; border-radius: 15px; background-color: #f0fff0;"">
                WORTH<br>$1
            </div>
        </div>
        <div class=""question-area"">
            <p style=""font-size: 20px; font-weight: bold; margin: 0;"">Was there a person in this image?</p>
        </div>","0","","","","","","",""
"","","","","","instructions","133","457060","0.0-133.0","8DFA07C880FC4350BCAE8401C5098747","019ce76a-755b-7487-ba6f-a79730f3716c","019ce768-b048-7627-b827-888248f65c31","[{""page_index"":0,""viewing_time"":6755}]","6755","","","","","","","","",""
"","","","","","html-keyboard-response","134","467061","0.0-134.0","8DFA07C880FC4350BCAE8401C5098747","019ce76a-755b-7487-ba6f-a79730f3716c","019ce768-b048-7627-b827-888248f65c31","","null","
            <div class=""stimulus-container"" style=""display: flex; align-items: center; justify-content: center; gap: 30px;"">
                <img src=""images/causal_sequence/the_performance_causal/the_performance_causal_3.png"" class=""exp-image"">
                <div style=""font-size: 40px; font-weight: bold; color: green; border: 5px solid green; padding: 25px; border-radius: 15px; background-color: #f0fff0;"">
                    WORTH<br>$1
                </div>
            </div>
            <div class=""question-area""></div>","null","","","","","","",""
"","","","","","html-button-response","135","468142","0.0-135.0","8DFA07C880FC4350BCAE8401C5098747","019ce76a-755b-7487-ba6f-a79730f3716c","019ce768-b048-7627-b827-888248f65c31","","1080","
            <div class=""stimulus-container"" style=""display: flex; align-items: center; justify-content: center; gap: 30px;"">
                <img src=""images/causal_sequence/the_performance_causal/the_performance_causal_3.png"" class=""exp-image"">
                <div style=""font-size: 40px; font-weight: bold; color: green; border: 5px solid green; padding: 25px; border-radius: 15px; background-color: #f0fff0;"">
                    WORTH<br>$1
                </div>
            </div>
            <div class=""question-area"">
                <p style=""font-size: 20px; font-weight: bold; margin: 0;"">Was there a person in this image?</p>
            </div>","0","part2_value_learning","","the_performance_causal","3","","",""
"","","","","","html-keyboard-response","136","478144","0.0-136.0","8DFA07C880FC4350BCAE8401C5098747","019ce76a-755b-7487-ba6f-a79730f3716c","019ce768-b048-7627-b827-888248f65c31","","null","
            <div class=""stimulus-container"" style=""display: flex; align-items: center; justify-content: center; gap: 30px;"">
                <img src=""images/causal_sequence/saving_a_cat_causal/saving_a_cat_causal_3.png"" class=""exp-image"">
                <div style=""font-size: 40px; font-weight: bold; color: green; border: 5px solid green; padding: 25px; border-radius: 15px; background-color: #f0fff0;"">
                    WORTH<br>$1
                </div>
            </div>
            <div class=""question-area""></div>","null","","","","","","",""
"","","","","","html-button-response","137","479422","0.0-137.0","8DFA07C880FC4350BCAE8401C5098747","019ce76a-755b-7487-ba6f-a79730f3716c","019ce768-b048-7627-b827-888248f65c31","","1278","
            <div class=""stimulus-container"" style=""display: flex; align-items: center; justify-content: center; gap: 30px;"">
                <img src=""images/causal_sequence/saving_a_cat_causal/saving_a_cat_causal_3.png"" class=""exp-image"">
                <div style=""font-size: 40px; font-weight: bold; color: green; border: 5px solid green; padding: 25px; border-radius: 15px; background-color: #f0fff0;"">
                    WORTH<br>$1
                </div>
            </div>
            <div class=""question-area"">
                <p style=""font-size: 20px; font-weight: bold; margin: 0;"">Was there a person in this image?</p>
            </div>","1","part2_value_learning","","saving_a_cat_causal","3","","",""
"","","","","","html-keyboard-response","138","489434","0.0-138.0","8DFA07C880FC4350BCAE8401C5098747","019ce76a-755b-7487-ba6f-a79730f3716c","019ce768-b048-7627-b827-888248f65c31","","null","
            <div class=""stimulus-container"" style=""display: flex; align-items: center; justify-content: center; gap: 30px;"">
                <img src=""images/causal_sequence/package_causal/package_causal_3.png"" class=""exp-image"">
                <div style=""font-size: 40px; font-weight: bold; color: green; border: 5px solid green; padding: 25px; border-radius: 15px; background-color: #f0fff0;"">
                    WORTH<br>$1
                </div>
            </div>
            <div class=""question-area""></div>","null","","","","","","",""
"","","","","","html-button-response","139","490677","0.0-139.0","8DFA07C880FC4350BCAE8401C5098747","019ce76a-755b-7487-ba6f-a79730f3716c","019ce768-b048-7627-b827-888248f65c31","","1242","
            <div class=""stimulus-container"" style=""display: flex; align-items: center; justify-content: center; gap: 30px;"">
                <img src=""images/causal_sequence/package_causal/package_causal_3.png"" class=""exp-image"">
                <div style=""font-size: 40px; font-weight: bold; color: green; border: 5px solid green; padding: 25px; border-radius: 15px; background-color: #f0fff0;"">
                    WORTH<br>$1
                </div>
            </div>
            <div class=""question-area"">
                <p style=""font-size: 20px; font-weight: bold; margin: 0;"">Was there a person in this image?</p>
            </div>","0","part2_value_learning","","package_causal","3","","",""
"","","","","","html-keyboard-response","140","500687","0.0-140.0","8DFA07C880FC4350BCAE8401C5098747","019ce76a-755b-7487-ba6f-a79730f3716c","019ce768-b048-7627-b827-888248f65c31","","null","
            <div class=""stimulus-container"" style=""display: flex; align-items: center; justify-content: center; gap: 30px;"">
                <img src=""images/causal_sequence/museum_causal/museum_causal_3.png"" class=""exp-image"">
                <div style=""font-size: 40px; font-weight: bold; color: green; border: 5px solid green; padding: 25px; border-radius: 15px; background-color: #f0fff0;"">
                    WORTH<br>$1
                </div>
            </div>
            <div class=""question-area""></div>","null","","","","","","",""
"","","","","","html-button-response","141","501724","0.0-141.0","8DFA07C880FC4350BCAE8401C5098747","019ce76a-755b-7487-ba6f-a79730f3716c","019ce768-b048-7627-b827-888248f65c31","","1037","
            <div class=""stimulus-container"" style=""display: flex; align-items: center; justify-content: center; gap: 30px;"">
                <img src=""images/causal_sequence/museum_causal/museum_causal_3.png"" class=""exp-image"">
                <div style=""font-size: 40px; font-weight: bold; color: green; border: 5px solid green; padding: 25px; border-radius: 15px; background-color: #f0fff0;"">
                    WORTH<br>$1
                </div>
            </div>
            <div class=""question-area"">
                <p style=""font-size: 20px; font-weight: bold; margin: 0;"">Was there a person in this image?</p>
            </div>","0","part2_value_learning","","museum_causal","3","","",""
"","","","","","html-keyboard-response","142","511728","0.0-142.0","8DFA07C880FC4350BCAE8401C5098747","019ce76a-755b-7487-ba6f-a79730f3716c","019ce768-b048-7627-b827-888248f65c31","","null","
            <div class=""stimulus-container"" style=""display: flex; align-items: center; justify-content: center; gap: 30px;"">
                <img src=""images/causal_sequence/dog_causal/dog_causal_7.png"" class=""exp-image"">
                <div style=""font-size: 40px; font-weight: bold; color: green; border: 5px solid green; padding: 25px; border-radius: 15px; background-color: #f0fff0;"">
                    WORTH<br>$1
                </div>
            </div>
            <div class=""question-area""></div>","null","","","","","","",""
"","","","","","html-button-response","143","512516","0.0-143.0","8DFA07C880FC4350BCAE8401C5098747","019ce76a-755b-7487-ba6f-a79730f3716c","019ce768-b048-7627-b827-888248f65c31","","787","
            <div class=""stimulus-container"" style=""display: flex; align-items: center; justify-content: center; gap: 30px;"">
                <img src=""images/causal_sequence/dog_causal/dog_causal_7.png"" class=""exp-image"">
                <div style=""font-size: 40px; font-weight: bold; color: green; border: 5px solid green; padding: 25px; border-radius: 15px; background-color: #f0fff0;"">
                    WORTH<br>$1
                </div>
            </div>
            <div class=""question-area"">
                <p style=""font-size: 20px; font-weight: bold; margin: 0;"">Was there a person in this image?</p>
            </div>","0","part2_value_learning","","dog_causal","7","","",""
"","","","","","html-keyboard-response","144","522520","0.0-144.0","8DFA07C880FC4350BCAE8401C5098747","019ce76a-755b-7487-ba6f-a79730f3716c","019ce768-b048-7627-b827-888248f65c31","","null","
            <div class=""stimulus-container"" style=""display: flex; align-items: center; justify-content: center; gap: 30px;"">
                <img src=""images/causal_sequence/coin_causal/coin_causal_7.png"" class=""exp-image"">
                <div style=""font-size: 40px; font-weight: bold; color: green; border: 5px solid green; padding: 25px; border-radius: 15px; background-color: #f0fff0;"">
                    WORTH<br>$1
                </div>
            </div>
            <div class=""question-area""></div>","null","","","","","","",""
"","","","","","html-button-response","145","523646","0.0-145.0","8DFA07C880FC4350BCAE8401C5098747","019ce76a-755b-7487-ba6f-a79730f3716c","019ce768-b048-7627-b827-888248f65c31","","1125","
            <div class=""stimulus-container"" style=""display: flex; align-items: center; justify-content: center; gap: 30px;"">
                <img src=""images/causal_sequence/coin_causal/coin_causal_7.png"" class=""exp-image"">
                <div style=""font-size: 40px; font-weight: bold; color: green; border: 5px solid green; padding: 25px; border-radius: 15px; background-color: #f0fff0;"">
                    WORTH<br>$1
                </div>
            </div>
            <div class=""question-area"">
                <p style=""font-size: 20px; font-weight: bold; margin: 0;"">Was there a person in this image?</p>
            </div>","1","part2_value_learning","","coin_causal","7","","",""
"","","","","","instructions","146","524731","0.0-146.0","8DFA07C880FC4350BCAE8401C5098747","019ce76a-755b-7487-ba6f-a79730f3716c","019ce768-b048-7627-b827-888248f65c31","[{""page_index"":0,""viewing_time"":1084}]","1084","","","","","","","","",""
"","","","","","instructions","147","525699","0.0-147.0","8DFA07C880FC4350BCAE8401C5098747","019ce76a-755b-7487-ba6f-a79730f3716c","019ce768-b048-7627-b827-888248f65c31","[{""page_index"":0,""viewing_time"":968}]","968","","","","","","","","",""
"","","","","","html-keyboard-response","148","535709","0.0-148.0-0.0","8DFA07C880FC4350BCAE8401C5098747","019ce76a-755b-7487-ba6f-a79730f3716c","019ce768-b048-7627-b827-888248f65c31","","null","
                        <div style=""font-family: Arial; margin-bottom: 20px;""><h3>Which image is more valuable?</h3></div>
                        <div class=""stimulus-container"" style=""display: flex; width: 1100px; justify-content: center; gap: 50px;"">
                            <img src=""images/causal_sequence/saving_a_cat_causal/saving_a_cat_causal_5.png"" class=""exp-image"">
                            <img src=""images/causal_sequence/saving_a_cat_causal/saving_a_cat_causal_1.png"" class=""exp-image"">
                        </div>","null","","","","","","",""
"","","","","","html-button-response","149","536799","0.0-148.0-1.0","8DFA07C880FC4350BCAE8401C5098747","019ce76a-755b-7487-ba6f-a79730f3716c","019ce768-b048-7627-b827-888248f65c31","","1089","
                        <div style=""font-family: Arial; margin-bottom: 20px;""><h3>Which image is more valuable?</h3></div>
                        <div class=""stimulus-container"" style=""display: flex; width: 1100px; justify-content: center; gap: 50px;"">
                            <img src=""images/causal_sequence/saving_a_cat_causal/saving_a_cat_causal_5.png"" class=""exp-image"">
                            <img src=""images/causal_sequence/saving_a_cat_causal/saving_a_cat_causal_1.png"" class=""exp-image"">
                        </div>","0","part3_final_choice","","saving_a_cat_causal","","3","5","2"
"","","","","","html-keyboard-response","150","546807","0.0-149.0-0.0","8DFA07C880FC4350BCAE8401C5098747","019ce76a-755b-7487-ba6f-a79730f3716c","019ce768-b048-7627-b827-888248f65c31","","null","
                        <div style=""font-family: Arial; margin-bottom: 20px;""><h3>Which image is more valuable?</h3></div>
                        <div class=""stimulus-container"" style=""display: flex; width: 1100px; justify-content: center; gap: 50px;"">
                            <img src=""images/causal_sequence/coin_causal/coin_causal_9.png"" class=""exp-image"">
                            <img src=""images/causal_sequence/coin_causal/coin_causal_5.png"" class=""exp-image"">
                        </div>","null","","","","","","",""
"","","","","","html-button-response","151","548416","0.0-149.0-1.0","8DFA07C880FC4350BCAE8401C5098747","019ce76a-755b-7487-ba6f-a79730f3716c","019ce768-b048-7627-b827-888248f65c31","","1608","
                        <div style=""font-family: Arial; margin-bottom: 20px;""><h3>Which image is more valuable?</h3></div>
                        <div class=""stimulus-container"" style=""display: flex; width: 1100px; justify-content: center; gap: 50px;"">
                            <img src=""images/causal_sequence/coin_causal/coin_causal_9.png"" class=""exp-image"">
                            <img src=""images/causal_sequence/coin_causal/coin_causal_5.png"" class=""exp-image"">
                        </div>","1","part3_final_choice","","coin_causal","","7","5","-2"
"","","","","","html-keyboard-response","152","558426","0.0-150.0-0.0","8DFA07C880FC4350BCAE8401C5098747","019ce76a-755b-7487-ba6f-a79730f3716c","019ce768-b048-7627-b827-888248f65c31","","null","
                        <div style=""font-family: Arial; margin-bottom: 20px;""><h3>Which image is more valuable?</h3></div>
                        <div class=""stimulus-container"" style=""display: flex; width: 1100px; justify-content: center; gap: 50px;"">
                            <img src=""images/causal_sequence/dog_causal/dog_causal_5.png"" class=""exp-image"">
                            <img src=""images/causal_sequence/dog_causal/dog_causal_9.png"" class=""exp-image"">
                        </div>","null","","","","","","",""
"","","","","","html-button-response","153","559058","0.0-150.0-1.0","8DFA07C880FC4350BCAE8401C5098747","019ce76a-755b-7487-ba6f-a79730f3716c","019ce768-b048-7627-b827-888248f65c31","","632","
                        <div style=""font-family: Arial; margin-bottom: 20px;""><h3>Which image is more valuable?</h3></div>
                        <div class=""stimulus-container"" style=""display: flex; width: 1100px; justify-content: center; gap: 50px;"">
                            <img src=""images/causal_sequence/dog_causal/dog_causal_5.png"" class=""exp-image"">
                            <img src=""images/causal_sequence/dog_causal/dog_causal_9.png"" class=""exp-image"">
                        </div>","1","part3_final_choice","","dog_causal","","7","9","2"
"","","","","","html-keyboard-response","154","569069","0.0-151.0-0.0","8DFA07C880FC4350BCAE8401C5098747","019ce76a-755b-7487-ba6f-a79730f3716c","019ce768-b048-7627-b827-888248f65c31","","null","
                        <div style=""font-family: Arial; margin-bottom: 20px;""><h3>Which image is more valuable?</h3></div>
                        <div class=""stimulus-container"" style=""display: flex; width: 1100px; justify-content: center; gap: 50px;"">
                            <img src=""images/causal_sequence/package_causal/package_causal_1.png"" class=""exp-image"">
                            <img src=""images/causal_sequence/package_causal/package_causal_5.png"" class=""exp-image"">
                        </div>","null","","","","","","",""
"","","","","","html-button-response","155","569849","0.0-151.0-1.0","8DFA07C880FC4350BCAE8401C5098747","019ce76a-755b-7487-ba6f-a79730f3716c","019ce768-b048-7627-b827-888248f65c31","","779","
                        <div style=""font-family: Arial; margin-bottom: 20px;""><h3>Which image is more valuable?</h3></div>
                        <div class=""stimulus-container"" style=""display: flex; width: 1100px; justify-content: center; gap: 50px;"">
                            <img src=""images/causal_sequence/package_causal/package_causal_1.png"" class=""exp-image"">
                            <img src=""images/causal_sequence/package_causal/package_causal_5.png"" class=""exp-image"">
                        </div>","1","part3_final_choice","","package_causal","","3","5","2"
"","","","","","html-keyboard-response","156","579851","0.0-152.0-0.0","8DFA07C880FC4350BCAE8401C5098747","019ce76a-755b-7487-ba6f-a79730f3716c","019ce768-b048-7627-b827-888248f65c31","","null","
                        <div style=""font-family: Arial; margin-bottom: 20px;""><h3>Which image is more valuable?</h3></div>
                        <div class=""stimulus-container"" style=""display: flex; width: 1100px; justify-content: center; gap: 50px;"">
                            <img src=""images/causal_sequence/museum_causal/museum_causal_5.png"" class=""exp-image"">
                            <img src=""images/causal_sequence/museum_causal/museum_causal_1.png"" class=""exp-image"">
                        </div>","null","","","","","","",""
"","","","","","html-button-response","157","580431","0.0-152.0-1.0","8DFA07C880FC4350BCAE8401C5098747","019ce76a-755b-7487-ba6f-a79730f3716c","019ce768-b048-7627-b827-888248f65c31","","580","
                        <div style=""font-family: Arial; margin-bottom: 20px;""><h3>Which image is more valuable?</h3></div>
                        <div class=""stimulus-container"" style=""display: flex; width: 1100px; justify-content: center; gap: 50px;"">
                            <img src=""images/causal_sequence/museum_causal/museum_causal_5.png"" class=""exp-image"">
                            <img src=""images/causal_sequence/museum_causal/museum_causal_1.png"" class=""exp-image"">
                        </div>","0","part3_final_choice","","museum_causal","","3","5","2"
"","","","","","html-keyboard-response","158","590435","0.0-153.0-0.0","8DFA07C880FC4350BCAE8401C5098747","019ce76a-755b-7487-ba6f-a79730f3716c","019ce768-b048-7627-b827-888248f65c31","","null","
                        <div style=""font-family: Arial; margin-bottom: 20px;""><h3>Which image is more valuable?</h3></div>
                        <div class=""stimulus-container"" style=""display: flex; width: 1100px; justify-content: center; gap: 50px;"">
                            <img src=""images/causal_sequence/the_performance_causal/the_performance_causal_1.png"" class=""exp-image"">
                            <img src=""images/causal_sequence/the_performance_causal/the_performance_causal_5.png"" class=""exp-image"">
                        </div>","null","","","","","","",""
"","","","","","html-button-response","159","591065","0.0-153.0-1.0","8DFA07C880FC4350BCAE8401C5098747","019ce76a-755b-7487-ba6f-a79730f3716c","019ce768-b048-7627-b827-888248f65c31","","629","
                        <div style=""font-family: Arial; margin-bottom: 20px;""><h3>Which image is more valuable?</h3></div>
                        <div class=""stimulus-container"" style=""display: flex; width: 1100px; justify-content: center; gap: 50px;"">
                            <img src=""images/causal_sequence/the_performance_causal/the_performance_causal_1.png"" class=""exp-image"">
                            <img src=""images/causal_sequence/the_performance_causal/the_performance_causal_5.png"" class=""exp-image"">
                        </div>","1","part3_final_choice","","the_performance_causal","","3","5","2"
"","","","","","survey-text","160","614088","0.0-154.0","8DFA07C880FC4350BCAE8401C5098747","019ce76a-755b-7487-ba6f-a79730f3716c","019ce768-b048-7627-b827-888248f65c31","","23019","","{""gender"":""MALE"",""age"":""27"",""decision_strategy"":""It was based off their actions."",""consistency_check"":""I used the same logic for all of the sets.""}","demographics_and_strategy","","","","","",""
"","","","","","instructions","161","618631","0.0-155.0","8DFA07C880FC4350BCAE8401C5098747","019ce76a-755b-7487-ba6f-a79730f3716c","019ce768-b048-7627-b827-888248f65c31","[{""page_index"":0,""viewing_time"":4542}]","4543","","","","","","","","",""
