"success","timeout","failed_images","failed_audio","failed_video","trial_type","trial_index","time_elapsed","internal_node_id","subject_id","study_id","session_id","view_history","rt","stimulus","response","task","image_index","folder","sequence_type","presentation_order","valuable_image_index","reward_type","distance_from_x","target_X","chosen_image_index","is_x_plus_dist","correct_choice"
"true","false","[]","[]","[]","preload","0","2045","0.0-0.0","9330ACD4EADC47DDA28E0289C0A653F3","019cfa3c-ffe2-7656-9e6a-c199a7cb54ef","019cfa3a-388e-72ab-ad58-bdeb258f96cd","","","","","","","","","","","","","","","",""
"","","","","","instructions","1","4333","0.0-1.0","9330ACD4EADC47DDA28E0289C0A653F3","019cfa3c-ffe2-7656-9e6a-c199a7cb54ef","019cfa3a-388e-72ab-ad58-bdeb258f96cd","[{""page_index"":0,""viewing_time"":2287}]","2288","","","","","","","","","","","","","",""
"","","","","","instructions","2","17750","0.0-2.0","9330ACD4EADC47DDA28E0289C0A653F3","019cfa3c-ffe2-7656-9e6a-c199a7cb54ef","019cfa3a-388e-72ab-ad58-bdeb258f96cd","[{""page_index"":0,""viewing_time"":13416}]","13417","","","","","","","","","","","","","",""
"true","","","","","fullscreen","3","20618","0.0-3.0","9330ACD4EADC47DDA28E0289C0A653F3","019cfa3c-ffe2-7656-9e6a-c199a7cb54ef","019cfa3a-388e-72ab-ad58-bdeb258f96cd","","1864","","","","","","","","","","","","","",""
"","","","","","instructions","4","30215","0.0-4.0","9330ACD4EADC47DDA28E0289C0A653F3","019cfa3c-ffe2-7656-9e6a-c199a7cb54ef","019cfa3a-388e-72ab-ad58-bdeb258f96cd","[{""page_index"":0,""viewing_time"":9596}]","9596","","","","","","","","","","","","","",""
"","","","","","instructions","5","39666","0.0-5.0","9330ACD4EADC47DDA28E0289C0A653F3","019cfa3c-ffe2-7656-9e6a-c199a7cb54ef","019cfa3a-388e-72ab-ad58-bdeb258f96cd","[{""page_index"":0,""viewing_time"":9450}]","9450","","","","","","","","","","","","","",""
"","","","","","html-keyboard-response","6","43669","0.0-6.0","9330ACD4EADC47DDA28E0289C0A653F3","019cfa3c-ffe2-7656-9e6a-c199a7cb54ef","019cfa3a-388e-72ab-ad58-bdeb258f96cd","","null","
                <div class=""stimulus-container"">
                    <img src=""images/instructions/movie_1.png"" class=""exp-image"">
                    <div class=""question-area""></div> 
                </div>","null","","","","","","","","","","","",""
"","","","","","html-button-response","7","46416","0.0-7.0","9330ACD4EADC47DDA28E0289C0A653F3","019cfa3c-ffe2-7656-9e6a-c199a7cb54ef","019cfa3a-388e-72ab-ad58-bdeb258f96cd","","2745","
                <div class=""stimulus-container"">
                    <img src=""images/instructions/movie_1.png"" class=""exp-image"">
                    <div class=""question-area"">
                        <p style=""font-size: 20px; font-weight: bold; margin: 0;"">Was there a person in this image?</p>
                    </div>
                </div>","0","example_question","1","","","","","","","","","",""
"","","","","","html-keyboard-response","8","50419","0.0-8.0","9330ACD4EADC47DDA28E0289C0A653F3","019cfa3c-ffe2-7656-9e6a-c199a7cb54ef","019cfa3a-388e-72ab-ad58-bdeb258f96cd","","null","
                <div class=""stimulus-container"">
                    <img src=""images/instructions/movie_2.png"" class=""exp-image"">
                    <div class=""question-area""></div> 
                </div>","null","","","","","","","","","","","",""
"","","","","","html-button-response","9","53083","0.0-9.0","9330ACD4EADC47DDA28E0289C0A653F3","019cfa3c-ffe2-7656-9e6a-c199a7cb54ef","019cfa3a-388e-72ab-ad58-bdeb258f96cd","","2662","
                <div class=""stimulus-container"">
                    <img src=""images/instructions/movie_2.png"" class=""exp-image"">
                    <div class=""question-area"">
                        <p style=""font-size: 20px; font-weight: bold; margin: 0;"">Was there a person in this image?</p>
                    </div>
                </div>","0","example_question","2","","","","","","","","","",""
"","","","","","html-keyboard-response","10","57085","0.0-10.0","9330ACD4EADC47DDA28E0289C0A653F3","019cfa3c-ffe2-7656-9e6a-c199a7cb54ef","019cfa3a-388e-72ab-ad58-bdeb258f96cd","","null","
                <div class=""stimulus-container"">
                    <img src=""images/instructions/movie_3.png"" class=""exp-image"">
                    <div class=""question-area""></div> 
                </div>","null","","","","","","","","","","","",""
"","","","","","html-button-response","11","58050","0.0-11.0","9330ACD4EADC47DDA28E0289C0A653F3","019cfa3c-ffe2-7656-9e6a-c199a7cb54ef","019cfa3a-388e-72ab-ad58-bdeb258f96cd","","963","
                <div class=""stimulus-container"">
                    <img src=""images/instructions/movie_3.png"" class=""exp-image"">
                    <div class=""question-area"">
                        <p style=""font-size: 20px; font-weight: bold; margin: 0;"">Was there a person in this image?</p>
                    </div>
                </div>","0","example_question","3","","","","","","","","","",""
"","","","","","html-keyboard-response","12","62053","0.0-12.0","9330ACD4EADC47DDA28E0289C0A653F3","019cfa3c-ffe2-7656-9e6a-c199a7cb54ef","019cfa3a-388e-72ab-ad58-bdeb258f96cd","","null","
                <div class=""stimulus-container"">
                    <img src=""images/instructions/movie_4.png"" class=""exp-image"">
                    <div class=""question-area""></div> 
                </div>","null","","","","","","","","","","","",""
"","","","","","html-button-response","13","62851","0.0-13.0","9330ACD4EADC47DDA28E0289C0A653F3","019cfa3c-ffe2-7656-9e6a-c199a7cb54ef","019cfa3a-388e-72ab-ad58-bdeb258f96cd","","796","
                <div class=""stimulus-container"">
                    <img src=""images/instructions/movie_4.png"" class=""exp-image"">
                    <div class=""question-area"">
                        <p style=""font-size: 20px; font-weight: bold; margin: 0;"">Was there a person in this image?</p>
                    </div>
                </div>","0","example_question","4","","","","","","","","","",""
"","","","","","instructions","14","65149","0.0-14.0","9330ACD4EADC47DDA28E0289C0A653F3","019cfa3c-ffe2-7656-9e6a-c199a7cb54ef","019cfa3a-388e-72ab-ad58-bdeb258f96cd","[{""page_index"":0,""viewing_time"":2298}]","2298","","","","","","","","","","","","","",""
"","","","","","instructions","15","73249","0.0-15.0","9330ACD4EADC47DDA28E0289C0A653F3","019cfa3c-ffe2-7656-9e6a-c199a7cb54ef","019cfa3a-388e-72ab-ad58-bdeb258f96cd","[{""page_index"":0,""viewing_time"":8099}]","8099","","","","","","","","","","","","","",""
"","","","","","html-keyboard-response","16","78251","0.0-16.0","9330ACD4EADC47DDA28E0289C0A653F3","019cfa3c-ffe2-7656-9e6a-c199a7cb54ef","019cfa3a-388e-72ab-ad58-bdeb258f96cd","","null","<div style=""background-color: white; width: 100vw; height: 100vh;""></div>","null","","","","","","","","","","","",""
"","","","","","html-keyboard-response","17","79254","0.0-17.0","9330ACD4EADC47DDA28E0289C0A653F3","019cfa3c-ffe2-7656-9e6a-c199a7cb54ef","019cfa3a-388e-72ab-ad58-bdeb258f96cd","","null","
                <div class=""stimulus-container"">
                    <img src=""images/causal_sequence/coin_causal/coin_causal_1.png"" class=""exp-image"">
                    <div class=""question-area""></div> 
                </div>","null","","","","","","","","","","","",""
"","","","","","html-button-response","18","82257","0.0-18.0","9330ACD4EADC47DDA28E0289C0A653F3","019cfa3c-ffe2-7656-9e6a-c199a7cb54ef","019cfa3a-388e-72ab-ad58-bdeb258f96cd","","null","
                <div class=""stimulus-container"">
                    <img src=""images/causal_sequence/coin_causal/coin_causal_1.png"" class=""exp-image"">
                    <div class=""question-area"">
                        <p style=""font-size: 20px; font-weight: bold; margin: 0;"">Is there a person in this image?</p>
                    </div>
                </div>","null","main_experiment_trial","1","coin_causal","causal_sequence","chronological","","","","","","",""
"","","","","","html-keyboard-response","19","83260","0.0-19.0","9330ACD4EADC47DDA28E0289C0A653F3","019cfa3c-ffe2-7656-9e6a-c199a7cb54ef","019cfa3a-388e-72ab-ad58-bdeb258f96cd","","null","
                <div class=""stimulus-container"">
                    <img src=""images/causal_sequence/coin_causal/coin_causal_2.png"" class=""exp-image"">
                    <div class=""question-area""></div> 
                </div>","null","","","","","","","","","","","",""
"","","","","","html-button-response","20","84418","0.0-20.0","9330ACD4EADC47DDA28E0289C0A653F3","019cfa3c-ffe2-7656-9e6a-c199a7cb54ef","019cfa3a-388e-72ab-ad58-bdeb258f96cd","","1156","
                <div class=""stimulus-container"">
                    <img src=""images/causal_sequence/coin_causal/coin_causal_2.png"" class=""exp-image"">
                    <div class=""question-area"">
                        <p style=""font-size: 20px; font-weight: bold; margin: 0;"">Is there a person in this image?</p>
                    </div>
                </div>","0","main_experiment_trial","2","coin_causal","causal_sequence","chronological","","","","","","",""
"","","","","","html-keyboard-response","21","85421","0.0-21.0","9330ACD4EADC47DDA28E0289C0A653F3","019cfa3c-ffe2-7656-9e6a-c199a7cb54ef","019cfa3a-388e-72ab-ad58-bdeb258f96cd","","null","
                <div class=""stimulus-container"">
                    <img src=""images/causal_sequence/coin_causal/coin_causal_3.png"" class=""exp-image"">
                    <div class=""question-area""></div> 
                </div>","null","","","","","","","","","","","",""
"","","","","","html-button-response","22","86533","0.0-22.0","9330ACD4EADC47DDA28E0289C0A653F3","019cfa3c-ffe2-7656-9e6a-c199a7cb54ef","019cfa3a-388e-72ab-ad58-bdeb258f96cd","","1110","
                <div class=""stimulus-container"">
                    <img src=""images/causal_sequence/coin_causal/coin_causal_3.png"" class=""exp-image"">
                    <div class=""question-area"">
                        <p style=""font-size: 20px; font-weight: bold; margin: 0;"">Is there a person in this image?</p>
                    </div>
                </div>","0","main_experiment_trial","3","coin_causal","causal_sequence","chronological","","","","","","",""
"","","","","","html-keyboard-response","23","87536","0.0-23.0","9330ACD4EADC47DDA28E0289C0A653F3","019cfa3c-ffe2-7656-9e6a-c199a7cb54ef","019cfa3a-388e-72ab-ad58-bdeb258f96cd","","null","
                <div class=""stimulus-container"">
                    <img src=""images/causal_sequence/coin_causal/coin_causal_4.png"" class=""exp-image"">
                    <div class=""question-area""></div> 
                </div>","null","","","","","","","","","","","",""
"","","","","","html-button-response","24","88384","0.0-24.0","9330ACD4EADC47DDA28E0289C0A653F3","019cfa3c-ffe2-7656-9e6a-c199a7cb54ef","019cfa3a-388e-72ab-ad58-bdeb258f96cd","","847","
                <div class=""stimulus-container"">
                    <img src=""images/causal_sequence/coin_causal/coin_causal_4.png"" class=""exp-image"">
                    <div class=""question-area"">
                        <p style=""font-size: 20px; font-weight: bold; margin: 0;"">Is there a person in this image?</p>
                    </div>
                </div>","0","main_experiment_trial","4","coin_causal","causal_sequence","chronological","","","","","","",""
"","","","","","html-keyboard-response","25","89387","0.0-25.0","9330ACD4EADC47DDA28E0289C0A653F3","019cfa3c-ffe2-7656-9e6a-c199a7cb54ef","019cfa3a-388e-72ab-ad58-bdeb258f96cd","","null","
                <div class=""stimulus-container"">
                    <img src=""images/causal_sequence/coin_causal/coin_causal_5.png"" class=""exp-image"">
                    <div class=""question-area""></div> 
                </div>","null","","","","","","","","","","","",""
"","","","","","html-button-response","26","90399","0.0-26.0","9330ACD4EADC47DDA28E0289C0A653F3","019cfa3c-ffe2-7656-9e6a-c199a7cb54ef","019cfa3a-388e-72ab-ad58-bdeb258f96cd","","1011","
                <div class=""stimulus-container"">
                    <img src=""images/causal_sequence/coin_causal/coin_causal_5.png"" class=""exp-image"">
                    <div class=""question-area"">
                        <p style=""font-size: 20px; font-weight: bold; margin: 0;"">Is there a person in this image?</p>
                    </div>
                </div>","0","main_experiment_trial","5","coin_causal","causal_sequence","chronological","","","","","","",""
"","","","","","html-keyboard-response","27","91402","0.0-27.0","9330ACD4EADC47DDA28E0289C0A653F3","019cfa3c-ffe2-7656-9e6a-c199a7cb54ef","019cfa3a-388e-72ab-ad58-bdeb258f96cd","","null","
                <div class=""stimulus-container"">
                    <img src=""images/causal_sequence/coin_causal/coin_causal_6.png"" class=""exp-image"">
                    <div class=""question-area""></div> 
                </div>","null","","","","","","","","","","","",""
"","","","","","html-button-response","28","92481","0.0-28.0","9330ACD4EADC47DDA28E0289C0A653F3","019cfa3c-ffe2-7656-9e6a-c199a7cb54ef","019cfa3a-388e-72ab-ad58-bdeb258f96cd","","1079","
                <div class=""stimulus-container"">
                    <img src=""images/causal_sequence/coin_causal/coin_causal_6.png"" class=""exp-image"">
                    <div class=""question-area"">
                        <p style=""font-size: 20px; font-weight: bold; margin: 0;"">Is there a person in this image?</p>
                    </div>
                </div>","0","main_experiment_trial","6","coin_causal","causal_sequence","chronological","","","","","","",""
"","","","","","html-keyboard-response","29","93483","0.0-29.0","9330ACD4EADC47DDA28E0289C0A653F3","019cfa3c-ffe2-7656-9e6a-c199a7cb54ef","019cfa3a-388e-72ab-ad58-bdeb258f96cd","","null","
                <div class=""stimulus-container"">
                    <img src=""images/causal_sequence/coin_causal/coin_causal_7.png"" class=""exp-image"">
                    <div class=""question-area""></div> 
                </div>","null","","","","","","","","","","","",""
"","","","","","html-button-response","30","94367","0.0-30.0","9330ACD4EADC47DDA28E0289C0A653F3","019cfa3c-ffe2-7656-9e6a-c199a7cb54ef","019cfa3a-388e-72ab-ad58-bdeb258f96cd","","882","
                <div class=""stimulus-container"">
                    <img src=""images/causal_sequence/coin_causal/coin_causal_7.png"" class=""exp-image"">
                    <div class=""question-area"">
                        <p style=""font-size: 20px; font-weight: bold; margin: 0;"">Is there a person in this image?</p>
                    </div>
                </div>","1","main_experiment_trial","7","coin_causal","causal_sequence","chronological","","","","","","",""
"","","","","","html-keyboard-response","31","95368","0.0-31.0","9330ACD4EADC47DDA28E0289C0A653F3","019cfa3c-ffe2-7656-9e6a-c199a7cb54ef","019cfa3a-388e-72ab-ad58-bdeb258f96cd","","null","
                <div class=""stimulus-container"">
                    <img src=""images/causal_sequence/coin_causal/coin_causal_8.png"" class=""exp-image"">
                    <div class=""question-area""></div> 
                </div>","null","","","","","","","","","","","",""
"","","","","","html-button-response","32","96582","0.0-32.0","9330ACD4EADC47DDA28E0289C0A653F3","019cfa3c-ffe2-7656-9e6a-c199a7cb54ef","019cfa3a-388e-72ab-ad58-bdeb258f96cd","","1213","
                <div class=""stimulus-container"">
                    <img src=""images/causal_sequence/coin_causal/coin_causal_8.png"" class=""exp-image"">
                    <div class=""question-area"">
                        <p style=""font-size: 20px; font-weight: bold; margin: 0;"">Is there a person in this image?</p>
                    </div>
                </div>","0","main_experiment_trial","8","coin_causal","causal_sequence","chronological","","","","","","",""
"","","","","","html-keyboard-response","33","97585","0.0-33.0","9330ACD4EADC47DDA28E0289C0A653F3","019cfa3c-ffe2-7656-9e6a-c199a7cb54ef","019cfa3a-388e-72ab-ad58-bdeb258f96cd","","null","
                <div class=""stimulus-container"">
                    <img src=""images/causal_sequence/coin_causal/coin_causal_9.png"" class=""exp-image"">
                    <div class=""question-area""></div> 
                </div>","null","","","","","","","","","","","",""
"","","","","","html-button-response","34","98552","0.0-34.0","9330ACD4EADC47DDA28E0289C0A653F3","019cfa3c-ffe2-7656-9e6a-c199a7cb54ef","019cfa3a-388e-72ab-ad58-bdeb258f96cd","","965","
                <div class=""stimulus-container"">
                    <img src=""images/causal_sequence/coin_causal/coin_causal_9.png"" class=""exp-image"">
                    <div class=""question-area"">
                        <p style=""font-size: 20px; font-weight: bold; margin: 0;"">Is there a person in this image?</p>
                    </div>
                </div>","0","main_experiment_trial","9","coin_causal","causal_sequence","chronological","","","","","","",""
"","","","","","html-keyboard-response","35","99555","0.0-35.0","9330ACD4EADC47DDA28E0289C0A653F3","019cfa3c-ffe2-7656-9e6a-c199a7cb54ef","019cfa3a-388e-72ab-ad58-bdeb258f96cd","","null","
                <div class=""stimulus-container"">
                    <img src=""images/causal_sequence/coin_causal/coin_causal_ten.png"" class=""exp-image"">
                    <div class=""question-area""></div> 
                </div>","null","","","","","","","","","","","",""
"","","","","","html-button-response","36","100617","0.0-36.0","9330ACD4EADC47DDA28E0289C0A653F3","019cfa3c-ffe2-7656-9e6a-c199a7cb54ef","019cfa3a-388e-72ab-ad58-bdeb258f96cd","","1061","
                <div class=""stimulus-container"">
                    <img src=""images/causal_sequence/coin_causal/coin_causal_ten.png"" class=""exp-image"">
                    <div class=""question-area"">
                        <p style=""font-size: 20px; font-weight: bold; margin: 0;"">Is there a person in this image?</p>
                    </div>
                </div>","0","main_experiment_trial","ten","coin_causal","causal_sequence","chronological","","","","","","",""
"","","","","","html-keyboard-response","37","105618","0.0-37.0","9330ACD4EADC47DDA28E0289C0A653F3","019cfa3c-ffe2-7656-9e6a-c199a7cb54ef","019cfa3a-388e-72ab-ad58-bdeb258f96cd","","null","<div style=""background-color: white; width: 100vw; height: 100vh;""></div>","null","","","","","","","","","","","",""
"","","","","","html-keyboard-response","38","106621","0.0-38.0","9330ACD4EADC47DDA28E0289C0A653F3","019cfa3c-ffe2-7656-9e6a-c199a7cb54ef","019cfa3a-388e-72ab-ad58-bdeb258f96cd","","null","
                <div class=""stimulus-container"">
                    <img src=""images/semantic_sequence/redecorating_a_house_semantic/redecorating_a_house_semantic_1.png"" class=""exp-image"">
                    <div class=""question-area""></div> 
                </div>","null","","","","","","","","","","","",""
"","","","","","html-button-response","39","108134","0.0-39.0","9330ACD4EADC47DDA28E0289C0A653F3","019cfa3c-ffe2-7656-9e6a-c199a7cb54ef","019cfa3a-388e-72ab-ad58-bdeb258f96cd","","1511","
                <div class=""stimulus-container"">
                    <img src=""images/semantic_sequence/redecorating_a_house_semantic/redecorating_a_house_semantic_1.png"" class=""exp-image"">
                    <div class=""question-area"">
                        <p style=""font-size: 20px; font-weight: bold; margin: 0;"">Is there a person in this image?</p>
                    </div>
                </div>","0","main_experiment_trial","1","redecorating_a_house_semantic","semantic_sequence","chronological","","","","","","",""
"","","","","","html-keyboard-response","40","109136","0.0-40.0","9330ACD4EADC47DDA28E0289C0A653F3","019cfa3c-ffe2-7656-9e6a-c199a7cb54ef","019cfa3a-388e-72ab-ad58-bdeb258f96cd","","null","
                <div class=""stimulus-container"">
                    <img src=""images/semantic_sequence/redecorating_a_house_semantic/redecorating_a_house_semantic_2.png"" class=""exp-image"">
                    <div class=""question-area""></div> 
                </div>","null","","","","","","","","","","","",""
"","","","","","html-button-response","41","110249","0.0-41.0","9330ACD4EADC47DDA28E0289C0A653F3","019cfa3c-ffe2-7656-9e6a-c199a7cb54ef","019cfa3a-388e-72ab-ad58-bdeb258f96cd","","1112","
                <div class=""stimulus-container"">
                    <img src=""images/semantic_sequence/redecorating_a_house_semantic/redecorating_a_house_semantic_2.png"" class=""exp-image"">
                    <div class=""question-area"">
                        <p style=""font-size: 20px; font-weight: bold; margin: 0;"">Is there a person in this image?</p>
                    </div>
                </div>","0","main_experiment_trial","2","redecorating_a_house_semantic","semantic_sequence","chronological","","","","","","",""
"","","","","","html-keyboard-response","42","111252","0.0-42.0","9330ACD4EADC47DDA28E0289C0A653F3","019cfa3c-ffe2-7656-9e6a-c199a7cb54ef","019cfa3a-388e-72ab-ad58-bdeb258f96cd","","null","
                <div class=""stimulus-container"">
                    <img src=""images/semantic_sequence/redecorating_a_house_semantic/redecorating_a_house_semantic_3.png"" class=""exp-image"">
                    <div class=""question-area""></div> 
                </div>","null","","","","","","","","","","","",""
"","","","","","html-button-response","43","112467","0.0-43.0","9330ACD4EADC47DDA28E0289C0A653F3","019cfa3c-ffe2-7656-9e6a-c199a7cb54ef","019cfa3a-388e-72ab-ad58-bdeb258f96cd","","1213","
                <div class=""stimulus-container"">
                    <img src=""images/semantic_sequence/redecorating_a_house_semantic/redecorating_a_house_semantic_3.png"" class=""exp-image"">
                    <div class=""question-area"">
                        <p style=""font-size: 20px; font-weight: bold; margin: 0;"">Is there a person in this image?</p>
                    </div>
                </div>","0","main_experiment_trial","3","redecorating_a_house_semantic","semantic_sequence","chronological","","","","","","",""
"","","","","","html-keyboard-response","44","113470","0.0-44.0","9330ACD4EADC47DDA28E0289C0A653F3","019cfa3c-ffe2-7656-9e6a-c199a7cb54ef","019cfa3a-388e-72ab-ad58-bdeb258f96cd","","null","
                <div class=""stimulus-container"">
                    <img src=""images/semantic_sequence/redecorating_a_house_semantic/redecorating_a_house_semantic_4.png"" class=""exp-image"">
                    <div class=""question-area""></div> 
                </div>","null","","","","","","","","","","","",""
"","","","","","html-button-response","45","114301","0.0-45.0","9330ACD4EADC47DDA28E0289C0A653F3","019cfa3c-ffe2-7656-9e6a-c199a7cb54ef","019cfa3a-388e-72ab-ad58-bdeb258f96cd","","830","
                <div class=""stimulus-container"">
                    <img src=""images/semantic_sequence/redecorating_a_house_semantic/redecorating_a_house_semantic_4.png"" class=""exp-image"">
                    <div class=""question-area"">
                        <p style=""font-size: 20px; font-weight: bold; margin: 0;"">Is there a person in this image?</p>
                    </div>
                </div>","0","main_experiment_trial","4","redecorating_a_house_semantic","semantic_sequence","chronological","","","","","","",""
"","","","","","html-keyboard-response","46","115303","0.0-46.0","9330ACD4EADC47DDA28E0289C0A653F3","019cfa3c-ffe2-7656-9e6a-c199a7cb54ef","019cfa3a-388e-72ab-ad58-bdeb258f96cd","","null","
                <div class=""stimulus-container"">
                    <img src=""images/semantic_sequence/redecorating_a_house_semantic/redecorating_a_house_semantic_5.png"" class=""exp-image"">
                    <div class=""question-area""></div> 
                </div>","null","","","","","","","","","","","",""
"","","","","","html-button-response","47","116049","0.0-47.0","9330ACD4EADC47DDA28E0289C0A653F3","019cfa3c-ffe2-7656-9e6a-c199a7cb54ef","019cfa3a-388e-72ab-ad58-bdeb258f96cd","","745","
                <div class=""stimulus-container"">
                    <img src=""images/semantic_sequence/redecorating_a_house_semantic/redecorating_a_house_semantic_5.png"" class=""exp-image"">
                    <div class=""question-area"">
                        <p style=""font-size: 20px; font-weight: bold; margin: 0;"">Is there a person in this image?</p>
                    </div>
                </div>","0","main_experiment_trial","5","redecorating_a_house_semantic","semantic_sequence","chronological","","","","","","",""
"","","","","","html-keyboard-response","48","117051","0.0-48.0","9330ACD4EADC47DDA28E0289C0A653F3","019cfa3c-ffe2-7656-9e6a-c199a7cb54ef","019cfa3a-388e-72ab-ad58-bdeb258f96cd","","null","
                <div class=""stimulus-container"">
                    <img src=""images/semantic_sequence/redecorating_a_house_semantic/redecorating_a_house_semantic_6.png"" class=""exp-image"">
                    <div class=""question-area""></div> 
                </div>","null","","","","","","","","","","","",""
"","","","","","html-button-response","49","117835","0.0-49.0","9330ACD4EADC47DDA28E0289C0A653F3","019cfa3c-ffe2-7656-9e6a-c199a7cb54ef","019cfa3a-388e-72ab-ad58-bdeb258f96cd","","783","
                <div class=""stimulus-container"">
                    <img src=""images/semantic_sequence/redecorating_a_house_semantic/redecorating_a_house_semantic_6.png"" class=""exp-image"">
                    <div class=""question-area"">
                        <p style=""font-size: 20px; font-weight: bold; margin: 0;"">Is there a person in this image?</p>
                    </div>
                </div>","0","main_experiment_trial","6","redecorating_a_house_semantic","semantic_sequence","chronological","","","","","","",""
"","","","","","html-keyboard-response","50","118838","0.0-50.0","9330ACD4EADC47DDA28E0289C0A653F3","019cfa3c-ffe2-7656-9e6a-c199a7cb54ef","019cfa3a-388e-72ab-ad58-bdeb258f96cd","","null","
                <div class=""stimulus-container"">
                    <img src=""images/semantic_sequence/redecorating_a_house_semantic/redecorating_a_house_semantic_7.png"" class=""exp-image"">
                    <div class=""question-area""></div> 
                </div>","null","","","","","","","","","","","",""
"","","","","","html-button-response","51","119783","0.0-51.0","9330ACD4EADC47DDA28E0289C0A653F3","019cfa3c-ffe2-7656-9e6a-c199a7cb54ef","019cfa3a-388e-72ab-ad58-bdeb258f96cd","","943","
                <div class=""stimulus-container"">
                    <img src=""images/semantic_sequence/redecorating_a_house_semantic/redecorating_a_house_semantic_7.png"" class=""exp-image"">
                    <div class=""question-area"">
                        <p style=""font-size: 20px; font-weight: bold; margin: 0;"">Is there a person in this image?</p>
                    </div>
                </div>","0","main_experiment_trial","7","redecorating_a_house_semantic","semantic_sequence","chronological","","","","","","",""
"","","","","","html-keyboard-response","52","120785","0.0-52.0","9330ACD4EADC47DDA28E0289C0A653F3","019cfa3c-ffe2-7656-9e6a-c199a7cb54ef","019cfa3a-388e-72ab-ad58-bdeb258f96cd","","null","
                <div class=""stimulus-container"">
                    <img src=""images/semantic_sequence/redecorating_a_house_semantic/redecorating_a_house_semantic_8.png"" class=""exp-image"">
                    <div class=""question-area""></div> 
                </div>","null","","","","","","","","","","","",""
"","","","","","html-button-response","53","122186","0.0-53.0","9330ACD4EADC47DDA28E0289C0A653F3","019cfa3c-ffe2-7656-9e6a-c199a7cb54ef","019cfa3a-388e-72ab-ad58-bdeb258f96cd","","1399","
                <div class=""stimulus-container"">
                    <img src=""images/semantic_sequence/redecorating_a_house_semantic/redecorating_a_house_semantic_8.png"" class=""exp-image"">
                    <div class=""question-area"">
                        <p style=""font-size: 20px; font-weight: bold; margin: 0;"">Is there a person in this image?</p>
                    </div>
                </div>","0","main_experiment_trial","8","redecorating_a_house_semantic","semantic_sequence","chronological","","","","","","",""
"","","","","","html-keyboard-response","54","123189","0.0-54.0","9330ACD4EADC47DDA28E0289C0A653F3","019cfa3c-ffe2-7656-9e6a-c199a7cb54ef","019cfa3a-388e-72ab-ad58-bdeb258f96cd","","null","
                <div class=""stimulus-container"">
                    <img src=""images/semantic_sequence/redecorating_a_house_semantic/redecorating_a_house_semantic_9.png"" class=""exp-image"">
                    <div class=""question-area""></div> 
                </div>","null","","","","","","","","","","","",""
"","","","","","html-button-response","55","124399","0.0-55.0","9330ACD4EADC47DDA28E0289C0A653F3","019cfa3c-ffe2-7656-9e6a-c199a7cb54ef","019cfa3a-388e-72ab-ad58-bdeb258f96cd","","1209","
                <div class=""stimulus-container"">
                    <img src=""images/semantic_sequence/redecorating_a_house_semantic/redecorating_a_house_semantic_9.png"" class=""exp-image"">
                    <div class=""question-area"">
                        <p style=""font-size: 20px; font-weight: bold; margin: 0;"">Is there a person in this image?</p>
                    </div>
                </div>","0","main_experiment_trial","9","redecorating_a_house_semantic","semantic_sequence","chronological","","","","","","",""
"","","","","","html-keyboard-response","56","125402","0.0-56.0","9330ACD4EADC47DDA28E0289C0A653F3","019cfa3c-ffe2-7656-9e6a-c199a7cb54ef","019cfa3a-388e-72ab-ad58-bdeb258f96cd","","null","
                <div class=""stimulus-container"">
                    <img src=""images/semantic_sequence/redecorating_a_house_semantic/redecorating_a_house_semantic_ten.png"" class=""exp-image"">
                    <div class=""question-area""></div> 
                </div>","null","","","","","","","","","","","",""
"","","","","","html-button-response","57","126434","0.0-57.0","9330ACD4EADC47DDA28E0289C0A653F3","019cfa3c-ffe2-7656-9e6a-c199a7cb54ef","019cfa3a-388e-72ab-ad58-bdeb258f96cd","","1030","
                <div class=""stimulus-container"">
                    <img src=""images/semantic_sequence/redecorating_a_house_semantic/redecorating_a_house_semantic_ten.png"" class=""exp-image"">
                    <div class=""question-area"">
                        <p style=""font-size: 20px; font-weight: bold; margin: 0;"">Is there a person in this image?</p>
                    </div>
                </div>","0","main_experiment_trial","ten","redecorating_a_house_semantic","semantic_sequence","chronological","","","","","","",""
"","","","","","html-keyboard-response","58","131436","0.0-58.0","9330ACD4EADC47DDA28E0289C0A653F3","019cfa3c-ffe2-7656-9e6a-c199a7cb54ef","019cfa3a-388e-72ab-ad58-bdeb258f96cd","","null","<div style=""background-color: white; width: 100vw; height: 100vh;""></div>","null","","","","","","","","","","","",""
"","","","","","html-keyboard-response","59","132439","0.0-59.0","9330ACD4EADC47DDA28E0289C0A653F3","019cfa3c-ffe2-7656-9e6a-c199a7cb54ef","019cfa3a-388e-72ab-ad58-bdeb258f96cd","","null","
                <div class=""stimulus-container"">
                    <img src=""images/semantic_sequence/maintaining_a_car_semantic/maintaining_a_car_semantic_1.png"" class=""exp-image"">
                    <div class=""question-area""></div> 
                </div>","null","","","","","","","","","","","",""
"","","","","","html-button-response","60","133333","0.0-60.0","9330ACD4EADC47DDA28E0289C0A653F3","019cfa3c-ffe2-7656-9e6a-c199a7cb54ef","019cfa3a-388e-72ab-ad58-bdeb258f96cd","","893","
                <div class=""stimulus-container"">
                    <img src=""images/semantic_sequence/maintaining_a_car_semantic/maintaining_a_car_semantic_1.png"" class=""exp-image"">
                    <div class=""question-area"">
                        <p style=""font-size: 20px; font-weight: bold; margin: 0;"">Is there a person in this image?</p>
                    </div>
                </div>","0","main_experiment_trial","1","maintaining_a_car_semantic","semantic_sequence","chronological","","","","","","",""
"","","","","","html-keyboard-response","61","134336","0.0-61.0","9330ACD4EADC47DDA28E0289C0A653F3","019cfa3c-ffe2-7656-9e6a-c199a7cb54ef","019cfa3a-388e-72ab-ad58-bdeb258f96cd","","null","
                <div class=""stimulus-container"">
                    <img src=""images/semantic_sequence/maintaining_a_car_semantic/maintaining_a_car_semantic_2.png"" class=""exp-image"">
                    <div class=""question-area""></div> 
                </div>","null","","","","","","","","","","","",""
"","","","","","html-button-response","62","135568","0.0-62.0","9330ACD4EADC47DDA28E0289C0A653F3","019cfa3c-ffe2-7656-9e6a-c199a7cb54ef","019cfa3a-388e-72ab-ad58-bdeb258f96cd","","1230","
                <div class=""stimulus-container"">
                    <img src=""images/semantic_sequence/maintaining_a_car_semantic/maintaining_a_car_semantic_2.png"" class=""exp-image"">
                    <div class=""question-area"">
                        <p style=""font-size: 20px; font-weight: bold; margin: 0;"">Is there a person in this image?</p>
                    </div>
                </div>","0","main_experiment_trial","2","maintaining_a_car_semantic","semantic_sequence","chronological","","","","","","",""
"","","","","","html-keyboard-response","63","136570","0.0-63.0","9330ACD4EADC47DDA28E0289C0A653F3","019cfa3c-ffe2-7656-9e6a-c199a7cb54ef","019cfa3a-388e-72ab-ad58-bdeb258f96cd","","null","
                <div class=""stimulus-container"">
                    <img src=""images/semantic_sequence/maintaining_a_car_semantic/maintaining_a_car_semantic_3.png"" class=""exp-image"">
                    <div class=""question-area""></div> 
                </div>","null","","","","","","","","","","","",""
"","","","","","html-button-response","64","137401","0.0-64.0","9330ACD4EADC47DDA28E0289C0A653F3","019cfa3c-ffe2-7656-9e6a-c199a7cb54ef","019cfa3a-388e-72ab-ad58-bdeb258f96cd","","829","
                <div class=""stimulus-container"">
                    <img src=""images/semantic_sequence/maintaining_a_car_semantic/maintaining_a_car_semantic_3.png"" class=""exp-image"">
                    <div class=""question-area"">
                        <p style=""font-size: 20px; font-weight: bold; margin: 0;"">Is there a person in this image?</p>
                    </div>
                </div>","0","main_experiment_trial","3","maintaining_a_car_semantic","semantic_sequence","chronological","","","","","","",""
"","","","","","html-keyboard-response","65","138404","0.0-65.0","9330ACD4EADC47DDA28E0289C0A653F3","019cfa3c-ffe2-7656-9e6a-c199a7cb54ef","019cfa3a-388e-72ab-ad58-bdeb258f96cd","","null","
                <div class=""stimulus-container"">
                    <img src=""images/semantic_sequence/maintaining_a_car_semantic/maintaining_a_car_semantic_4.png"" class=""exp-image"">
                    <div class=""question-area""></div> 
                </div>","null","","","","","","","","","","","",""
"","","","","","html-button-response","66","139083","0.0-66.0","9330ACD4EADC47DDA28E0289C0A653F3","019cfa3c-ffe2-7656-9e6a-c199a7cb54ef","019cfa3a-388e-72ab-ad58-bdeb258f96cd","","678","
                <div class=""stimulus-container"">
                    <img src=""images/semantic_sequence/maintaining_a_car_semantic/maintaining_a_car_semantic_4.png"" class=""exp-image"">
                    <div class=""question-area"">
                        <p style=""font-size: 20px; font-weight: bold; margin: 0;"">Is there a person in this image?</p>
                    </div>
                </div>","0","main_experiment_trial","4","maintaining_a_car_semantic","semantic_sequence","chronological","","","","","","",""
"","","","","","html-keyboard-response","67","140085","0.0-67.0","9330ACD4EADC47DDA28E0289C0A653F3","019cfa3c-ffe2-7656-9e6a-c199a7cb54ef","019cfa3a-388e-72ab-ad58-bdeb258f96cd","","null","
                <div class=""stimulus-container"">
                    <img src=""images/semantic_sequence/maintaining_a_car_semantic/maintaining_a_car_semantic_5.png"" class=""exp-image"">
                    <div class=""question-area""></div> 
                </div>","null","","","","","","","","","","","",""
"","","","","","html-button-response","68","141168","0.0-68.0","9330ACD4EADC47DDA28E0289C0A653F3","019cfa3c-ffe2-7656-9e6a-c199a7cb54ef","019cfa3a-388e-72ab-ad58-bdeb258f96cd","","1081","
                <div class=""stimulus-container"">
                    <img src=""images/semantic_sequence/maintaining_a_car_semantic/maintaining_a_car_semantic_5.png"" class=""exp-image"">
                    <div class=""question-area"">
                        <p style=""font-size: 20px; font-weight: bold; margin: 0;"">Is there a person in this image?</p>
                    </div>
                </div>","0","main_experiment_trial","5","maintaining_a_car_semantic","semantic_sequence","chronological","","","","","","",""
"","","","","","html-keyboard-response","69","142171","0.0-69.0","9330ACD4EADC47DDA28E0289C0A653F3","019cfa3c-ffe2-7656-9e6a-c199a7cb54ef","019cfa3a-388e-72ab-ad58-bdeb258f96cd","","null","
                <div class=""stimulus-container"">
                    <img src=""images/semantic_sequence/maintaining_a_car_semantic/maintaining_a_car_semantic_6.png"" class=""exp-image"">
                    <div class=""question-area""></div> 
                </div>","null","","","","","","","","","","","",""
"","","","","","html-button-response","70","142766","0.0-70.0","9330ACD4EADC47DDA28E0289C0A653F3","019cfa3c-ffe2-7656-9e6a-c199a7cb54ef","019cfa3a-388e-72ab-ad58-bdeb258f96cd","","594","
                <div class=""stimulus-container"">
                    <img src=""images/semantic_sequence/maintaining_a_car_semantic/maintaining_a_car_semantic_6.png"" class=""exp-image"">
                    <div class=""question-area"">
                        <p style=""font-size: 20px; font-weight: bold; margin: 0;"">Is there a person in this image?</p>
                    </div>
                </div>","0","main_experiment_trial","6","maintaining_a_car_semantic","semantic_sequence","chronological","","","","","","",""
"","","","","","html-keyboard-response","71","143768","0.0-71.0","9330ACD4EADC47DDA28E0289C0A653F3","019cfa3c-ffe2-7656-9e6a-c199a7cb54ef","019cfa3a-388e-72ab-ad58-bdeb258f96cd","","null","
                <div class=""stimulus-container"">
                    <img src=""images/semantic_sequence/maintaining_a_car_semantic/maintaining_a_car_semantic_7.png"" class=""exp-image"">
                    <div class=""question-area""></div> 
                </div>","null","","","","","","","","","","","",""
"","","","","","html-button-response","72","144367","0.0-72.0","9330ACD4EADC47DDA28E0289C0A653F3","019cfa3c-ffe2-7656-9e6a-c199a7cb54ef","019cfa3a-388e-72ab-ad58-bdeb258f96cd","","598","
                <div class=""stimulus-container"">
                    <img src=""images/semantic_sequence/maintaining_a_car_semantic/maintaining_a_car_semantic_7.png"" class=""exp-image"">
                    <div class=""question-area"">
                        <p style=""font-size: 20px; font-weight: bold; margin: 0;"">Is there a person in this image?</p>
                    </div>
                </div>","0","main_experiment_trial","7","maintaining_a_car_semantic","semantic_sequence","chronological","","","","","","",""
"","","","","","html-keyboard-response","73","145369","0.0-73.0","9330ACD4EADC47DDA28E0289C0A653F3","019cfa3c-ffe2-7656-9e6a-c199a7cb54ef","019cfa3a-388e-72ab-ad58-bdeb258f96cd","","null","
                <div class=""stimulus-container"">
                    <img src=""images/semantic_sequence/maintaining_a_car_semantic/maintaining_a_car_semantic_8.png"" class=""exp-image"">
                    <div class=""question-area""></div> 
                </div>","null","","","","","","","","","","","",""
"","","","","","html-button-response","74","146735","0.0-74.0","9330ACD4EADC47DDA28E0289C0A653F3","019cfa3c-ffe2-7656-9e6a-c199a7cb54ef","019cfa3a-388e-72ab-ad58-bdeb258f96cd","","1364","
                <div class=""stimulus-container"">
                    <img src=""images/semantic_sequence/maintaining_a_car_semantic/maintaining_a_car_semantic_8.png"" class=""exp-image"">
                    <div class=""question-area"">
                        <p style=""font-size: 20px; font-weight: bold; margin: 0;"">Is there a person in this image?</p>
                    </div>
                </div>","0","main_experiment_trial","8","maintaining_a_car_semantic","semantic_sequence","chronological","","","","","","",""
"","","","","","html-keyboard-response","75","147738","0.0-75.0","9330ACD4EADC47DDA28E0289C0A653F3","019cfa3c-ffe2-7656-9e6a-c199a7cb54ef","019cfa3a-388e-72ab-ad58-bdeb258f96cd","","null","
                <div class=""stimulus-container"">
                    <img src=""images/semantic_sequence/maintaining_a_car_semantic/maintaining_a_car_semantic_9.png"" class=""exp-image"">
                    <div class=""question-area""></div> 
                </div>","null","","","","","","","","","","","",""
"","","","","","html-button-response","76","149401","0.0-76.0","9330ACD4EADC47DDA28E0289C0A653F3","019cfa3c-ffe2-7656-9e6a-c199a7cb54ef","019cfa3a-388e-72ab-ad58-bdeb258f96cd","","1662","
                <div class=""stimulus-container"">
                    <img src=""images/semantic_sequence/maintaining_a_car_semantic/maintaining_a_car_semantic_9.png"" class=""exp-image"">
                    <div class=""question-area"">
                        <p style=""font-size: 20px; font-weight: bold; margin: 0;"">Is there a person in this image?</p>
                    </div>
                </div>","0","main_experiment_trial","9","maintaining_a_car_semantic","semantic_sequence","chronological","","","","","","",""
"","","","","","html-keyboard-response","77","150404","0.0-77.0","9330ACD4EADC47DDA28E0289C0A653F3","019cfa3c-ffe2-7656-9e6a-c199a7cb54ef","019cfa3a-388e-72ab-ad58-bdeb258f96cd","","null","
                <div class=""stimulus-container"">
                    <img src=""images/semantic_sequence/maintaining_a_car_semantic/maintaining_a_car_semantic_ten.png"" class=""exp-image"">
                    <div class=""question-area""></div> 
                </div>","null","","","","","","","","","","","",""
"","","","","","html-button-response","78","152185","0.0-78.0","9330ACD4EADC47DDA28E0289C0A653F3","019cfa3c-ffe2-7656-9e6a-c199a7cb54ef","019cfa3a-388e-72ab-ad58-bdeb258f96cd","","1779","
                <div class=""stimulus-container"">
                    <img src=""images/semantic_sequence/maintaining_a_car_semantic/maintaining_a_car_semantic_ten.png"" class=""exp-image"">
                    <div class=""question-area"">
                        <p style=""font-size: 20px; font-weight: bold; margin: 0;"">Is there a person in this image?</p>
                    </div>
                </div>","0","main_experiment_trial","ten","maintaining_a_car_semantic","semantic_sequence","chronological","","","","","","",""
"","","","","","html-keyboard-response","79","157187","0.0-79.0","9330ACD4EADC47DDA28E0289C0A653F3","019cfa3c-ffe2-7656-9e6a-c199a7cb54ef","019cfa3a-388e-72ab-ad58-bdeb258f96cd","","null","<div style=""background-color: white; width: 100vw; height: 100vh;""></div>","null","","","","","","","","","","","",""
"","","","","","html-keyboard-response","80","158190","0.0-80.0","9330ACD4EADC47DDA28E0289C0A653F3","019cfa3c-ffe2-7656-9e6a-c199a7cb54ef","019cfa3a-388e-72ab-ad58-bdeb258f96cd","","null","
                <div class=""stimulus-container"">
                    <img src=""images/causal_sequence/saving_a_cat_causal/saving_a_cat_causal_1.png"" class=""exp-image"">
                    <div class=""question-area""></div> 
                </div>","null","","","","","","","","","","","",""
"","","","","","html-button-response","81","160035","0.0-81.0","9330ACD4EADC47DDA28E0289C0A653F3","019cfa3c-ffe2-7656-9e6a-c199a7cb54ef","019cfa3a-388e-72ab-ad58-bdeb258f96cd","","1844","
                <div class=""stimulus-container"">
                    <img src=""images/causal_sequence/saving_a_cat_causal/saving_a_cat_causal_1.png"" class=""exp-image"">
                    <div class=""question-area"">
                        <p style=""font-size: 20px; font-weight: bold; margin: 0;"">Is there a person in this image?</p>
                    </div>
                </div>","0","main_experiment_trial","1","saving_a_cat_causal","causal_sequence","chronological","","","","","","",""
"","","","","","html-keyboard-response","82","161036","0.0-82.0","9330ACD4EADC47DDA28E0289C0A653F3","019cfa3c-ffe2-7656-9e6a-c199a7cb54ef","019cfa3a-388e-72ab-ad58-bdeb258f96cd","","null","
                <div class=""stimulus-container"">
                    <img src=""images/causal_sequence/saving_a_cat_causal/saving_a_cat_causal_2.png"" class=""exp-image"">
                    <div class=""question-area""></div> 
                </div>","null","","","","","","","","","","","",""
"","","","","","html-button-response","83","163050","0.0-83.0","9330ACD4EADC47DDA28E0289C0A653F3","019cfa3c-ffe2-7656-9e6a-c199a7cb54ef","019cfa3a-388e-72ab-ad58-bdeb258f96cd","","2013","
                <div class=""stimulus-container"">
                    <img src=""images/causal_sequence/saving_a_cat_causal/saving_a_cat_causal_2.png"" class=""exp-image"">
                    <div class=""question-area"">
                        <p style=""font-size: 20px; font-weight: bold; margin: 0;"">Is there a person in this image?</p>
                    </div>
                </div>","1","main_experiment_trial","2","saving_a_cat_causal","causal_sequence","chronological","","","","","","",""
"","","","","","html-keyboard-response","84","164053","0.0-84.0","9330ACD4EADC47DDA28E0289C0A653F3","019cfa3c-ffe2-7656-9e6a-c199a7cb54ef","019cfa3a-388e-72ab-ad58-bdeb258f96cd","","null","
                <div class=""stimulus-container"">
                    <img src=""images/causal_sequence/saving_a_cat_causal/saving_a_cat_causal_3.png"" class=""exp-image"">
                    <div class=""question-area""></div> 
                </div>","null","","","","","","","","","","","",""
"","","","","","html-button-response","85","166135","0.0-85.0","9330ACD4EADC47DDA28E0289C0A653F3","019cfa3c-ffe2-7656-9e6a-c199a7cb54ef","019cfa3a-388e-72ab-ad58-bdeb258f96cd","","2081","
                <div class=""stimulus-container"">
                    <img src=""images/causal_sequence/saving_a_cat_causal/saving_a_cat_causal_3.png"" class=""exp-image"">
                    <div class=""question-area"">
                        <p style=""font-size: 20px; font-weight: bold; margin: 0;"">Is there a person in this image?</p>
                    </div>
                </div>","1","main_experiment_trial","3","saving_a_cat_causal","causal_sequence","chronological","","","","","","",""
"","","","","","html-keyboard-response","86","167136","0.0-86.0","9330ACD4EADC47DDA28E0289C0A653F3","019cfa3c-ffe2-7656-9e6a-c199a7cb54ef","019cfa3a-388e-72ab-ad58-bdeb258f96cd","","null","
                <div class=""stimulus-container"">
                    <img src=""images/causal_sequence/saving_a_cat_causal/saving_a_cat_causal_4.png"" class=""exp-image"">
                    <div class=""question-area""></div> 
                </div>","null","","","","","","","","","","","",""
"","","","","","html-button-response","87","167834","0.0-87.0","9330ACD4EADC47DDA28E0289C0A653F3","019cfa3c-ffe2-7656-9e6a-c199a7cb54ef","019cfa3a-388e-72ab-ad58-bdeb258f96cd","","697","
                <div class=""stimulus-container"">
                    <img src=""images/causal_sequence/saving_a_cat_causal/saving_a_cat_causal_4.png"" class=""exp-image"">
                    <div class=""question-area"">
                        <p style=""font-size: 20px; font-weight: bold; margin: 0;"">Is there a person in this image?</p>
                    </div>
                </div>","0","main_experiment_trial","4","saving_a_cat_causal","causal_sequence","chronological","","","","","","",""
"","","","","","html-keyboard-response","88","168837","0.0-88.0","9330ACD4EADC47DDA28E0289C0A653F3","019cfa3c-ffe2-7656-9e6a-c199a7cb54ef","019cfa3a-388e-72ab-ad58-bdeb258f96cd","","null","
                <div class=""stimulus-container"">
                    <img src=""images/causal_sequence/saving_a_cat_causal/saving_a_cat_causal_5.png"" class=""exp-image"">
                    <div class=""question-area""></div> 
                </div>","null","","","","","","","","","","","",""
"","","","","","html-button-response","89","169602","0.0-89.0","9330ACD4EADC47DDA28E0289C0A653F3","019cfa3c-ffe2-7656-9e6a-c199a7cb54ef","019cfa3a-388e-72ab-ad58-bdeb258f96cd","","763","
                <div class=""stimulus-container"">
                    <img src=""images/causal_sequence/saving_a_cat_causal/saving_a_cat_causal_5.png"" class=""exp-image"">
                    <div class=""question-area"">
                        <p style=""font-size: 20px; font-weight: bold; margin: 0;"">Is there a person in this image?</p>
                    </div>
                </div>","0","main_experiment_trial","5","saving_a_cat_causal","causal_sequence","chronological","","","","","","",""
"","","","","","html-keyboard-response","90","170604","0.0-90.0","9330ACD4EADC47DDA28E0289C0A653F3","019cfa3c-ffe2-7656-9e6a-c199a7cb54ef","019cfa3a-388e-72ab-ad58-bdeb258f96cd","","null","
                <div class=""stimulus-container"">
                    <img src=""images/causal_sequence/saving_a_cat_causal/saving_a_cat_causal_6.png"" class=""exp-image"">
                    <div class=""question-area""></div> 
                </div>","null","","","","","","","","","","","",""
"","","","","","html-button-response","91","172101","0.0-91.0","9330ACD4EADC47DDA28E0289C0A653F3","019cfa3c-ffe2-7656-9e6a-c199a7cb54ef","019cfa3a-388e-72ab-ad58-bdeb258f96cd","","1496","
                <div class=""stimulus-container"">
                    <img src=""images/causal_sequence/saving_a_cat_causal/saving_a_cat_causal_6.png"" class=""exp-image"">
                    <div class=""question-area"">
                        <p style=""font-size: 20px; font-weight: bold; margin: 0;"">Is there a person in this image?</p>
                    </div>
                </div>","0","main_experiment_trial","6","saving_a_cat_causal","causal_sequence","chronological","","","","","","",""
"","","","","","html-keyboard-response","92","173104","0.0-92.0","9330ACD4EADC47DDA28E0289C0A653F3","019cfa3c-ffe2-7656-9e6a-c199a7cb54ef","019cfa3a-388e-72ab-ad58-bdeb258f96cd","","null","
                <div class=""stimulus-container"">
                    <img src=""images/causal_sequence/saving_a_cat_causal/saving_a_cat_causal_7.png"" class=""exp-image"">
                    <div class=""question-area""></div> 
                </div>","null","","","","","","","","","","","",""
"","","","","","html-button-response","93","174102","0.0-93.0","9330ACD4EADC47DDA28E0289C0A653F3","019cfa3c-ffe2-7656-9e6a-c199a7cb54ef","019cfa3a-388e-72ab-ad58-bdeb258f96cd","","996","
                <div class=""stimulus-container"">
                    <img src=""images/causal_sequence/saving_a_cat_causal/saving_a_cat_causal_7.png"" class=""exp-image"">
                    <div class=""question-area"">
                        <p style=""font-size: 20px; font-weight: bold; margin: 0;"">Is there a person in this image?</p>
                    </div>
                </div>","0","main_experiment_trial","7","saving_a_cat_causal","causal_sequence","chronological","","","","","","",""
"","","","","","html-keyboard-response","94","175104","0.0-94.0","9330ACD4EADC47DDA28E0289C0A653F3","019cfa3c-ffe2-7656-9e6a-c199a7cb54ef","019cfa3a-388e-72ab-ad58-bdeb258f96cd","","null","
                <div class=""stimulus-container"">
                    <img src=""images/causal_sequence/saving_a_cat_causal/saving_a_cat_causal_8.png"" class=""exp-image"">
                    <div class=""question-area""></div> 
                </div>","null","","","","","","","","","","","",""
"","","","","","html-button-response","95","175903","0.0-95.0","9330ACD4EADC47DDA28E0289C0A653F3","019cfa3c-ffe2-7656-9e6a-c199a7cb54ef","019cfa3a-388e-72ab-ad58-bdeb258f96cd","","798","
                <div class=""stimulus-container"">
                    <img src=""images/causal_sequence/saving_a_cat_causal/saving_a_cat_causal_8.png"" class=""exp-image"">
                    <div class=""question-area"">
                        <p style=""font-size: 20px; font-weight: bold; margin: 0;"">Is there a person in this image?</p>
                    </div>
                </div>","0","main_experiment_trial","8","saving_a_cat_causal","causal_sequence","chronological","","","","","","",""
"","","","","","html-keyboard-response","96","176905","0.0-96.0","9330ACD4EADC47DDA28E0289C0A653F3","019cfa3c-ffe2-7656-9e6a-c199a7cb54ef","019cfa3a-388e-72ab-ad58-bdeb258f96cd","","null","
                <div class=""stimulus-container"">
                    <img src=""images/causal_sequence/saving_a_cat_causal/saving_a_cat_causal_9.png"" class=""exp-image"">
                    <div class=""question-area""></div> 
                </div>","null","","","","","","","","","","","",""
"","","","","","html-button-response","97","177451","0.0-97.0","9330ACD4EADC47DDA28E0289C0A653F3","019cfa3c-ffe2-7656-9e6a-c199a7cb54ef","019cfa3a-388e-72ab-ad58-bdeb258f96cd","","544","
                <div class=""stimulus-container"">
                    <img src=""images/causal_sequence/saving_a_cat_causal/saving_a_cat_causal_9.png"" class=""exp-image"">
                    <div class=""question-area"">
                        <p style=""font-size: 20px; font-weight: bold; margin: 0;"">Is there a person in this image?</p>
                    </div>
                </div>","0","main_experiment_trial","9","saving_a_cat_causal","causal_sequence","chronological","","","","","","",""
"","","","","","html-keyboard-response","98","178454","0.0-98.0","9330ACD4EADC47DDA28E0289C0A653F3","019cfa3c-ffe2-7656-9e6a-c199a7cb54ef","019cfa3a-388e-72ab-ad58-bdeb258f96cd","","null","
                <div class=""stimulus-container"">
                    <img src=""images/causal_sequence/saving_a_cat_causal/saving_a_cat_causal_ten.png"" class=""exp-image"">
                    <div class=""question-area""></div> 
                </div>","null","","","","","","","","","","","",""
"","","","","","html-button-response","99","179050","0.0-99.0","9330ACD4EADC47DDA28E0289C0A653F3","019cfa3c-ffe2-7656-9e6a-c199a7cb54ef","019cfa3a-388e-72ab-ad58-bdeb258f96cd","","595","
                <div class=""stimulus-container"">
                    <img src=""images/causal_sequence/saving_a_cat_causal/saving_a_cat_causal_ten.png"" class=""exp-image"">
                    <div class=""question-area"">
                        <p style=""font-size: 20px; font-weight: bold; margin: 0;"">Is there a person in this image?</p>
                    </div>
                </div>","0","main_experiment_trial","ten","saving_a_cat_causal","causal_sequence","chronological","","","","","","",""
"","","","","","html-keyboard-response","100","184053","0.0-100.0","9330ACD4EADC47DDA28E0289C0A653F3","019cfa3c-ffe2-7656-9e6a-c199a7cb54ef","019cfa3a-388e-72ab-ad58-bdeb258f96cd","","null","<div style=""background-color: white; width: 100vw; height: 100vh;""></div>","null","","","","","","","","","","","",""
"","","","","","html-keyboard-response","101","185054","0.0-101.0","9330ACD4EADC47DDA28E0289C0A653F3","019cfa3c-ffe2-7656-9e6a-c199a7cb54ef","019cfa3a-388e-72ab-ad58-bdeb258f96cd","","null","
                <div class=""stimulus-container"">
                    <img src=""images/semantic_sequence/visiting_cities_semantic/visiting_cities_semantic_1.png"" class=""exp-image"">
                    <div class=""question-area""></div> 
                </div>","null","","","","","","","","","","","",""
"","","","","","html-button-response","102","188058","0.0-102.0","9330ACD4EADC47DDA28E0289C0A653F3","019cfa3c-ffe2-7656-9e6a-c199a7cb54ef","019cfa3a-388e-72ab-ad58-bdeb258f96cd","","null","
                <div class=""stimulus-container"">
                    <img src=""images/semantic_sequence/visiting_cities_semantic/visiting_cities_semantic_1.png"" class=""exp-image"">
                    <div class=""question-area"">
                        <p style=""font-size: 20px; font-weight: bold; margin: 0;"">Is there a person in this image?</p>
                    </div>
                </div>","null","main_experiment_trial","1","visiting_cities_semantic","semantic_sequence","chronological","","","","","","",""
"","","","","","html-keyboard-response","103","189059","0.0-103.0","9330ACD4EADC47DDA28E0289C0A653F3","019cfa3c-ffe2-7656-9e6a-c199a7cb54ef","019cfa3a-388e-72ab-ad58-bdeb258f96cd","","null","
                <div class=""stimulus-container"">
                    <img src=""images/semantic_sequence/visiting_cities_semantic/visiting_cities_semantic_2.png"" class=""exp-image"">
                    <div class=""question-area""></div> 
                </div>","null","","","","","","","","","","","",""
"","","","","","html-button-response","104","190184","0.0-104.0","9330ACD4EADC47DDA28E0289C0A653F3","019cfa3c-ffe2-7656-9e6a-c199a7cb54ef","019cfa3a-388e-72ab-ad58-bdeb258f96cd","","1124","
                <div class=""stimulus-container"">
                    <img src=""images/semantic_sequence/visiting_cities_semantic/visiting_cities_semantic_2.png"" class=""exp-image"">
                    <div class=""question-area"">
                        <p style=""font-size: 20px; font-weight: bold; margin: 0;"">Is there a person in this image?</p>
                    </div>
                </div>","1","main_experiment_trial","2","visiting_cities_semantic","semantic_sequence","chronological","","","","","","",""
"","","","","","html-keyboard-response","105","191186","0.0-105.0","9330ACD4EADC47DDA28E0289C0A653F3","019cfa3c-ffe2-7656-9e6a-c199a7cb54ef","019cfa3a-388e-72ab-ad58-bdeb258f96cd","","null","
                <div class=""stimulus-container"">
                    <img src=""images/semantic_sequence/visiting_cities_semantic/visiting_cities_semantic_3.png"" class=""exp-image"">
                    <div class=""question-area""></div> 
                </div>","null","","","","","","","","","","","",""
"","","","","","html-button-response","106","192268","0.0-106.0","9330ACD4EADC47DDA28E0289C0A653F3","019cfa3c-ffe2-7656-9e6a-c199a7cb54ef","019cfa3a-388e-72ab-ad58-bdeb258f96cd","","1080","
                <div class=""stimulus-container"">
                    <img src=""images/semantic_sequence/visiting_cities_semantic/visiting_cities_semantic_3.png"" class=""exp-image"">
                    <div class=""question-area"">
                        <p style=""font-size: 20px; font-weight: bold; margin: 0;"">Is there a person in this image?</p>
                    </div>
                </div>","1","main_experiment_trial","3","visiting_cities_semantic","semantic_sequence","chronological","","","","","","",""
"","","","","","html-keyboard-response","107","193270","0.0-107.0","9330ACD4EADC47DDA28E0289C0A653F3","019cfa3c-ffe2-7656-9e6a-c199a7cb54ef","019cfa3a-388e-72ab-ad58-bdeb258f96cd","","null","
                <div class=""stimulus-container"">
                    <img src=""images/semantic_sequence/visiting_cities_semantic/visiting_cities_semantic_4.png"" class=""exp-image"">
                    <div class=""question-area""></div> 
                </div>","null","","","","","","","","","","","",""
"","","","","","html-button-response","108","194284","0.0-108.0","9330ACD4EADC47DDA28E0289C0A653F3","019cfa3c-ffe2-7656-9e6a-c199a7cb54ef","019cfa3a-388e-72ab-ad58-bdeb258f96cd","","1013","
                <div class=""stimulus-container"">
                    <img src=""images/semantic_sequence/visiting_cities_semantic/visiting_cities_semantic_4.png"" class=""exp-image"">
                    <div class=""question-area"">
                        <p style=""font-size: 20px; font-weight: bold; margin: 0;"">Is there a person in this image?</p>
                    </div>
                </div>","1","main_experiment_trial","4","visiting_cities_semantic","semantic_sequence","chronological","","","","","","",""
"","","","","","html-keyboard-response","109","195286","0.0-109.0","9330ACD4EADC47DDA28E0289C0A653F3","019cfa3c-ffe2-7656-9e6a-c199a7cb54ef","019cfa3a-388e-72ab-ad58-bdeb258f96cd","","null","
                <div class=""stimulus-container"">
                    <img src=""images/semantic_sequence/visiting_cities_semantic/visiting_cities_semantic_5.png"" class=""exp-image"">
                    <div class=""question-area""></div> 
                </div>","null","","","","","","","","","","","",""
"","","","","","html-button-response","110","197221","0.0-110.0","9330ACD4EADC47DDA28E0289C0A653F3","019cfa3c-ffe2-7656-9e6a-c199a7cb54ef","019cfa3a-388e-72ab-ad58-bdeb258f96cd","","1933","
                <div class=""stimulus-container"">
                    <img src=""images/semantic_sequence/visiting_cities_semantic/visiting_cities_semantic_5.png"" class=""exp-image"">
                    <div class=""question-area"">
                        <p style=""font-size: 20px; font-weight: bold; margin: 0;"">Is there a person in this image?</p>
                    </div>
                </div>","1","main_experiment_trial","5","visiting_cities_semantic","semantic_sequence","chronological","","","","","","",""
"","","","","","html-keyboard-response","111","198223","0.0-111.0","9330ACD4EADC47DDA28E0289C0A653F3","019cfa3c-ffe2-7656-9e6a-c199a7cb54ef","019cfa3a-388e-72ab-ad58-bdeb258f96cd","","null","
                <div class=""stimulus-container"">
                    <img src=""images/semantic_sequence/visiting_cities_semantic/visiting_cities_semantic_6.png"" class=""exp-image"">
                    <div class=""question-area""></div> 
                </div>","null","","","","","","","","","","","",""
"","","","","","html-button-response","112","200285","0.0-112.0","9330ACD4EADC47DDA28E0289C0A653F3","019cfa3c-ffe2-7656-9e6a-c199a7cb54ef","019cfa3a-388e-72ab-ad58-bdeb258f96cd","","2061","
                <div class=""stimulus-container"">
                    <img src=""images/semantic_sequence/visiting_cities_semantic/visiting_cities_semantic_6.png"" class=""exp-image"">
                    <div class=""question-area"">
                        <p style=""font-size: 20px; font-weight: bold; margin: 0;"">Is there a person in this image?</p>
                    </div>
                </div>","1","main_experiment_trial","6","visiting_cities_semantic","semantic_sequence","chronological","","","","","","",""
"","","","","","html-keyboard-response","113","201288","0.0-113.0","9330ACD4EADC47DDA28E0289C0A653F3","019cfa3c-ffe2-7656-9e6a-c199a7cb54ef","019cfa3a-388e-72ab-ad58-bdeb258f96cd","","null","
                <div class=""stimulus-container"">
                    <img src=""images/semantic_sequence/visiting_cities_semantic/visiting_cities_semantic_7.png"" class=""exp-image"">
                    <div class=""question-area""></div> 
                </div>","null","","","","","","","","","","","",""
"","","","","","html-button-response","114","202184","0.0-114.0","9330ACD4EADC47DDA28E0289C0A653F3","019cfa3c-ffe2-7656-9e6a-c199a7cb54ef","019cfa3a-388e-72ab-ad58-bdeb258f96cd","","895","
                <div class=""stimulus-container"">
                    <img src=""images/semantic_sequence/visiting_cities_semantic/visiting_cities_semantic_7.png"" class=""exp-image"">
                    <div class=""question-area"">
                        <p style=""font-size: 20px; font-weight: bold; margin: 0;"">Is there a person in this image?</p>
                    </div>
                </div>","0","main_experiment_trial","7","visiting_cities_semantic","semantic_sequence","chronological","","","","","","",""
"","","","","","html-keyboard-response","115","203186","0.0-115.0","9330ACD4EADC47DDA28E0289C0A653F3","019cfa3c-ffe2-7656-9e6a-c199a7cb54ef","019cfa3a-388e-72ab-ad58-bdeb258f96cd","","null","
                <div class=""stimulus-container"">
                    <img src=""images/semantic_sequence/visiting_cities_semantic/visiting_cities_semantic_8.png"" class=""exp-image"">
                    <div class=""question-area""></div> 
                </div>","null","","","","","","","","","","","",""
"","","","","","html-button-response","116","205284","0.0-116.0","9330ACD4EADC47DDA28E0289C0A653F3","019cfa3c-ffe2-7656-9e6a-c199a7cb54ef","019cfa3a-388e-72ab-ad58-bdeb258f96cd","","2097","
                <div class=""stimulus-container"">
                    <img src=""images/semantic_sequence/visiting_cities_semantic/visiting_cities_semantic_8.png"" class=""exp-image"">
                    <div class=""question-area"">
                        <p style=""font-size: 20px; font-weight: bold; margin: 0;"">Is there a person in this image?</p>
                    </div>
                </div>","1","main_experiment_trial","8","visiting_cities_semantic","semantic_sequence","chronological","","","","","","",""
"","","","","","html-keyboard-response","117","206287","0.0-117.0","9330ACD4EADC47DDA28E0289C0A653F3","019cfa3c-ffe2-7656-9e6a-c199a7cb54ef","019cfa3a-388e-72ab-ad58-bdeb258f96cd","","null","
                <div class=""stimulus-container"">
                    <img src=""images/semantic_sequence/visiting_cities_semantic/visiting_cities_semantic_9.png"" class=""exp-image"">
                    <div class=""question-area""></div> 
                </div>","null","","","","","","","","","","","",""
"","","","","","html-button-response","118","207950","0.0-118.0","9330ACD4EADC47DDA28E0289C0A653F3","019cfa3c-ffe2-7656-9e6a-c199a7cb54ef","019cfa3a-388e-72ab-ad58-bdeb258f96cd","","1662","
                <div class=""stimulus-container"">
                    <img src=""images/semantic_sequence/visiting_cities_semantic/visiting_cities_semantic_9.png"" class=""exp-image"">
                    <div class=""question-area"">
                        <p style=""font-size: 20px; font-weight: bold; margin: 0;"">Is there a person in this image?</p>
                    </div>
                </div>","1","main_experiment_trial","9","visiting_cities_semantic","semantic_sequence","chronological","","","","","","",""
"","","","","","html-keyboard-response","119","208952","0.0-119.0","9330ACD4EADC47DDA28E0289C0A653F3","019cfa3c-ffe2-7656-9e6a-c199a7cb54ef","019cfa3a-388e-72ab-ad58-bdeb258f96cd","","null","
                <div class=""stimulus-container"">
                    <img src=""images/semantic_sequence/visiting_cities_semantic/visiting_cities_semantic_ten.png"" class=""exp-image"">
                    <div class=""question-area""></div> 
                </div>","null","","","","","","","","","","","",""
"","","","","","html-button-response","120","210452","0.0-120.0","9330ACD4EADC47DDA28E0289C0A653F3","019cfa3c-ffe2-7656-9e6a-c199a7cb54ef","019cfa3a-388e-72ab-ad58-bdeb258f96cd","","1499","
                <div class=""stimulus-container"">
                    <img src=""images/semantic_sequence/visiting_cities_semantic/visiting_cities_semantic_ten.png"" class=""exp-image"">
                    <div class=""question-area"">
                        <p style=""font-size: 20px; font-weight: bold; margin: 0;"">Is there a person in this image?</p>
                    </div>
                </div>","1","main_experiment_trial","ten","visiting_cities_semantic","semantic_sequence","chronological","","","","","","",""
"","","","","","html-keyboard-response","121","215455","0.0-121.0","9330ACD4EADC47DDA28E0289C0A653F3","019cfa3c-ffe2-7656-9e6a-c199a7cb54ef","019cfa3a-388e-72ab-ad58-bdeb258f96cd","","null","<div style=""background-color: white; width: 100vw; height: 100vh;""></div>","null","","","","","","","","","","","",""
"","","","","","html-keyboard-response","122","216458","0.0-122.0","9330ACD4EADC47DDA28E0289C0A653F3","019cfa3c-ffe2-7656-9e6a-c199a7cb54ef","019cfa3a-388e-72ab-ad58-bdeb258f96cd","","null","
                <div class=""stimulus-container"">
                    <img src=""images/causal_sequence/package_causal/package_causal_1.png"" class=""exp-image"">
                    <div class=""question-area""></div> 
                </div>","null","","","","","","","","","","","",""
"","","","","","html-button-response","123","218136","0.0-123.0","9330ACD4EADC47DDA28E0289C0A653F3","019cfa3c-ffe2-7656-9e6a-c199a7cb54ef","019cfa3a-388e-72ab-ad58-bdeb258f96cd","","1676","
                <div class=""stimulus-container"">
                    <img src=""images/causal_sequence/package_causal/package_causal_1.png"" class=""exp-image"">
                    <div class=""question-area"">
                        <p style=""font-size: 20px; font-weight: bold; margin: 0;"">Is there a person in this image?</p>
                    </div>
                </div>","0","main_experiment_trial","1","package_causal","causal_sequence","chronological","","","","","","",""
"","","","","","html-keyboard-response","124","219139","0.0-124.0","9330ACD4EADC47DDA28E0289C0A653F3","019cfa3c-ffe2-7656-9e6a-c199a7cb54ef","019cfa3a-388e-72ab-ad58-bdeb258f96cd","","null","
                <div class=""stimulus-container"">
                    <img src=""images/causal_sequence/package_causal/package_causal_2.png"" class=""exp-image"">
                    <div class=""question-area""></div> 
                </div>","null","","","","","","","","","","","",""
"","","","","","html-button-response","125","219751","0.0-125.0","9330ACD4EADC47DDA28E0289C0A653F3","019cfa3c-ffe2-7656-9e6a-c199a7cb54ef","019cfa3a-388e-72ab-ad58-bdeb258f96cd","","611","
                <div class=""stimulus-container"">
                    <img src=""images/causal_sequence/package_causal/package_causal_2.png"" class=""exp-image"">
                    <div class=""question-area"">
                        <p style=""font-size: 20px; font-weight: bold; margin: 0;"">Is there a person in this image?</p>
                    </div>
                </div>","0","main_experiment_trial","2","package_causal","causal_sequence","chronological","","","","","","",""
"","","","","","html-keyboard-response","126","220754","0.0-126.0","9330ACD4EADC47DDA28E0289C0A653F3","019cfa3c-ffe2-7656-9e6a-c199a7cb54ef","019cfa3a-388e-72ab-ad58-bdeb258f96cd","","null","
                <div class=""stimulus-container"">
                    <img src=""images/causal_sequence/package_causal/package_causal_3.png"" class=""exp-image"">
                    <div class=""question-area""></div> 
                </div>","null","","","","","","","","","","","",""
"","","","","","html-button-response","127","221353","0.0-127.0","9330ACD4EADC47DDA28E0289C0A653F3","019cfa3c-ffe2-7656-9e6a-c199a7cb54ef","019cfa3a-388e-72ab-ad58-bdeb258f96cd","","598","
                <div class=""stimulus-container"">
                    <img src=""images/causal_sequence/package_causal/package_causal_3.png"" class=""exp-image"">
                    <div class=""question-area"">
                        <p style=""font-size: 20px; font-weight: bold; margin: 0;"">Is there a person in this image?</p>
                    </div>
                </div>","0","main_experiment_trial","3","package_causal","causal_sequence","chronological","","","","","","",""
"","","","","","html-keyboard-response","128","222354","0.0-128.0","9330ACD4EADC47DDA28E0289C0A653F3","019cfa3c-ffe2-7656-9e6a-c199a7cb54ef","019cfa3a-388e-72ab-ad58-bdeb258f96cd","","null","
                <div class=""stimulus-container"">
                    <img src=""images/causal_sequence/package_causal/package_causal_4.png"" class=""exp-image"">
                    <div class=""question-area""></div> 
                </div>","null","","","","","","","","","","","",""
"","","","","","html-button-response","129","223386","0.0-129.0","9330ACD4EADC47DDA28E0289C0A653F3","019cfa3c-ffe2-7656-9e6a-c199a7cb54ef","019cfa3a-388e-72ab-ad58-bdeb258f96cd","","1031","
                <div class=""stimulus-container"">
                    <img src=""images/causal_sequence/package_causal/package_causal_4.png"" class=""exp-image"">
                    <div class=""question-area"">
                        <p style=""font-size: 20px; font-weight: bold; margin: 0;"">Is there a person in this image?</p>
                    </div>
                </div>","1","main_experiment_trial","4","package_causal","causal_sequence","chronological","","","","","","",""
"","","","","","html-keyboard-response","130","224387","0.0-130.0","9330ACD4EADC47DDA28E0289C0A653F3","019cfa3c-ffe2-7656-9e6a-c199a7cb54ef","019cfa3a-388e-72ab-ad58-bdeb258f96cd","","null","
                <div class=""stimulus-container"">
                    <img src=""images/causal_sequence/package_causal/package_causal_5.png"" class=""exp-image"">
                    <div class=""question-area""></div> 
                </div>","null","","","","","","","","","","","",""
"","","","","","html-button-response","131","224836","0.0-131.0","9330ACD4EADC47DDA28E0289C0A653F3","019cfa3c-ffe2-7656-9e6a-c199a7cb54ef","019cfa3a-388e-72ab-ad58-bdeb258f96cd","","448","
                <div class=""stimulus-container"">
                    <img src=""images/causal_sequence/package_causal/package_causal_5.png"" class=""exp-image"">
                    <div class=""question-area"">
                        <p style=""font-size: 20px; font-weight: bold; margin: 0;"">Is there a person in this image?</p>
                    </div>
                </div>","0","main_experiment_trial","5","package_causal","causal_sequence","chronological","","","","","","",""
"","","","","","html-keyboard-response","132","225838","0.0-132.0","9330ACD4EADC47DDA28E0289C0A653F3","019cfa3c-ffe2-7656-9e6a-c199a7cb54ef","019cfa3a-388e-72ab-ad58-bdeb258f96cd","","null","
                <div class=""stimulus-container"">
                    <img src=""images/causal_sequence/package_causal/package_causal_6.png"" class=""exp-image"">
                    <div class=""question-area""></div> 
                </div>","null","","","","","","","","","","","",""
"","","","","","html-button-response","133","226268","0.0-133.0","9330ACD4EADC47DDA28E0289C0A653F3","019cfa3c-ffe2-7656-9e6a-c199a7cb54ef","019cfa3a-388e-72ab-ad58-bdeb258f96cd","","428","
                <div class=""stimulus-container"">
                    <img src=""images/causal_sequence/package_causal/package_causal_6.png"" class=""exp-image"">
                    <div class=""question-area"">
                        <p style=""font-size: 20px; font-weight: bold; margin: 0;"">Is there a person in this image?</p>
                    </div>
                </div>","0","main_experiment_trial","6","package_causal","causal_sequence","chronological","","","","","","",""
"","","","","","html-keyboard-response","134","227271","0.0-134.0","9330ACD4EADC47DDA28E0289C0A653F3","019cfa3c-ffe2-7656-9e6a-c199a7cb54ef","019cfa3a-388e-72ab-ad58-bdeb258f96cd","","null","
                <div class=""stimulus-container"">
                    <img src=""images/causal_sequence/package_causal/package_causal_7.png"" class=""exp-image"">
                    <div class=""question-area""></div> 
                </div>","null","","","","","","","","","","","",""
"","","","","","html-button-response","135","227917","0.0-135.0","9330ACD4EADC47DDA28E0289C0A653F3","019cfa3c-ffe2-7656-9e6a-c199a7cb54ef","019cfa3a-388e-72ab-ad58-bdeb258f96cd","","645","
                <div class=""stimulus-container"">
                    <img src=""images/causal_sequence/package_causal/package_causal_7.png"" class=""exp-image"">
                    <div class=""question-area"">
                        <p style=""font-size: 20px; font-weight: bold; margin: 0;"">Is there a person in this image?</p>
                    </div>
                </div>","0","main_experiment_trial","7","package_causal","causal_sequence","chronological","","","","","","",""
"","","","","","html-keyboard-response","136","228919","0.0-136.0","9330ACD4EADC47DDA28E0289C0A653F3","019cfa3c-ffe2-7656-9e6a-c199a7cb54ef","019cfa3a-388e-72ab-ad58-bdeb258f96cd","","null","
                <div class=""stimulus-container"">
                    <img src=""images/causal_sequence/package_causal/package_causal_8.png"" class=""exp-image"">
                    <div class=""question-area""></div> 
                </div>","null","","","","","","","","","","","",""
"","","","","","html-button-response","137","229367","0.0-137.0","9330ACD4EADC47DDA28E0289C0A653F3","019cfa3c-ffe2-7656-9e6a-c199a7cb54ef","019cfa3a-388e-72ab-ad58-bdeb258f96cd","","447","
                <div class=""stimulus-container"">
                    <img src=""images/causal_sequence/package_causal/package_causal_8.png"" class=""exp-image"">
                    <div class=""question-area"">
                        <p style=""font-size: 20px; font-weight: bold; margin: 0;"">Is there a person in this image?</p>
                    </div>
                </div>","0","main_experiment_trial","8","package_causal","causal_sequence","chronological","","","","","","",""
"","","","","","html-keyboard-response","138","230369","0.0-138.0","9330ACD4EADC47DDA28E0289C0A653F3","019cfa3c-ffe2-7656-9e6a-c199a7cb54ef","019cfa3a-388e-72ab-ad58-bdeb258f96cd","","null","
                <div class=""stimulus-container"">
                    <img src=""images/causal_sequence/package_causal/package_causal_9.png"" class=""exp-image"">
                    <div class=""question-area""></div> 
                </div>","null","","","","","","","","","","","",""
"","","","","","html-button-response","139","230835","0.0-139.0","9330ACD4EADC47DDA28E0289C0A653F3","019cfa3c-ffe2-7656-9e6a-c199a7cb54ef","019cfa3a-388e-72ab-ad58-bdeb258f96cd","","465","
                <div class=""stimulus-container"">
                    <img src=""images/causal_sequence/package_causal/package_causal_9.png"" class=""exp-image"">
                    <div class=""question-area"">
                        <p style=""font-size: 20px; font-weight: bold; margin: 0;"">Is there a person in this image?</p>
                    </div>
                </div>","0","main_experiment_trial","9","package_causal","causal_sequence","chronological","","","","","","",""
"","","","","","html-keyboard-response","140","231838","0.0-140.0","9330ACD4EADC47DDA28E0289C0A653F3","019cfa3c-ffe2-7656-9e6a-c199a7cb54ef","019cfa3a-388e-72ab-ad58-bdeb258f96cd","","null","
                <div class=""stimulus-container"">
                    <img src=""images/causal_sequence/package_causal/package_causal_ten.png"" class=""exp-image"">
                    <div class=""question-area""></div> 
                </div>","null","","","","","","","","","","","",""
"","","","","","html-button-response","141","232251","0.0-141.0","9330ACD4EADC47DDA28E0289C0A653F3","019cfa3c-ffe2-7656-9e6a-c199a7cb54ef","019cfa3a-388e-72ab-ad58-bdeb258f96cd","","412","
                <div class=""stimulus-container"">
                    <img src=""images/causal_sequence/package_causal/package_causal_ten.png"" class=""exp-image"">
                    <div class=""question-area"">
                        <p style=""font-size: 20px; font-weight: bold; margin: 0;"">Is there a person in this image?</p>
                    </div>
                </div>","0","main_experiment_trial","ten","package_causal","causal_sequence","chronological","","","","","","",""
"","","","","","html-keyboard-response","142","237253","0.0-142.0","9330ACD4EADC47DDA28E0289C0A653F3","019cfa3c-ffe2-7656-9e6a-c199a7cb54ef","019cfa3a-388e-72ab-ad58-bdeb258f96cd","","null","<div style=""background-color: white; width: 100vw; height: 100vh;""></div>","null","","","","","","","","","","","",""
"","","","","","html-keyboard-response","143","238256","0.0-143.0","9330ACD4EADC47DDA28E0289C0A653F3","019cfa3c-ffe2-7656-9e6a-c199a7cb54ef","019cfa3a-388e-72ab-ad58-bdeb258f96cd","","null","
                <div class=""stimulus-container"">
                    <img src=""images/causal_sequence/museum_causal/museum_causal_1.png"" class=""exp-image"">
                    <div class=""question-area""></div> 
                </div>","null","","","","","","","","","","","",""
"","","","","","html-button-response","144","239719","0.0-144.0","9330ACD4EADC47DDA28E0289C0A653F3","019cfa3c-ffe2-7656-9e6a-c199a7cb54ef","019cfa3a-388e-72ab-ad58-bdeb258f96cd","","1461","
                <div class=""stimulus-container"">
                    <img src=""images/causal_sequence/museum_causal/museum_causal_1.png"" class=""exp-image"">
                    <div class=""question-area"">
                        <p style=""font-size: 20px; font-weight: bold; margin: 0;"">Is there a person in this image?</p>
                    </div>
                </div>","0","main_experiment_trial","1","museum_causal","causal_sequence","chronological","","","","","","",""
"","","","","","html-keyboard-response","145","240721","0.0-145.0","9330ACD4EADC47DDA28E0289C0A653F3","019cfa3c-ffe2-7656-9e6a-c199a7cb54ef","019cfa3a-388e-72ab-ad58-bdeb258f96cd","","null","
                <div class=""stimulus-container"">
                    <img src=""images/causal_sequence/museum_causal/museum_causal_2.png"" class=""exp-image"">
                    <div class=""question-area""></div> 
                </div>","null","","","","","","","","","","","",""
"","","","","","html-button-response","146","242636","0.0-146.0","9330ACD4EADC47DDA28E0289C0A653F3","019cfa3c-ffe2-7656-9e6a-c199a7cb54ef","019cfa3a-388e-72ab-ad58-bdeb258f96cd","","1913","
                <div class=""stimulus-container"">
                    <img src=""images/causal_sequence/museum_causal/museum_causal_2.png"" class=""exp-image"">
                    <div class=""question-area"">
                        <p style=""font-size: 20px; font-weight: bold; margin: 0;"">Is there a person in this image?</p>
                    </div>
                </div>","0","main_experiment_trial","2","museum_causal","causal_sequence","chronological","","","","","","",""
"","","","","","html-keyboard-response","147","243638","0.0-147.0","9330ACD4EADC47DDA28E0289C0A653F3","019cfa3c-ffe2-7656-9e6a-c199a7cb54ef","019cfa3a-388e-72ab-ad58-bdeb258f96cd","","null","
                <div class=""stimulus-container"">
                    <img src=""images/causal_sequence/museum_causal/museum_causal_3.png"" class=""exp-image"">
                    <div class=""question-area""></div> 
                </div>","null","","","","","","","","","","","",""
"","","","","","html-button-response","148","246035","0.0-148.0","9330ACD4EADC47DDA28E0289C0A653F3","019cfa3c-ffe2-7656-9e6a-c199a7cb54ef","019cfa3a-388e-72ab-ad58-bdeb258f96cd","","2396","
                <div class=""stimulus-container"">
                    <img src=""images/causal_sequence/museum_causal/museum_causal_3.png"" class=""exp-image"">
                    <div class=""question-area"">
                        <p style=""font-size: 20px; font-weight: bold; margin: 0;"">Is there a person in this image?</p>
                    </div>
                </div>","1","main_experiment_trial","3","museum_causal","causal_sequence","chronological","","","","","","",""
"","","","","","html-keyboard-response","149","247038","0.0-149.0","9330ACD4EADC47DDA28E0289C0A653F3","019cfa3c-ffe2-7656-9e6a-c199a7cb54ef","019cfa3a-388e-72ab-ad58-bdeb258f96cd","","null","
                <div class=""stimulus-container"">
                    <img src=""images/causal_sequence/museum_causal/museum_causal_4.png"" class=""exp-image"">
                    <div class=""question-area""></div> 
                </div>","null","","","","","","","","","","","",""
"","","","","","html-button-response","150","248938","0.0-150.0","9330ACD4EADC47DDA28E0289C0A653F3","019cfa3c-ffe2-7656-9e6a-c199a7cb54ef","019cfa3a-388e-72ab-ad58-bdeb258f96cd","","1898","
                <div class=""stimulus-container"">
                    <img src=""images/causal_sequence/museum_causal/museum_causal_4.png"" class=""exp-image"">
                    <div class=""question-area"">
                        <p style=""font-size: 20px; font-weight: bold; margin: 0;"">Is there a person in this image?</p>
                    </div>
                </div>","1","main_experiment_trial","4","museum_causal","causal_sequence","chronological","","","","","","",""
"","","","","","html-keyboard-response","151","249940","0.0-151.0","9330ACD4EADC47DDA28E0289C0A653F3","019cfa3c-ffe2-7656-9e6a-c199a7cb54ef","019cfa3a-388e-72ab-ad58-bdeb258f96cd","","null","
                <div class=""stimulus-container"">
                    <img src=""images/causal_sequence/museum_causal/museum_causal_5.png"" class=""exp-image"">
                    <div class=""question-area""></div> 
                </div>","null","","","","","","","","","","","",""
"","","","","","html-button-response","152","251035","0.0-152.0","9330ACD4EADC47DDA28E0289C0A653F3","019cfa3c-ffe2-7656-9e6a-c199a7cb54ef","019cfa3a-388e-72ab-ad58-bdeb258f96cd","","1094","
                <div class=""stimulus-container"">
                    <img src=""images/causal_sequence/museum_causal/museum_causal_5.png"" class=""exp-image"">
                    <div class=""question-area"">
                        <p style=""font-size: 20px; font-weight: bold; margin: 0;"">Is there a person in this image?</p>
                    </div>
                </div>","0","main_experiment_trial","5","museum_causal","causal_sequence","chronological","","","","","","",""
"","","","","","html-keyboard-response","153","252037","0.0-153.0","9330ACD4EADC47DDA28E0289C0A653F3","019cfa3c-ffe2-7656-9e6a-c199a7cb54ef","019cfa3a-388e-72ab-ad58-bdeb258f96cd","","null","
                <div class=""stimulus-container"">
                    <img src=""images/causal_sequence/museum_causal/museum_causal_6.png"" class=""exp-image"">
                    <div class=""question-area""></div> 
                </div>","null","","","","","","","","","","","",""
"","","","","","html-button-response","154","252917","0.0-154.0","9330ACD4EADC47DDA28E0289C0A653F3","019cfa3c-ffe2-7656-9e6a-c199a7cb54ef","019cfa3a-388e-72ab-ad58-bdeb258f96cd","","880","
                <div class=""stimulus-container"">
                    <img src=""images/causal_sequence/museum_causal/museum_causal_6.png"" class=""exp-image"">
                    <div class=""question-area"">
                        <p style=""font-size: 20px; font-weight: bold; margin: 0;"">Is there a person in this image?</p>
                    </div>
                </div>","0","main_experiment_trial","6","museum_causal","causal_sequence","chronological","","","","","","",""
"","","","","","html-keyboard-response","155","253919","0.0-155.0","9330ACD4EADC47DDA28E0289C0A653F3","019cfa3c-ffe2-7656-9e6a-c199a7cb54ef","019cfa3a-388e-72ab-ad58-bdeb258f96cd","","null","
                <div class=""stimulus-container"">
                    <img src=""images/causal_sequence/museum_causal/museum_causal_7.png"" class=""exp-image"">
                    <div class=""question-area""></div> 
                </div>","null","","","","","","","","","","","",""
"","","","","","html-button-response","156","255352","0.0-156.0","9330ACD4EADC47DDA28E0289C0A653F3","019cfa3c-ffe2-7656-9e6a-c199a7cb54ef","019cfa3a-388e-72ab-ad58-bdeb258f96cd","","1432","
                <div class=""stimulus-container"">
                    <img src=""images/causal_sequence/museum_causal/museum_causal_7.png"" class=""exp-image"">
                    <div class=""question-area"">
                        <p style=""font-size: 20px; font-weight: bold; margin: 0;"">Is there a person in this image?</p>
                    </div>
                </div>","1","main_experiment_trial","7","museum_causal","causal_sequence","chronological","","","","","","",""
"","","","","","html-keyboard-response","157","256354","0.0-157.0","9330ACD4EADC47DDA28E0289C0A653F3","019cfa3c-ffe2-7656-9e6a-c199a7cb54ef","019cfa3a-388e-72ab-ad58-bdeb258f96cd","","null","
                <div class=""stimulus-container"">
                    <img src=""images/causal_sequence/museum_causal/museum_causal_8.png"" class=""exp-image"">
                    <div class=""question-area""></div> 
                </div>","null","","","","","","","","","","","",""
"","","","","","html-button-response","158","257086","0.0-158.0","9330ACD4EADC47DDA28E0289C0A653F3","019cfa3c-ffe2-7656-9e6a-c199a7cb54ef","019cfa3a-388e-72ab-ad58-bdeb258f96cd","","731","
                <div class=""stimulus-container"">
                    <img src=""images/causal_sequence/museum_causal/museum_causal_8.png"" class=""exp-image"">
                    <div class=""question-area"">
                        <p style=""font-size: 20px; font-weight: bold; margin: 0;"">Is there a person in this image?</p>
                    </div>
                </div>","0","main_experiment_trial","8","museum_causal","causal_sequence","chronological","","","","","","",""
"","","","","","html-keyboard-response","159","258088","0.0-159.0","9330ACD4EADC47DDA28E0289C0A653F3","019cfa3c-ffe2-7656-9e6a-c199a7cb54ef","019cfa3a-388e-72ab-ad58-bdeb258f96cd","","null","
                <div class=""stimulus-container"">
                    <img src=""images/causal_sequence/museum_causal/museum_causal_9.png"" class=""exp-image"">
                    <div class=""question-area""></div> 
                </div>","null","","","","","","","","","","","",""
"","","","","","html-button-response","160","259118","0.0-160.0","9330ACD4EADC47DDA28E0289C0A653F3","019cfa3c-ffe2-7656-9e6a-c199a7cb54ef","019cfa3a-388e-72ab-ad58-bdeb258f96cd","","1029","
                <div class=""stimulus-container"">
                    <img src=""images/causal_sequence/museum_causal/museum_causal_9.png"" class=""exp-image"">
                    <div class=""question-area"">
                        <p style=""font-size: 20px; font-weight: bold; margin: 0;"">Is there a person in this image?</p>
                    </div>
                </div>","1","main_experiment_trial","9","museum_causal","causal_sequence","chronological","","","","","","",""
"","","","","","html-keyboard-response","161","260121","0.0-161.0","9330ACD4EADC47DDA28E0289C0A653F3","019cfa3c-ffe2-7656-9e6a-c199a7cb54ef","019cfa3a-388e-72ab-ad58-bdeb258f96cd","","null","
                <div class=""stimulus-container"">
                    <img src=""images/causal_sequence/museum_causal/museum_causal_ten.png"" class=""exp-image"">
                    <div class=""question-area""></div> 
                </div>","null","","","","","","","","","","","",""
"","","","","","html-button-response","162","260951","0.0-162.0","9330ACD4EADC47DDA28E0289C0A653F3","019cfa3c-ffe2-7656-9e6a-c199a7cb54ef","019cfa3a-388e-72ab-ad58-bdeb258f96cd","","829","
                <div class=""stimulus-container"">
                    <img src=""images/causal_sequence/museum_causal/museum_causal_ten.png"" class=""exp-image"">
                    <div class=""question-area"">
                        <p style=""font-size: 20px; font-weight: bold; margin: 0;"">Is there a person in this image?</p>
                    </div>
                </div>","0","main_experiment_trial","ten","museum_causal","causal_sequence","chronological","","","","","","",""
"","","","","","html-keyboard-response","163","265953","0.0-163.0","9330ACD4EADC47DDA28E0289C0A653F3","019cfa3c-ffe2-7656-9e6a-c199a7cb54ef","019cfa3a-388e-72ab-ad58-bdeb258f96cd","","null","<div style=""background-color: white; width: 100vw; height: 100vh;""></div>","null","","","","","","","","","","","",""
"","","","","","html-keyboard-response","164","266955","0.0-164.0","9330ACD4EADC47DDA28E0289C0A653F3","019cfa3c-ffe2-7656-9e6a-c199a7cb54ef","019cfa3a-388e-72ab-ad58-bdeb258f96cd","","null","
                <div class=""stimulus-container"">
                    <img src=""images/semantic_sequence/exploring_nature_semantic/exploring_nature_semantic_1.png"" class=""exp-image"">
                    <div class=""question-area""></div> 
                </div>","null","","","","","","","","","","","",""
"","","","","","html-button-response","165","268184","0.0-165.0","9330ACD4EADC47DDA28E0289C0A653F3","019cfa3c-ffe2-7656-9e6a-c199a7cb54ef","019cfa3a-388e-72ab-ad58-bdeb258f96cd","","1228","
                <div class=""stimulus-container"">
                    <img src=""images/semantic_sequence/exploring_nature_semantic/exploring_nature_semantic_1.png"" class=""exp-image"">
                    <div class=""question-area"">
                        <p style=""font-size: 20px; font-weight: bold; margin: 0;"">Is there a person in this image?</p>
                    </div>
                </div>","0","main_experiment_trial","1","exploring_nature_semantic","semantic_sequence","chronological","","","","","","",""
"","","","","","html-keyboard-response","166","269186","0.0-166.0","9330ACD4EADC47DDA28E0289C0A653F3","019cfa3c-ffe2-7656-9e6a-c199a7cb54ef","019cfa3a-388e-72ab-ad58-bdeb258f96cd","","null","
                <div class=""stimulus-container"">
                    <img src=""images/semantic_sequence/exploring_nature_semantic/exploring_nature_semantic_2.png"" class=""exp-image"">
                    <div class=""question-area""></div> 
                </div>","null","","","","","","","","","","","",""
"","","","","","html-button-response","167","271102","0.0-167.0","9330ACD4EADC47DDA28E0289C0A653F3","019cfa3c-ffe2-7656-9e6a-c199a7cb54ef","019cfa3a-388e-72ab-ad58-bdeb258f96cd","","1915","
                <div class=""stimulus-container"">
                    <img src=""images/semantic_sequence/exploring_nature_semantic/exploring_nature_semantic_2.png"" class=""exp-image"">
                    <div class=""question-area"">
                        <p style=""font-size: 20px; font-weight: bold; margin: 0;"">Is there a person in this image?</p>
                    </div>
                </div>","0","main_experiment_trial","2","exploring_nature_semantic","semantic_sequence","chronological","","","","","","",""
"","","","","","html-keyboard-response","168","272106","0.0-168.0","9330ACD4EADC47DDA28E0289C0A653F3","019cfa3c-ffe2-7656-9e6a-c199a7cb54ef","019cfa3a-388e-72ab-ad58-bdeb258f96cd","","null","
                <div class=""stimulus-container"">
                    <img src=""images/semantic_sequence/exploring_nature_semantic/exploring_nature_semantic_3.png"" class=""exp-image"">
                    <div class=""question-area""></div> 
                </div>","null","","","","","","","","","","","",""
"","","","","","html-button-response","169","272587","0.0-169.0","9330ACD4EADC47DDA28E0289C0A653F3","019cfa3c-ffe2-7656-9e6a-c199a7cb54ef","019cfa3a-388e-72ab-ad58-bdeb258f96cd","","480","
                <div class=""stimulus-container"">
                    <img src=""images/semantic_sequence/exploring_nature_semantic/exploring_nature_semantic_3.png"" class=""exp-image"">
                    <div class=""question-area"">
                        <p style=""font-size: 20px; font-weight: bold; margin: 0;"">Is there a person in this image?</p>
                    </div>
                </div>","0","main_experiment_trial","3","exploring_nature_semantic","semantic_sequence","chronological","","","","","","",""
"","","","","","html-keyboard-response","170","273589","0.0-170.0","9330ACD4EADC47DDA28E0289C0A653F3","019cfa3c-ffe2-7656-9e6a-c199a7cb54ef","019cfa3a-388e-72ab-ad58-bdeb258f96cd","","null","
                <div class=""stimulus-container"">
                    <img src=""images/semantic_sequence/exploring_nature_semantic/exploring_nature_semantic_4.png"" class=""exp-image"">
                    <div class=""question-area""></div> 
                </div>","null","","","","","","","","","","","",""
"","","","","","html-button-response","171","274053","0.0-171.0","9330ACD4EADC47DDA28E0289C0A653F3","019cfa3c-ffe2-7656-9e6a-c199a7cb54ef","019cfa3a-388e-72ab-ad58-bdeb258f96cd","","463","
                <div class=""stimulus-container"">
                    <img src=""images/semantic_sequence/exploring_nature_semantic/exploring_nature_semantic_4.png"" class=""exp-image"">
                    <div class=""question-area"">
                        <p style=""font-size: 20px; font-weight: bold; margin: 0;"">Is there a person in this image?</p>
                    </div>
                </div>","0","main_experiment_trial","4","exploring_nature_semantic","semantic_sequence","chronological","","","","","","",""
"","","","","","html-keyboard-response","172","275055","0.0-172.0","9330ACD4EADC47DDA28E0289C0A653F3","019cfa3c-ffe2-7656-9e6a-c199a7cb54ef","019cfa3a-388e-72ab-ad58-bdeb258f96cd","","null","
                <div class=""stimulus-container"">
                    <img src=""images/semantic_sequence/exploring_nature_semantic/exploring_nature_semantic_5.png"" class=""exp-image"">
                    <div class=""question-area""></div> 
                </div>","null","","","","","","","","","","","",""
"","","","","","html-button-response","173","275536","0.0-173.0","9330ACD4EADC47DDA28E0289C0A653F3","019cfa3c-ffe2-7656-9e6a-c199a7cb54ef","019cfa3a-388e-72ab-ad58-bdeb258f96cd","","479","
                <div class=""stimulus-container"">
                    <img src=""images/semantic_sequence/exploring_nature_semantic/exploring_nature_semantic_5.png"" class=""exp-image"">
                    <div class=""question-area"">
                        <p style=""font-size: 20px; font-weight: bold; margin: 0;"">Is there a person in this image?</p>
                    </div>
                </div>","0","main_experiment_trial","5","exploring_nature_semantic","semantic_sequence","chronological","","","","","","",""
"","","","","","html-keyboard-response","174","276538","0.0-174.0","9330ACD4EADC47DDA28E0289C0A653F3","019cfa3c-ffe2-7656-9e6a-c199a7cb54ef","019cfa3a-388e-72ab-ad58-bdeb258f96cd","","null","
                <div class=""stimulus-container"">
                    <img src=""images/semantic_sequence/exploring_nature_semantic/exploring_nature_semantic_6.png"" class=""exp-image"">
                    <div class=""question-area""></div> 
                </div>","null","","","","","","","","","","","",""
"","","","","","html-button-response","175","276937","0.0-175.0","9330ACD4EADC47DDA28E0289C0A653F3","019cfa3c-ffe2-7656-9e6a-c199a7cb54ef","019cfa3a-388e-72ab-ad58-bdeb258f96cd","","398","
                <div class=""stimulus-container"">
                    <img src=""images/semantic_sequence/exploring_nature_semantic/exploring_nature_semantic_6.png"" class=""exp-image"">
                    <div class=""question-area"">
                        <p style=""font-size: 20px; font-weight: bold; margin: 0;"">Is there a person in this image?</p>
                    </div>
                </div>","0","main_experiment_trial","6","exploring_nature_semantic","semantic_sequence","chronological","","","","","","",""
"","","","","","html-keyboard-response","176","277938","0.0-176.0","9330ACD4EADC47DDA28E0289C0A653F3","019cfa3c-ffe2-7656-9e6a-c199a7cb54ef","019cfa3a-388e-72ab-ad58-bdeb258f96cd","","null","
                <div class=""stimulus-container"">
