"success","timeout","failed_images","failed_audio","failed_video","trial_type","trial_index","time_elapsed","internal_node_id","subject_id","study_id","session_id","view_history","rt","stimulus","response","task","image_index","folder","valuable_image_index","valuable_X","chosen_image_index","distance_from_X"
"false","false","[]","[]","[]","preload","0","6397","0.0-0.0","9B55B16496F04787B72417D2E7356689","019ce7a5-0da1-7162-90b1-214f06950ac5","019ce7a0-0965-7aa7-a556-174d32a8e773","","","","","","","","","","",""
"","","","","","instructions","1","51217","0.0-1.0","9B55B16496F04787B72417D2E7356689","019ce7a5-0da1-7162-90b1-214f06950ac5","019ce7a0-0965-7aa7-a556-174d32a8e773","[{""page_index"":0,""viewing_time"":44818}]","44818","","","","","","","","",""
"","","","","","instructions","2","54752","0.0-2.0","9B55B16496F04787B72417D2E7356689","019ce7a5-0da1-7162-90b1-214f06950ac5","019ce7a0-0965-7aa7-a556-174d32a8e773","[{""page_index"":0,""viewing_time"":3534}]","3534","","","","","","","","",""
"true","","","","","fullscreen","3","62488","0.0-3.0","9B55B16496F04787B72417D2E7356689","019ce7a5-0da1-7162-90b1-214f06950ac5","019ce7a0-0965-7aa7-a556-174d32a8e773","","6733","","","","","","","","",""
"","","","","","instructions","4","69634","0.0-4.0","9B55B16496F04787B72417D2E7356689","019ce7a5-0da1-7162-90b1-214f06950ac5","019ce7a0-0965-7aa7-a556-174d32a8e773","[{""page_index"":0,""viewing_time"":7145}]","7145","","","","","","","","",""
"","","","","","instructions","5","78659","0.0-5.0","9B55B16496F04787B72417D2E7356689","019ce7a5-0da1-7162-90b1-214f06950ac5","019ce7a0-0965-7aa7-a556-174d32a8e773","[{""page_index"":0,""viewing_time"":9024}]","9024","","","","","","","","",""
"","","","","","html-keyboard-response","6","82663","0.0-6.0","9B55B16496F04787B72417D2E7356689","019ce7a5-0da1-7162-90b1-214f06950ac5","019ce7a0-0965-7aa7-a556-174d32a8e773","","null","
                <div class=""stimulus-container"">
                    <img src=""images/instructions/movie_1.png"" class=""exp-image"">
                    <div class=""question-area""></div> 
                </div>","null","","","","","","",""
"","","","","","html-button-response","7","84171","0.0-7.0","9B55B16496F04787B72417D2E7356689","019ce7a5-0da1-7162-90b1-214f06950ac5","019ce7a0-0965-7aa7-a556-174d32a8e773","","1505","
                <div class=""stimulus-container"">
                    <img src=""images/instructions/movie_1.png"" class=""exp-image"">
                    <div class=""question-area"">
                        <p style=""font-size: 20px; font-weight: bold; margin: 0;"">Was there a person in this image?</p>
                    </div>
                </div>","0","example_question","1","","","","",""
"","","","","","html-keyboard-response","8","88174","0.0-8.0","9B55B16496F04787B72417D2E7356689","019ce7a5-0da1-7162-90b1-214f06950ac5","019ce7a0-0965-7aa7-a556-174d32a8e773","","null","
                <div class=""stimulus-container"">
                    <img src=""images/instructions/movie_2.png"" class=""exp-image"">
                    <div class=""question-area""></div> 
                </div>","null","","","","","","",""
"","","","","","html-button-response","9","88860","0.0-9.0","9B55B16496F04787B72417D2E7356689","019ce7a5-0da1-7162-90b1-214f06950ac5","019ce7a0-0965-7aa7-a556-174d32a8e773","","684","
                <div class=""stimulus-container"">
                    <img src=""images/instructions/movie_2.png"" class=""exp-image"">
                    <div class=""question-area"">
                        <p style=""font-size: 20px; font-weight: bold; margin: 0;"">Was there a person in this image?</p>
                    </div>
                </div>","0","example_question","2","","","","",""
"","","","","","html-keyboard-response","10","92862","0.0-10.0","9B55B16496F04787B72417D2E7356689","019ce7a5-0da1-7162-90b1-214f06950ac5","019ce7a0-0965-7aa7-a556-174d32a8e773","","null","
                <div class=""stimulus-container"">
                    <img src=""images/instructions/movie_3.png"" class=""exp-image"">
                    <div class=""question-area""></div> 
                </div>","null","","","","","","",""
"","","","","","html-button-response","11","93536","0.0-11.0","9B55B16496F04787B72417D2E7356689","019ce7a5-0da1-7162-90b1-214f06950ac5","019ce7a0-0965-7aa7-a556-174d32a8e773","","673","
                <div class=""stimulus-container"">
                    <img src=""images/instructions/movie_3.png"" class=""exp-image"">
                    <div class=""question-area"">
                        <p style=""font-size: 20px; font-weight: bold; margin: 0;"">Was there a person in this image?</p>
                    </div>
                </div>","0","example_question","3","","","","",""
"","","","","","html-keyboard-response","12","97538","0.0-12.0","9B55B16496F04787B72417D2E7356689","019ce7a5-0da1-7162-90b1-214f06950ac5","019ce7a0-0965-7aa7-a556-174d32a8e773","","null","
                <div class=""stimulus-container"">
                    <img src=""images/instructions/movie_4.png"" class=""exp-image"">
                    <div class=""question-area""></div> 
                </div>","null","","","","","","",""
"","","","","","html-button-response","13","98677","0.0-13.0","9B55B16496F04787B72417D2E7356689","019ce7a5-0da1-7162-90b1-214f06950ac5","019ce7a0-0965-7aa7-a556-174d32a8e773","","1137","
                <div class=""stimulus-container"">
                    <img src=""images/instructions/movie_4.png"" class=""exp-image"">
                    <div class=""question-area"">
                        <p style=""font-size: 20px; font-weight: bold; margin: 0;"">Was there a person in this image?</p>
                    </div>
                </div>","0","example_question","4","","","","",""
"","","","","","instructions","14","100107","0.0-14.0","9B55B16496F04787B72417D2E7356689","019ce7a5-0da1-7162-90b1-214f06950ac5","019ce7a0-0965-7aa7-a556-174d32a8e773","[{""page_index"":0,""viewing_time"":1429}]","1430","","","","","","","","",""
"","","","","","html-keyboard-response","15","101108","0.0-15.0","9B55B16496F04787B72417D2E7356689","019ce7a5-0da1-7162-90b1-214f06950ac5","019ce7a0-0965-7aa7-a556-174d32a8e773","","null","<div style=""background-color: gray; width: 100vw; height: 100vh;""></div>","null","","","","","","",""
"","","","","","html-keyboard-response","16","106110","0.0-16.0","9B55B16496F04787B72417D2E7356689","019ce7a5-0da1-7162-90b1-214f06950ac5","019ce7a0-0965-7aa7-a556-174d32a8e773","","null","
                    <div class=""stimulus-container"">
                        <img src=""images/causal_sequence/the_performance_causal/the_performance_causal_1.png"" class=""exp-image"">
                        <div class=""question-area""></div> 
                    </div>","null","","","","","","",""
"","","","","","html-button-response","17","106956","0.0-17.0","9B55B16496F04787B72417D2E7356689","019ce7a5-0da1-7162-90b1-214f06950ac5","019ce7a0-0965-7aa7-a556-174d32a8e773","","844","
                    <div class=""stimulus-container"">
                        <img src=""images/causal_sequence/the_performance_causal/the_performance_causal_1.png"" class=""exp-image"">
                        <div class=""question-area"">
                            <p style=""font-size: 20px; font-weight: bold; margin: 0;"">Is there a person in this image?</p>
                        </div>
                    </div>","0","main_causal_task","1","the_performance_causal","","","",""
"","","","","","html-keyboard-response","18","111958","0.0-18.0","9B55B16496F04787B72417D2E7356689","019ce7a5-0da1-7162-90b1-214f06950ac5","019ce7a0-0965-7aa7-a556-174d32a8e773","","null","
                    <div class=""stimulus-container"">
                        <img src=""images/causal_sequence/the_performance_causal/the_performance_causal_2.png"" class=""exp-image"">
                        <div class=""question-area""></div> 
                    </div>","null","","","","","","",""
"","","","","","html-button-response","19","112729","0.0-19.0","9B55B16496F04787B72417D2E7356689","019ce7a5-0da1-7162-90b1-214f06950ac5","019ce7a0-0965-7aa7-a556-174d32a8e773","","770","
                    <div class=""stimulus-container"">
                        <img src=""images/causal_sequence/the_performance_causal/the_performance_causal_2.png"" class=""exp-image"">
                        <div class=""question-area"">
                            <p style=""font-size: 20px; font-weight: bold; margin: 0;"">Is there a person in this image?</p>
                        </div>
                    </div>","0","main_causal_task","2","the_performance_causal","","","",""
"","","","","","html-keyboard-response","20","117733","0.0-20.0","9B55B16496F04787B72417D2E7356689","019ce7a5-0da1-7162-90b1-214f06950ac5","019ce7a0-0965-7aa7-a556-174d32a8e773","","null","
                    <div class=""stimulus-container"">
                        <img src=""images/causal_sequence/the_performance_causal/the_performance_causal_3.png"" class=""exp-image"">
                        <div class=""question-area""></div> 
                    </div>","null","","","","","","",""
"","","","","","html-button-response","21","118283","0.0-21.0","9B55B16496F04787B72417D2E7356689","019ce7a5-0da1-7162-90b1-214f06950ac5","019ce7a0-0965-7aa7-a556-174d32a8e773","","548","
                    <div class=""stimulus-container"">
                        <img src=""images/causal_sequence/the_performance_causal/the_performance_causal_3.png"" class=""exp-image"">
                        <div class=""question-area"">
                            <p style=""font-size: 20px; font-weight: bold; margin: 0;"">Is there a person in this image?</p>
                        </div>
                    </div>","0","main_causal_task","3","the_performance_causal","","","",""
"","","","","","html-keyboard-response","22","123285","0.0-22.0","9B55B16496F04787B72417D2E7356689","019ce7a5-0da1-7162-90b1-214f06950ac5","019ce7a0-0965-7aa7-a556-174d32a8e773","","null","
                    <div class=""stimulus-container"">
                        <img src=""images/causal_sequence/the_performance_causal/the_performance_causal_4.png"" class=""exp-image"">
                        <div class=""question-area""></div> 
                    </div>","null","","","","","","",""
"","","","","","html-button-response","23","124386","0.0-23.0","9B55B16496F04787B72417D2E7356689","019ce7a5-0da1-7162-90b1-214f06950ac5","019ce7a0-0965-7aa7-a556-174d32a8e773","","1101","
                    <div class=""stimulus-container"">
                        <img src=""images/causal_sequence/the_performance_causal/the_performance_causal_4.png"" class=""exp-image"">
                        <div class=""question-area"">
                            <p style=""font-size: 20px; font-weight: bold; margin: 0;"">Is there a person in this image?</p>
                        </div>
                    </div>","0","main_causal_task","4","the_performance_causal","","","",""
"","","","","","html-keyboard-response","24","129388","0.0-24.0","9B55B16496F04787B72417D2E7356689","019ce7a5-0da1-7162-90b1-214f06950ac5","019ce7a0-0965-7aa7-a556-174d32a8e773","","null","
                    <div class=""stimulus-container"">
                        <img src=""images/causal_sequence/the_performance_causal/the_performance_causal_5.png"" class=""exp-image"">
                        <div class=""question-area""></div> 
                    </div>","null","","","","","","",""
"","","","","","html-button-response","25","130108","0.0-25.0","9B55B16496F04787B72417D2E7356689","019ce7a5-0da1-7162-90b1-214f06950ac5","019ce7a0-0965-7aa7-a556-174d32a8e773","","718","
                    <div class=""stimulus-container"">
                        <img src=""images/causal_sequence/the_performance_causal/the_performance_causal_5.png"" class=""exp-image"">
                        <div class=""question-area"">
                            <p style=""font-size: 20px; font-weight: bold; margin: 0;"">Is there a person in this image?</p>
                        </div>
                    </div>","0","main_causal_task","5","the_performance_causal","","","",""
"","","","","","html-keyboard-response","26","135110","0.0-26.0","9B55B16496F04787B72417D2E7356689","019ce7a5-0da1-7162-90b1-214f06950ac5","019ce7a0-0965-7aa7-a556-174d32a8e773","","null","
                    <div class=""stimulus-container"">
                        <img src=""images/causal_sequence/the_performance_causal/the_performance_causal_6.png"" class=""exp-image"">
                        <div class=""question-area""></div> 
                    </div>","null","","","","","","",""
"","","","","","html-button-response","27","135718","0.0-27.0","9B55B16496F04787B72417D2E7356689","019ce7a5-0da1-7162-90b1-214f06950ac5","019ce7a0-0965-7aa7-a556-174d32a8e773","","607","
                    <div class=""stimulus-container"">
                        <img src=""images/causal_sequence/the_performance_causal/the_performance_causal_6.png"" class=""exp-image"">
                        <div class=""question-area"">
                            <p style=""font-size: 20px; font-weight: bold; margin: 0;"">Is there a person in this image?</p>
                        </div>
                    </div>","0","main_causal_task","6","the_performance_causal","","","",""
"","","","","","html-keyboard-response","28","140721","0.0-28.0","9B55B16496F04787B72417D2E7356689","019ce7a5-0da1-7162-90b1-214f06950ac5","019ce7a0-0965-7aa7-a556-174d32a8e773","","null","
                    <div class=""stimulus-container"">
                        <img src=""images/causal_sequence/the_performance_causal/the_performance_causal_7.png"" class=""exp-image"">
                        <div class=""question-area""></div> 
                    </div>","null","","","","","","",""
"","","","","","html-button-response","29","141425","0.0-29.0","9B55B16496F04787B72417D2E7356689","019ce7a5-0da1-7162-90b1-214f06950ac5","019ce7a0-0965-7aa7-a556-174d32a8e773","","702","
                    <div class=""stimulus-container"">
                        <img src=""images/causal_sequence/the_performance_causal/the_performance_causal_7.png"" class=""exp-image"">
                        <div class=""question-area"">
                            <p style=""font-size: 20px; font-weight: bold; margin: 0;"">Is there a person in this image?</p>
                        </div>
                    </div>","0","main_causal_task","7","the_performance_causal","","","",""
"","","","","","html-keyboard-response","30","146428","0.0-30.0","9B55B16496F04787B72417D2E7356689","019ce7a5-0da1-7162-90b1-214f06950ac5","019ce7a0-0965-7aa7-a556-174d32a8e773","","null","
                    <div class=""stimulus-container"">
                        <img src=""images/causal_sequence/the_performance_causal/the_performance_causal_8.png"" class=""exp-image"">
                        <div class=""question-area""></div> 
                    </div>","null","","","","","","",""
"","","","","","html-button-response","31","146944","0.0-31.0","9B55B16496F04787B72417D2E7356689","019ce7a5-0da1-7162-90b1-214f06950ac5","019ce7a0-0965-7aa7-a556-174d32a8e773","","515","
                    <div class=""stimulus-container"">
                        <img src=""images/causal_sequence/the_performance_causal/the_performance_causal_8.png"" class=""exp-image"">
                        <div class=""question-area"">
                            <p style=""font-size: 20px; font-weight: bold; margin: 0;"">Is there a person in this image?</p>
                        </div>
                    </div>","0","main_causal_task","8","the_performance_causal","","","",""
"","","","","","html-keyboard-response","32","151947","0.0-32.0","9B55B16496F04787B72417D2E7356689","019ce7a5-0da1-7162-90b1-214f06950ac5","019ce7a0-0965-7aa7-a556-174d32a8e773","","null","
                    <div class=""stimulus-container"">
                        <img src=""images/causal_sequence/the_performance_causal/the_performance_causal_9.png"" class=""exp-image"">
                        <div class=""question-area""></div> 
                    </div>","null","","","","","","",""
"","","","","","html-button-response","33","153230","0.0-33.0","9B55B16496F04787B72417D2E7356689","019ce7a5-0da1-7162-90b1-214f06950ac5","019ce7a0-0965-7aa7-a556-174d32a8e773","","1282","
                    <div class=""stimulus-container"">
                        <img src=""images/causal_sequence/the_performance_causal/the_performance_causal_9.png"" class=""exp-image"">
                        <div class=""question-area"">
                            <p style=""font-size: 20px; font-weight: bold; margin: 0;"">Is there a person in this image?</p>
                        </div>
                    </div>","0","main_causal_task","9","the_performance_causal","","","",""
"","","","","","html-keyboard-response","34","154233","0.0-34.0","9B55B16496F04787B72417D2E7356689","019ce7a5-0da1-7162-90b1-214f06950ac5","019ce7a0-0965-7aa7-a556-174d32a8e773","","null","<div style=""background-color: gray; width: 100vw; height: 100vh;""></div>","null","","","","","","",""
"","","","","","html-keyboard-response","35","159235","0.0-35.0","9B55B16496F04787B72417D2E7356689","019ce7a5-0da1-7162-90b1-214f06950ac5","019ce7a0-0965-7aa7-a556-174d32a8e773","","null","
                    <div class=""stimulus-container"">
                        <img src=""images/causal_sequence/coin_causal/coin_causal_1.png"" class=""exp-image"">
                        <div class=""question-area""></div> 
                    </div>","null","","","","","","",""
"","","","","","html-button-response","36","159874","0.0-36.0","9B55B16496F04787B72417D2E7356689","019ce7a5-0da1-7162-90b1-214f06950ac5","019ce7a0-0965-7aa7-a556-174d32a8e773","","636","
                    <div class=""stimulus-container"">
                        <img src=""images/causal_sequence/coin_causal/coin_causal_1.png"" class=""exp-image"">
                        <div class=""question-area"">
                            <p style=""font-size: 20px; font-weight: bold; margin: 0;"">Is there a person in this image?</p>
                        </div>
                    </div>","0","main_causal_task","1","coin_causal","","","",""
"","","","","","html-keyboard-response","37","164875","0.0-37.0","9B55B16496F04787B72417D2E7356689","019ce7a5-0da1-7162-90b1-214f06950ac5","019ce7a0-0965-7aa7-a556-174d32a8e773","","null","
                    <div class=""stimulus-container"">
                        <img src=""images/causal_sequence/coin_causal/coin_causal_2.png"" class=""exp-image"">
                        <div class=""question-area""></div> 
                    </div>","null","","","","","","",""
"","","","","","html-button-response","38","165333","0.0-38.0","9B55B16496F04787B72417D2E7356689","019ce7a5-0da1-7162-90b1-214f06950ac5","019ce7a0-0965-7aa7-a556-174d32a8e773","","458","
                    <div class=""stimulus-container"">
                        <img src=""images/causal_sequence/coin_causal/coin_causal_2.png"" class=""exp-image"">
                        <div class=""question-area"">
                            <p style=""font-size: 20px; font-weight: bold; margin: 0;"">Is there a person in this image?</p>
                        </div>
                    </div>","0","main_causal_task","2","coin_causal","","","",""
"","","","","","html-keyboard-response","39","170335","0.0-39.0","9B55B16496F04787B72417D2E7356689","019ce7a5-0da1-7162-90b1-214f06950ac5","019ce7a0-0965-7aa7-a556-174d32a8e773","","null","
                    <div class=""stimulus-container"">
                        <img src=""images/causal_sequence/coin_causal/coin_causal_3.png"" class=""exp-image"">
                        <div class=""question-area""></div> 
                    </div>","null","","","","","","",""
"","","","","","html-button-response","40","170745","0.0-40.0","9B55B16496F04787B72417D2E7356689","019ce7a5-0da1-7162-90b1-214f06950ac5","019ce7a0-0965-7aa7-a556-174d32a8e773","","408","
                    <div class=""stimulus-container"">
                        <img src=""images/causal_sequence/coin_causal/coin_causal_3.png"" class=""exp-image"">
                        <div class=""question-area"">
                            <p style=""font-size: 20px; font-weight: bold; margin: 0;"">Is there a person in this image?</p>
                        </div>
                    </div>","0","main_causal_task","3","coin_causal","","","",""
"","","","","","html-keyboard-response","41","175747","0.0-41.0","9B55B16496F04787B72417D2E7356689","019ce7a5-0da1-7162-90b1-214f06950ac5","019ce7a0-0965-7aa7-a556-174d32a8e773","","null","
                    <div class=""stimulus-container"">
                        <img src=""images/causal_sequence/coin_causal/coin_causal_4.png"" class=""exp-image"">
                        <div class=""question-area""></div> 
                    </div>","null","","","","","","",""
"","","","","","html-button-response","42","176203","0.0-42.0","9B55B16496F04787B72417D2E7356689","019ce7a5-0da1-7162-90b1-214f06950ac5","019ce7a0-0965-7aa7-a556-174d32a8e773","","453","
                    <div class=""stimulus-container"">
                        <img src=""images/causal_sequence/coin_causal/coin_causal_4.png"" class=""exp-image"">
                        <div class=""question-area"">
                            <p style=""font-size: 20px; font-weight: bold; margin: 0;"">Is there a person in this image?</p>
                        </div>
                    </div>","0","main_causal_task","4","coin_causal","","","",""
"","","","","","html-keyboard-response","43","181205","0.0-43.0","9B55B16496F04787B72417D2E7356689","019ce7a5-0da1-7162-90b1-214f06950ac5","019ce7a0-0965-7aa7-a556-174d32a8e773","","null","
                    <div class=""stimulus-container"">
                        <img src=""images/causal_sequence/coin_causal/coin_causal_5.png"" class=""exp-image"">
                        <div class=""question-area""></div> 
                    </div>","null","","","","","","",""
"","","","","","html-button-response","44","181735","0.0-44.0","9B55B16496F04787B72417D2E7356689","019ce7a5-0da1-7162-90b1-214f06950ac5","019ce7a0-0965-7aa7-a556-174d32a8e773","","528","
                    <div class=""stimulus-container"">
                        <img src=""images/causal_sequence/coin_causal/coin_causal_5.png"" class=""exp-image"">
                        <div class=""question-area"">
                            <p style=""font-size: 20px; font-weight: bold; margin: 0;"">Is there a person in this image?</p>
                        </div>
                    </div>","0","main_causal_task","5","coin_causal","","","",""
"","","","","","html-keyboard-response","45","186738","0.0-45.0","9B55B16496F04787B72417D2E7356689","019ce7a5-0da1-7162-90b1-214f06950ac5","019ce7a0-0965-7aa7-a556-174d32a8e773","","null","
                    <div class=""stimulus-container"">
                        <img src=""images/causal_sequence/coin_causal/coin_causal_6.png"" class=""exp-image"">
                        <div class=""question-area""></div> 
                    </div>","null","","","","","","",""
"","","","","","html-button-response","46","187102","0.0-46.0","9B55B16496F04787B72417D2E7356689","019ce7a5-0da1-7162-90b1-214f06950ac5","019ce7a0-0965-7aa7-a556-174d32a8e773","","363","
                    <div class=""stimulus-container"">
                        <img src=""images/causal_sequence/coin_causal/coin_causal_6.png"" class=""exp-image"">
                        <div class=""question-area"">
                            <p style=""font-size: 20px; font-weight: bold; margin: 0;"">Is there a person in this image?</p>
                        </div>
                    </div>","0","main_causal_task","6","coin_causal","","","",""
"","","","","","html-keyboard-response","47","192104","0.0-47.0","9B55B16496F04787B72417D2E7356689","019ce7a5-0da1-7162-90b1-214f06950ac5","019ce7a0-0965-7aa7-a556-174d32a8e773","","null","
                    <div class=""stimulus-container"">
                        <img src=""images/causal_sequence/coin_causal/coin_causal_7.png"" class=""exp-image"">
                        <div class=""question-area""></div> 
                    </div>","null","","","","","","",""
"","","","","","html-button-response","48","192527","0.0-48.0","9B55B16496F04787B72417D2E7356689","019ce7a5-0da1-7162-90b1-214f06950ac5","019ce7a0-0965-7aa7-a556-174d32a8e773","","421","
                    <div class=""stimulus-container"">
                        <img src=""images/causal_sequence/coin_causal/coin_causal_7.png"" class=""exp-image"">
                        <div class=""question-area"">
                            <p style=""font-size: 20px; font-weight: bold; margin: 0;"">Is there a person in this image?</p>
                        </div>
                    </div>","0","main_causal_task","7","coin_causal","","","",""
"","","","","","html-keyboard-response","49","197529","0.0-49.0","9B55B16496F04787B72417D2E7356689","019ce7a5-0da1-7162-90b1-214f06950ac5","019ce7a0-0965-7aa7-a556-174d32a8e773","","null","
                    <div class=""stimulus-container"">
                        <img src=""images/causal_sequence/coin_causal/coin_causal_8.png"" class=""exp-image"">
                        <div class=""question-area""></div> 
                    </div>","null","","","","","","",""
"","","","","","html-button-response","50","197932","0.0-50.0","9B55B16496F04787B72417D2E7356689","019ce7a5-0da1-7162-90b1-214f06950ac5","019ce7a0-0965-7aa7-a556-174d32a8e773","","402","
                    <div class=""stimulus-container"">
                        <img src=""images/causal_sequence/coin_causal/coin_causal_8.png"" class=""exp-image"">
                        <div class=""question-area"">
                            <p style=""font-size: 20px; font-weight: bold; margin: 0;"">Is there a person in this image?</p>
                        </div>
                    </div>","0","main_causal_task","8","coin_causal","","","",""
"","","","","","html-keyboard-response","51","202935","0.0-51.0","9B55B16496F04787B72417D2E7356689","019ce7a5-0da1-7162-90b1-214f06950ac5","019ce7a0-0965-7aa7-a556-174d32a8e773","","null","
                    <div class=""stimulus-container"">
                        <img src=""images/causal_sequence/coin_causal/coin_causal_9.png"" class=""exp-image"">
                        <div class=""question-area""></div> 
                    </div>","null","","","","","","",""
"","","","","","html-button-response","52","203095","0.0-52.0","9B55B16496F04787B72417D2E7356689","019ce7a5-0da1-7162-90b1-214f06950ac5","019ce7a0-0965-7aa7-a556-174d32a8e773","","158","
                    <div class=""stimulus-container"">
                        <img src=""images/causal_sequence/coin_causal/coin_causal_9.png"" class=""exp-image"">
                        <div class=""question-area"">
                            <p style=""font-size: 20px; font-weight: bold; margin: 0;"">Is there a person in this image?</p>
                        </div>
                    </div>","0","main_causal_task","9","coin_causal","","","",""
"","","","","","html-keyboard-response","53","204096","0.0-53.0","9B55B16496F04787B72417D2E7356689","019ce7a5-0da1-7162-90b1-214f06950ac5","019ce7a0-0965-7aa7-a556-174d32a8e773","","null","<div style=""background-color: gray; width: 100vw; height: 100vh;""></div>","null","","","","","","",""
"","","","","","html-keyboard-response","54","209099","0.0-54.0","9B55B16496F04787B72417D2E7356689","019ce7a5-0da1-7162-90b1-214f06950ac5","019ce7a0-0965-7aa7-a556-174d32a8e773","","null","
                    <div class=""stimulus-container"">
                        <img src=""images/causal_sequence/dog_causal/dog_causal_1.png"" class=""exp-image"">
                        <div class=""question-area""></div> 
                    </div>","null","","","","","","",""
"","","","","","html-button-response","55","209509","0.0-55.0","9B55B16496F04787B72417D2E7356689","019ce7a5-0da1-7162-90b1-214f06950ac5","019ce7a0-0965-7aa7-a556-174d32a8e773","","408","
                    <div class=""stimulus-container"">
                        <img src=""images/causal_sequence/dog_causal/dog_causal_1.png"" class=""exp-image"">
                        <div class=""question-area"">
                            <p style=""font-size: 20px; font-weight: bold; margin: 0;"">Is there a person in this image?</p>
                        </div>
                    </div>","0","main_causal_task","1","dog_causal","","","",""
"","","","","","html-keyboard-response","56","214511","0.0-56.0","9B55B16496F04787B72417D2E7356689","019ce7a5-0da1-7162-90b1-214f06950ac5","019ce7a0-0965-7aa7-a556-174d32a8e773","","null","
                    <div class=""stimulus-container"">
                        <img src=""images/causal_sequence/dog_causal/dog_causal_2.png"" class=""exp-image"">
                        <div class=""question-area""></div> 
                    </div>","null","","","","","","",""
"","","","","","html-button-response","57","214938","0.0-57.0","9B55B16496F04787B72417D2E7356689","019ce7a5-0da1-7162-90b1-214f06950ac5","019ce7a0-0965-7aa7-a556-174d32a8e773","","426","
                    <div class=""stimulus-container"">
                        <img src=""images/causal_sequence/dog_causal/dog_causal_2.png"" class=""exp-image"">
                        <div class=""question-area"">
                            <p style=""font-size: 20px; font-weight: bold; margin: 0;"">Is there a person in this image?</p>
                        </div>
                    </div>","0","main_causal_task","2","dog_causal","","","",""
"","","","","","html-keyboard-response","58","219941","0.0-58.0","9B55B16496F04787B72417D2E7356689","019ce7a5-0da1-7162-90b1-214f06950ac5","019ce7a0-0965-7aa7-a556-174d32a8e773","","null","
                    <div class=""stimulus-container"">
                        <img src=""images/causal_sequence/dog_causal/dog_causal_3.png"" class=""exp-image"">
                        <div class=""question-area""></div> 
                    </div>","null","","","","","","",""
"","","","","","html-button-response","59","220535","0.0-59.0","9B55B16496F04787B72417D2E7356689","019ce7a5-0da1-7162-90b1-214f06950ac5","019ce7a0-0965-7aa7-a556-174d32a8e773","","593","
                    <div class=""stimulus-container"">
                        <img src=""images/causal_sequence/dog_causal/dog_causal_3.png"" class=""exp-image"">
                        <div class=""question-area"">
                            <p style=""font-size: 20px; font-weight: bold; margin: 0;"">Is there a person in this image?</p>
                        </div>
                    </div>","0","main_causal_task","3","dog_causal","","","",""
"","","","","","html-keyboard-response","60","225537","0.0-60.0","9B55B16496F04787B72417D2E7356689","019ce7a5-0da1-7162-90b1-214f06950ac5","019ce7a0-0965-7aa7-a556-174d32a8e773","","null","
                    <div class=""stimulus-container"">
                        <img src=""images/causal_sequence/dog_causal/dog_causal_4.png"" class=""exp-image"">
                        <div class=""question-area""></div> 
                    </div>","null","","","","","","",""
"","","","","","html-button-response","61","226058","0.0-61.0","9B55B16496F04787B72417D2E7356689","019ce7a5-0da1-7162-90b1-214f06950ac5","019ce7a0-0965-7aa7-a556-174d32a8e773","","519","
                    <div class=""stimulus-container"">
                        <img src=""images/causal_sequence/dog_causal/dog_causal_4.png"" class=""exp-image"">
                        <div class=""question-area"">
                            <p style=""font-size: 20px; font-weight: bold; margin: 0;"">Is there a person in this image?</p>
                        </div>
                    </div>","0","main_causal_task","4","dog_causal","","","",""
"","","","","","html-keyboard-response","62","231059","0.0-62.0","9B55B16496F04787B72417D2E7356689","019ce7a5-0da1-7162-90b1-214f06950ac5","019ce7a0-0965-7aa7-a556-174d32a8e773","","null","
                    <div class=""stimulus-container"">
                        <img src=""images/causal_sequence/dog_causal/dog_causal_5.png"" class=""exp-image"">
                        <div class=""question-area""></div> 
                    </div>","null","","","","","","",""
"","","","","","html-button-response","63","231478","0.0-63.0","9B55B16496F04787B72417D2E7356689","019ce7a5-0da1-7162-90b1-214f06950ac5","019ce7a0-0965-7aa7-a556-174d32a8e773","","417","
                    <div class=""stimulus-container"">
                        <img src=""images/causal_sequence/dog_causal/dog_causal_5.png"" class=""exp-image"">
                        <div class=""question-area"">
                            <p style=""font-size: 20px; font-weight: bold; margin: 0;"">Is there a person in this image?</p>
                        </div>
                    </div>","0","main_causal_task","5","dog_causal","","","",""
"","","","","","html-keyboard-response","64","236481","0.0-64.0","9B55B16496F04787B72417D2E7356689","019ce7a5-0da1-7162-90b1-214f06950ac5","019ce7a0-0965-7aa7-a556-174d32a8e773","","null","
                    <div class=""stimulus-container"">
                        <img src=""images/causal_sequence/dog_causal/dog_causal_6.png"" class=""exp-image"">
                        <div class=""question-area""></div> 
                    </div>","null","","","","","","",""
"","","","","","html-button-response","65","236948","0.0-65.0","9B55B16496F04787B72417D2E7356689","019ce7a5-0da1-7162-90b1-214f06950ac5","019ce7a0-0965-7aa7-a556-174d32a8e773","","465","
                    <div class=""stimulus-container"">
                        <img src=""images/causal_sequence/dog_causal/dog_causal_6.png"" class=""exp-image"">
                        <div class=""question-area"">
                            <p style=""font-size: 20px; font-weight: bold; margin: 0;"">Is there a person in this image?</p>
                        </div>
                    </div>","0","main_causal_task","6","dog_causal","","","",""
"","","","","","html-keyboard-response","66","241951","0.0-66.0","9B55B16496F04787B72417D2E7356689","019ce7a5-0da1-7162-90b1-214f06950ac5","019ce7a0-0965-7aa7-a556-174d32a8e773","","null","
                    <div class=""stimulus-container"">
                        <img src=""images/causal_sequence/dog_causal/dog_causal_7.png"" class=""exp-image"">
                        <div class=""question-area""></div> 
                    </div>","null","","","","","","",""
"","","","","","html-button-response","67","242336","0.0-67.0","9B55B16496F04787B72417D2E7356689","019ce7a5-0da1-7162-90b1-214f06950ac5","019ce7a0-0965-7aa7-a556-174d32a8e773","","383","
                    <div class=""stimulus-container"">
                        <img src=""images/causal_sequence/dog_causal/dog_causal_7.png"" class=""exp-image"">
                        <div class=""question-area"">
                            <p style=""font-size: 20px; font-weight: bold; margin: 0;"">Is there a person in this image?</p>
                        </div>
                    </div>","0","main_causal_task","7","dog_causal","","","",""
"","","","","","html-keyboard-response","68","247338","0.0-68.0","9B55B16496F04787B72417D2E7356689","019ce7a5-0da1-7162-90b1-214f06950ac5","019ce7a0-0965-7aa7-a556-174d32a8e773","","null","
                    <div class=""stimulus-container"">
                        <img src=""images/causal_sequence/dog_causal/dog_causal_8.png"" class=""exp-image"">
                        <div class=""question-area""></div> 
                    </div>","null","","","","","","",""
"","","","","","html-button-response","69","247749","0.0-69.0","9B55B16496F04787B72417D2E7356689","019ce7a5-0da1-7162-90b1-214f06950ac5","019ce7a0-0965-7aa7-a556-174d32a8e773","","409","
                    <div class=""stimulus-container"">
                        <img src=""images/causal_sequence/dog_causal/dog_causal_8.png"" class=""exp-image"">
                        <div class=""question-area"">
                            <p style=""font-size: 20px; font-weight: bold; margin: 0;"">Is there a person in this image?</p>
                        </div>
                    </div>","0","main_causal_task","8","dog_causal","","","",""
"","","","","","html-keyboard-response","70","252752","0.0-70.0","9B55B16496F04787B72417D2E7356689","019ce7a5-0da1-7162-90b1-214f06950ac5","019ce7a0-0965-7aa7-a556-174d32a8e773","","null","
                    <div class=""stimulus-container"">
                        <img src=""images/causal_sequence/dog_causal/dog_causal_9.png"" class=""exp-image"">
                        <div class=""question-area""></div> 
                    </div>","null","","","","","","",""
"","","","","","html-button-response","71","253149","0.0-71.0","9B55B16496F04787B72417D2E7356689","019ce7a5-0da1-7162-90b1-214f06950ac5","019ce7a0-0965-7aa7-a556-174d32a8e773","","396","
                    <div class=""stimulus-container"">
                        <img src=""images/causal_sequence/dog_causal/dog_causal_9.png"" class=""exp-image"">
                        <div class=""question-area"">
                            <p style=""font-size: 20px; font-weight: bold; margin: 0;"">Is there a person in this image?</p>
                        </div>
                    </div>","0","main_causal_task","9","dog_causal","","","",""
"","","","","","html-keyboard-response","72","254151","0.0-72.0","9B55B16496F04787B72417D2E7356689","019ce7a5-0da1-7162-90b1-214f06950ac5","019ce7a0-0965-7aa7-a556-174d32a8e773","","null","<div style=""background-color: gray; width: 100vw; height: 100vh;""></div>","null","","","","","","",""
"","","","","","html-keyboard-response","73","259154","0.0-73.0","9B55B16496F04787B72417D2E7356689","019ce7a5-0da1-7162-90b1-214f06950ac5","019ce7a0-0965-7aa7-a556-174d32a8e773","","null","
                    <div class=""stimulus-container"">
                        <img src=""images/causal_sequence/museum_causal/museum_causal_1.png"" class=""exp-image"">
                        <div class=""question-area""></div> 
                    </div>","null","","","","","","",""
"","","","","","html-button-response","74","259791","0.0-74.0","9B55B16496F04787B72417D2E7356689","019ce7a5-0da1-7162-90b1-214f06950ac5","019ce7a0-0965-7aa7-a556-174d32a8e773","","636","
                    <div class=""stimulus-container"">
                        <img src=""images/causal_sequence/museum_causal/museum_causal_1.png"" class=""exp-image"">
                        <div class=""question-area"">
                            <p style=""font-size: 20px; font-weight: bold; margin: 0;"">Is there a person in this image?</p>
                        </div>
                    </div>","0","main_causal_task","1","museum_causal","","","",""
"","","","","","html-keyboard-response","75","264794","0.0-75.0","9B55B16496F04787B72417D2E7356689","019ce7a5-0da1-7162-90b1-214f06950ac5","019ce7a0-0965-7aa7-a556-174d32a8e773","","null","
                    <div class=""stimulus-container"">
                        <img src=""images/causal_sequence/museum_causal/museum_causal_2.png"" class=""exp-image"">
                        <div class=""question-area""></div> 
                    </div>","null","","","","","","",""
"","","","","","html-button-response","76","266268","0.0-76.0","9B55B16496F04787B72417D2E7356689","019ce7a5-0da1-7162-90b1-214f06950ac5","019ce7a0-0965-7aa7-a556-174d32a8e773","","1472","
                    <div class=""stimulus-container"">
                        <img src=""images/causal_sequence/museum_causal/museum_causal_2.png"" class=""exp-image"">
                        <div class=""question-area"">
                            <p style=""font-size: 20px; font-weight: bold; margin: 0;"">Is there a person in this image?</p>
                        </div>
                    </div>","0","main_causal_task","2","museum_causal","","","",""
"","","","","","html-keyboard-response","77","271270","0.0-77.0","9B55B16496F04787B72417D2E7356689","019ce7a5-0da1-7162-90b1-214f06950ac5","019ce7a0-0965-7aa7-a556-174d32a8e773","","null","
                    <div class=""stimulus-container"">
                        <img src=""images/causal_sequence/museum_causal/museum_causal_3.png"" class=""exp-image"">
                        <div class=""question-area""></div> 
                    </div>","null","","","","","","",""
"","","","","","html-button-response","78","271642","0.0-78.0","9B55B16496F04787B72417D2E7356689","019ce7a5-0da1-7162-90b1-214f06950ac5","019ce7a0-0965-7aa7-a556-174d32a8e773","","369","
                    <div class=""stimulus-container"">
                        <img src=""images/causal_sequence/museum_causal/museum_causal_3.png"" class=""exp-image"">
                        <div class=""question-area"">
                            <p style=""font-size: 20px; font-weight: bold; margin: 0;"">Is there a person in this image?</p>
                        </div>
                    </div>","0","main_causal_task","3","museum_causal","","","",""
"","","","","","html-keyboard-response","79","276644","0.0-79.0","9B55B16496F04787B72417D2E7356689","019ce7a5-0da1-7162-90b1-214f06950ac5","019ce7a0-0965-7aa7-a556-174d32a8e773","","null","
                    <div class=""stimulus-container"">
                        <img src=""images/causal_sequence/museum_causal/museum_causal_4.png"" class=""exp-image"">
                        <div class=""question-area""></div> 
                    </div>","null","","","","","","",""
"","","","","","html-button-response","80","277158","0.0-80.0","9B55B16496F04787B72417D2E7356689","019ce7a5-0da1-7162-90b1-214f06950ac5","019ce7a0-0965-7aa7-a556-174d32a8e773","","513","
                    <div class=""stimulus-container"">
                        <img src=""images/causal_sequence/museum_causal/museum_causal_4.png"" class=""exp-image"">
                        <div class=""question-area"">
                            <p style=""font-size: 20px; font-weight: bold; margin: 0;"">Is there a person in this image?</p>
                        </div>
                    </div>","1","main_causal_task","4","museum_causal","","","",""
"","","","","","html-keyboard-response","81","282160","0.0-81.0","9B55B16496F04787B72417D2E7356689","019ce7a5-0da1-7162-90b1-214f06950ac5","019ce7a0-0965-7aa7-a556-174d32a8e773","","null","
                    <div class=""stimulus-container"">
                        <img src=""images/causal_sequence/museum_causal/museum_causal_5.png"" class=""exp-image"">
                        <div class=""question-area""></div> 
                    </div>","null","","","","","","",""
"","","","","","html-button-response","82","282749","0.0-82.0","9B55B16496F04787B72417D2E7356689","019ce7a5-0da1-7162-90b1-214f06950ac5","019ce7a0-0965-7aa7-a556-174d32a8e773","","587","
                    <div class=""stimulus-container"">
                        <img src=""images/causal_sequence/museum_causal/museum_causal_5.png"" class=""exp-image"">
                        <div class=""question-area"">
                            <p style=""font-size: 20px; font-weight: bold; margin: 0;"">Is there a person in this image?</p>
                        </div>
                    </div>","0","main_causal_task","5","museum_causal","","","",""
"","","","","","html-keyboard-response","83","287751","0.0-83.0","9B55B16496F04787B72417D2E7356689","019ce7a5-0da1-7162-90b1-214f06950ac5","019ce7a0-0965-7aa7-a556-174d32a8e773","","null","
                    <div class=""stimulus-container"">
                        <img src=""images/causal_sequence/museum_causal/museum_causal_6.png"" class=""exp-image"">
                        <div class=""question-area""></div> 
                    </div>","null","","","","","","",""
"","","","","","html-button-response","84","288153","0.0-84.0","9B55B16496F04787B72417D2E7356689","019ce7a5-0da1-7162-90b1-214f06950ac5","019ce7a0-0965-7aa7-a556-174d32a8e773","","400","
                    <div class=""stimulus-container"">
                        <img src=""images/causal_sequence/museum_causal/museum_causal_6.png"" class=""exp-image"">
                        <div class=""question-area"">
                            <p style=""font-size: 20px; font-weight: bold; margin: 0;"">Is there a person in this image?</p>
                        </div>
                    </div>","0","main_causal_task","6","museum_causal","","","",""
"","","","","","html-keyboard-response","85","293156","0.0-85.0","9B55B16496F04787B72417D2E7356689","019ce7a5-0da1-7162-90b1-214f06950ac5","019ce7a0-0965-7aa7-a556-174d32a8e773","","null","
                    <div class=""stimulus-container"">
                        <img src=""images/causal_sequence/museum_causal/museum_causal_7.png"" class=""exp-image"">
                        <div class=""question-area""></div> 
                    </div>","null","","","","","","",""
"","","","","","html-button-response","86","293578","0.0-86.0","9B55B16496F04787B72417D2E7356689","019ce7a5-0da1-7162-90b1-214f06950ac5","019ce7a0-0965-7aa7-a556-174d32a8e773","","420","
                    <div class=""stimulus-container"">
                        <img src=""images/causal_sequence/museum_causal/museum_causal_7.png"" class=""exp-image"">
                        <div class=""question-area"">
                            <p style=""font-size: 20px; font-weight: bold; margin: 0;"">Is there a person in this image?</p>
                        </div>
                    </div>","1","main_causal_task","7","museum_causal","","","",""
"","","","","","html-keyboard-response","87","298581","0.0-87.0","9B55B16496F04787B72417D2E7356689","019ce7a5-0da1-7162-90b1-214f06950ac5","019ce7a0-0965-7aa7-a556-174d32a8e773","","null","
                    <div class=""stimulus-container"">
                        <img src=""images/causal_sequence/museum_causal/museum_causal_8.png"" class=""exp-image"">
                        <div class=""question-area""></div> 
                    </div>","null","","","","","","",""
"","","","","","html-button-response","88","298993","0.0-88.0","9B55B16496F04787B72417D2E7356689","019ce7a5-0da1-7162-90b1-214f06950ac5","019ce7a0-0965-7aa7-a556-174d32a8e773","","411","
                    <div class=""stimulus-container"">
                        <img src=""images/causal_sequence/museum_causal/museum_causal_8.png"" class=""exp-image"">
                        <div class=""question-area"">
                            <p style=""font-size: 20px; font-weight: bold; margin: 0;"">Is there a person in this image?</p>
                        </div>
                    </div>","0","main_causal_task","8","museum_causal","","","",""
"","","","","","html-keyboard-response","89","303996","0.0-89.0","9B55B16496F04787B72417D2E7356689","019ce7a5-0da1-7162-90b1-214f06950ac5","019ce7a0-0965-7aa7-a556-174d32a8e773","","null","
                    <div class=""stimulus-container"">
                        <img src=""images/causal_sequence/museum_causal/museum_causal_9.png"" class=""exp-image"">
                        <div class=""question-area""></div> 
                    </div>","null","","","","","","",""
"","","","","","html-button-response","90","304426","0.0-90.0","9B55B16496F04787B72417D2E7356689","019ce7a5-0da1-7162-90b1-214f06950ac5","019ce7a0-0965-7aa7-a556-174d32a8e773","","428","
                    <div class=""stimulus-container"">
                        <img src=""images/causal_sequence/museum_causal/museum_causal_9.png"" class=""exp-image"">
                        <div class=""question-area"">
                            <p style=""font-size: 20px; font-weight: bold; margin: 0;"">Is there a person in this image?</p>
                        </div>
                    </div>","1","main_causal_task","9","museum_causal","","","",""
"","","","","","html-keyboard-response","91","305428","0.0-91.0","9B55B16496F04787B72417D2E7356689","019ce7a5-0da1-7162-90b1-214f06950ac5","019ce7a0-0965-7aa7-a556-174d32a8e773","","null","<div style=""background-color: gray; width: 100vw; height: 100vh;""></div>","null","","","","","","",""
"","","","","","html-keyboard-response","92","310430","0.0-92.0","9B55B16496F04787B72417D2E7356689","019ce7a5-0da1-7162-90b1-214f06950ac5","019ce7a0-0965-7aa7-a556-174d32a8e773","","null","
                    <div class=""stimulus-container"">
                        <img src=""images/causal_sequence/package_causal/package_causal_1.png"" class=""exp-image"">
                        <div class=""question-area""></div> 
                    </div>","null","","","","","","",""
"","","","","","html-button-response","93","310782","0.0-93.0","9B55B16496F04787B72417D2E7356689","019ce7a5-0da1-7162-90b1-214f06950ac5","019ce7a0-0965-7aa7-a556-174d32a8e773","","351","
                    <div class=""stimulus-container"">
                        <img src=""images/causal_sequence/package_causal/package_causal_1.png"" class=""exp-image"">
                        <div class=""question-area"">
                            <p style=""font-size: 20px; font-weight: bold; margin: 0;"">Is there a person in this image?</p>
                        </div>
                    </div>","0","main_causal_task","1","package_causal","","","",""
"","","","","","html-keyboard-response","94","315784","0.0-94.0","9B55B16496F04787B72417D2E7356689","019ce7a5-0da1-7162-90b1-214f06950ac5","019ce7a0-0965-7aa7-a556-174d32a8e773","","null","
                    <div class=""stimulus-container"">
                        <img src=""images/causal_sequence/package_causal/package_causal_2.png"" class=""exp-image"">
                        <div class=""question-area""></div> 
                    </div>","null","","","","","","",""
"","","","","","html-button-response","95","315946","0.0-95.0","9B55B16496F04787B72417D2E7356689","019ce7a5-0da1-7162-90b1-214f06950ac5","019ce7a0-0965-7aa7-a556-174d32a8e773","","161","
                    <div class=""stimulus-container"">
                        <img src=""images/causal_sequence/package_causal/package_causal_2.png"" class=""exp-image"">
                        <div class=""question-area"">
                            <p style=""font-size: 20px; font-weight: bold; margin: 0;"">Is there a person in this image?</p>
                        </div>
                    </div>","0","main_causal_task","2","package_causal","","","",""
"","","","","","html-keyboard-response","96","320949","0.0-96.0","9B55B16496F04787B72417D2E7356689","019ce7a5-0da1-7162-90b1-214f06950ac5","019ce7a0-0965-7aa7-a556-174d32a8e773","","null","
                    <div class=""stimulus-container"">
                        <img src=""images/causal_sequence/package_causal/package_causal_3.png"" class=""exp-image"">
                        <div class=""question-area""></div> 
                    </div>","null","","","","","","",""
"","","","","","html-button-response","97","321231","0.0-97.0","9B55B16496F04787B72417D2E7356689","019ce7a5-0da1-7162-90b1-214f06950ac5","019ce7a0-0965-7aa7-a556-174d32a8e773","","280","
                    <div class=""stimulus-container"">
                        <img src=""images/causal_sequence/package_causal/package_causal_3.png"" class=""exp-image"">
                        <div class=""question-area"">
                            <p style=""font-size: 20px; font-weight: bold; margin: 0;"">Is there a person in this image?</p>
                        </div>
                    </div>","0","main_causal_task","3","package_causal","","","",""
"","","","","","html-keyboard-response","98","326234","0.0-98.0","9B55B16496F04787B72417D2E7356689","019ce7a5-0da1-7162-90b1-214f06950ac5","019ce7a0-0965-7aa7-a556-174d32a8e773","","null","
                    <div class=""stimulus-container"">
                        <img src=""images/causal_sequence/package_causal/package_causal_4.png"" class=""exp-image"">
                        <div class=""question-area""></div> 
                    </div>","null","","","","","","",""
"","","","","","html-button-response","99","326731","0.0-99.0","9B55B16496F04787B72417D2E7356689","019ce7a5-0da1-7162-90b1-214f06950ac5","019ce7a0-0965-7aa7-a556-174d32a8e773","","495","
                    <div class=""stimulus-container"">
                        <img src=""images/causal_sequence/package_causal/package_causal_4.png"" class=""exp-image"">
                        <div class=""question-area"">
                            <p style=""font-size: 20px; font-weight: bold; margin: 0;"">Is there a person in this image?</p>
                        </div>
                    </div>","1","main_causal_task","4","package_causal","","","",""
"","","","","","html-keyboard-response","100","331733","0.0-100.0","9B55B16496F04787B72417D2E7356689","019ce7a5-0da1-7162-90b1-214f06950ac5","019ce7a0-0965-7aa7-a556-174d32a8e773","","null","
                    <div class=""stimulus-container"">
                        <img src=""images/causal_sequence/package_causal/package_causal_5.png"" class=""exp-image"">
                        <div class=""question-area""></div> 
                    </div>","null","","","","","","",""
"","","","","","html-button-response","101","332122","0.0-101.0","9B55B16496F04787B72417D2E7356689","019ce7a5-0da1-7162-90b1-214f06950ac5","019ce7a0-0965-7aa7-a556-174d32a8e773","","387","
                    <div class=""stimulus-container"">
                        <img src=""images/causal_sequence/package_causal/package_causal_5.png"" class=""exp-image"">
                        <div class=""question-area"">
                            <p style=""font-size: 20px; font-weight: bold; margin: 0;"">Is there a person in this image?</p>
                        </div>
                    </div>","0","main_causal_task","5","package_causal","","","",""
"","","","","","html-keyboard-response","102","337125","0.0-102.0","9B55B16496F04787B72417D2E7356689","019ce7a5-0da1-7162-90b1-214f06950ac5","019ce7a0-0965-7aa7-a556-174d32a8e773","","null","
                    <div class=""stimulus-container"">
                        <img src=""images/causal_sequence/package_causal/package_causal_6.png"" class=""exp-image"">
                        <div class=""question-area""></div> 
                    </div>","null","","","","","","",""
"","","","","","html-button-response","103","337353","0.0-103.0","9B55B16496F04787B72417D2E7356689","019ce7a5-0da1-7162-90b1-214f06950ac5","019ce7a0-0965-7aa7-a556-174d32a8e773","","226","
                    <div class=""stimulus-container"">
                        <img src=""images/causal_sequence/package_causal/package_causal_6.png"" class=""exp-image"">
                        <div class=""question-area"">
                            <p style=""font-size: 20px; font-weight: bold; margin: 0;"">Is there a person in this image?</p>
                        </div>
                    </div>","0","main_causal_task","6","package_causal","","","",""
"","","","","","html-keyboard-response","104","342356","0.0-104.0","9B55B16496F04787B72417D2E7356689","019ce7a5-0da1-7162-90b1-214f06950ac5","019ce7a0-0965-7aa7-a556-174d32a8e773","","null","
                    <div class=""stimulus-container"">
                        <img src=""images/causal_sequence/package_causal/package_causal_7.png"" class=""exp-image"">
                        <div class=""question-area""></div> 
                    </div>","null","","","","","","",""
"","","","","","html-button-response","105","342750","0.0-105.0","9B55B16496F04787B72417D2E7356689","019ce7a5-0da1-7162-90b1-214f06950ac5","019ce7a0-0965-7aa7-a556-174d32a8e773","","392","
                    <div class=""stimulus-container"">
                        <img src=""images/causal_sequence/package_causal/package_causal_7.png"" class=""exp-image"">
                        <div class=""question-area"">
                            <p style=""font-size: 20px; font-weight: bold; margin: 0;"">Is there a person in this image?</p>
                        </div>
                    </div>","0","main_causal_task","7","package_causal","","","",""
"","","","","","html-keyboard-response","106","347753","0.0-106.0","9B55B16496F04787B72417D2E7356689","019ce7a5-0da1-7162-90b1-214f06950ac5","019ce7a0-0965-7aa7-a556-174d32a8e773","","null","
                    <div class=""stimulus-container"">
                        <img src=""images/causal_sequence/package_causal/package_causal_8.png"" class=""exp-image"">
                        <div class=""question-area""></div> 
                    </div>","null","","","","","","",""
"","","","","","html-button-response","107","348170","0.0-107.0","9B55B16496F04787B72417D2E7356689","019ce7a5-0da1-7162-90b1-214f06950ac5","019ce7a0-0965-7aa7-a556-174d32a8e773","","415","
                    <div class=""stimulus-container"">
                        <img src=""images/causal_sequence/package_causal/package_causal_8.png"" class=""exp-image"">
                        <div class=""question-area"">
                            <p style=""font-size: 20px; font-weight: bold; margin: 0;"">Is there a person in this image?</p>
                        </div>
                    </div>","0","main_causal_task","8","package_causal","","","",""
"","","","","","html-keyboard-response","108","353173","0.0-108.0","9B55B16496F04787B72417D2E7356689","019ce7a5-0da1-7162-90b1-214f06950ac5","019ce7a0-0965-7aa7-a556-174d32a8e773","","null","
                    <div class=""stimulus-container"">
                        <img src=""images/causal_sequence/package_causal/package_causal_9.png"" class=""exp-image"">
                        <div class=""question-area""></div> 
                    </div>","null","","","","","","",""
"","","","","","html-button-response","109","353506","0.0-109.0","9B55B16496F04787B72417D2E7356689","019ce7a5-0da1-7162-90b1-214f06950ac5","019ce7a0-0965-7aa7-a556-174d32a8e773","","332","
                    <div class=""stimulus-container"">
                        <img src=""images/causal_sequence/package_causal/package_causal_9.png"" class=""exp-image"">
                        <div class=""question-area"">
                            <p style=""font-size: 20px; font-weight: bold; margin: 0;"">Is there a person in this image?</p>
                        </div>
                    </div>","0","main_causal_task","9","package_causal","","","",""
"","","","","","html-keyboard-response","110","354509","0.0-110.0","9B55B16496F04787B72417D2E7356689","019ce7a5-0da1-7162-90b1-214f06950ac5","019ce7a0-0965-7aa7-a556-174d32a8e773","","null","<div style=""background-color: gray; width: 100vw; height: 100vh;""></div>","null","","","","","","",""
"","","","","","html-keyboard-response","111","359511","0.0-111.0","9B55B16496F04787B72417D2E7356689","019ce7a5-0da1-7162-90b1-214f06950ac5","019ce7a0-0965-7aa7-a556-174d32a8e773","","null","
                    <div class=""stimulus-container"">
                        <img src=""images/causal_sequence/saving_a_cat_causal/saving_a_cat_causal_1.png"" class=""exp-image"">
                        <div class=""question-area""></div> 
                    </div>","null","","","","","","",""
"","","","","","html-button-response","112","360222","0.0-112.0","9B55B16496F04787B72417D2E7356689","019ce7a5-0da1-7162-90b1-214f06950ac5","019ce7a0-0965-7aa7-a556-174d32a8e773","","709","
                    <div class=""stimulus-container"">
                        <img src=""images/causal_sequence/saving_a_cat_causal/saving_a_cat_causal_1.png"" class=""exp-image"">
                        <div class=""question-area"">
                            <p style=""font-size: 20px; font-weight: bold; margin: 0;"">Is there a person in this image?</p>
                        </div>
                    </div>","0","main_causal_task","1","saving_a_cat_causal","","","",""
"","","","","","html-keyboard-response","113","365224","0.0-113.0","9B55B16496F04787B72417D2E7356689","019ce7a5-0da1-7162-90b1-214f06950ac5","019ce7a0-0965-7aa7-a556-174d32a8e773","","null","
                    <div class=""stimulus-container"">
                        <img src=""images/causal_sequence/saving_a_cat_causal/saving_a_cat_causal_2.png"" class=""exp-image"">
                        <div class=""question-area""></div> 
                    </div>","null","","","","","","",""
"","","","","","html-button-response","114","365580","0.0-114.0","9B55B16496F04787B72417D2E7356689","019ce7a5-0da1-7162-90b1-214f06950ac5","019ce7a0-0965-7aa7-a556-174d32a8e773","","354","
                    <div class=""stimulus-container"">
                        <img src=""images/causal_sequence/saving_a_cat_causal/saving_a_cat_causal_2.png"" class=""exp-image"">
                        <div class=""question-area"">
                            <p style=""font-size: 20px; font-weight: bold; margin: 0;"">Is there a person in this image?</p>
                        </div>
                    </div>","1","main_causal_task","2","saving_a_cat_causal","","","",""
"","","","","","html-keyboard-response","115","370583","0.0-115.0","9B55B16496F04787B72417D2E7356689","019ce7a5-0da1-7162-90b1-214f06950ac5","019ce7a0-0965-7aa7-a556-174d32a8e773","","null","
                    <div class=""stimulus-container"">
                        <img src=""images/causal_sequence/saving_a_cat_causal/saving_a_cat_causal_3.png"" class=""exp-image"">
                        <div class=""question-area""></div> 
                    </div>","null","","","","","","",""
"","","","","","html-button-response","116","371139","0.0-116.0","9B55B16496F04787B72417D2E7356689","019ce7a5-0da1-7162-90b1-214f06950ac5","019ce7a0-0965-7aa7-a556-174d32a8e773","","554","
                    <div class=""stimulus-container"">
                        <img src=""images/causal_sequence/saving_a_cat_causal/saving_a_cat_causal_3.png"" class=""exp-image"">
                        <div class=""question-area"">
                            <p style=""font-size: 20px; font-weight: bold; margin: 0;"">Is there a person in this image?</p>
                        </div>
                    </div>","1","main_causal_task","3","saving_a_cat_causal","","","",""
"","","","","","html-keyboard-response","117","376141","0.0-117.0","9B55B16496F04787B72417D2E7356689","019ce7a5-0da1-7162-90b1-214f06950ac5","019ce7a0-0965-7aa7-a556-174d32a8e773","","null","
                    <div class=""stimulus-container"">
                        <img src=""images/causal_sequence/saving_a_cat_causal/saving_a_cat_causal_4.png"" class=""exp-image"">
                        <div class=""question-area""></div> 
                    </div>","null","","","","","","",""
"","","","","","html-button-response","118","376523","0.0-118.0","9B55B16496F04787B72417D2E7356689","019ce7a5-0da1-7162-90b1-214f06950ac5","019ce7a0-0965-7aa7-a556-174d32a8e773","","380","
                    <div class=""stimulus-container"">
                        <img src=""images/causal_sequence/saving_a_cat_causal/saving_a_cat_causal_4.png"" class=""exp-image"">
                        <div class=""question-area"">
                            <p style=""font-size: 20px; font-weight: bold; margin: 0;"">Is there a person in this image?</p>
                        </div>
                    </div>","0","main_causal_task","4","saving_a_cat_causal","","","",""
"","","","","","html-keyboard-response","119","381527","0.0-119.0","9B55B16496F04787B72417D2E7356689","019ce7a5-0da1-7162-90b1-214f06950ac5","019ce7a0-0965-7aa7-a556-174d32a8e773","","null","
                    <div class=""stimulus-container"">
                        <img src=""images/causal_sequence/saving_a_cat_causal/saving_a_cat_causal_5.png"" class=""exp-image"">
                        <div class=""question-area""></div> 
                    </div>","null","","","","","","",""
"","","","","","html-button-response","120","381908","0.0-120.0","9B55B16496F04787B72417D2E7356689","019ce7a5-0da1-7162-90b1-214f06950ac5","019ce7a0-0965-7aa7-a556-174d32a8e773","","380","
                    <div class=""stimulus-container"">
                        <img src=""images/causal_sequence/saving_a_cat_causal/saving_a_cat_causal_5.png"" class=""exp-image"">
                        <div class=""question-area"">
                            <p style=""font-size: 20px; font-weight: bold; margin: 0;"">Is there a person in this image?</p>
                        </div>
                    </div>","0","main_causal_task","5","saving_a_cat_causal","","","",""
"","","","","","html-keyboard-response","121","386911","0.0-121.0","9B55B16496F04787B72417D2E7356689","019ce7a5-0da1-7162-90b1-214f06950ac5","019ce7a0-0965-7aa7-a556-174d32a8e773","","null","
                    <div class=""stimulus-container"">
                        <img src=""images/causal_sequence/saving_a_cat_causal/saving_a_cat_causal_6.png"" class=""exp-image"">
                        <div class=""question-area""></div> 
                    </div>","null","","","","","","",""
"","","","","","html-button-response","122","387097","0.0-122.0","9B55B16496F04787B72417D2E7356689","019ce7a5-0da1-7162-90b1-214f06950ac5","019ce7a0-0965-7aa7-a556-174d32a8e773","","184","
                    <div class=""stimulus-container"">
                        <img src=""images/causal_sequence/saving_a_cat_causal/saving_a_cat_causal_6.png"" class=""exp-image"">
                        <div class=""question-area"">
                            <p style=""font-size: 20px; font-weight: bold; margin: 0;"">Is there a person in this image?</p>
                        </div>
                    </div>","0","main_causal_task","6","saving_a_cat_causal","","","",""
"","","","","","html-keyboard-response","123","392099","0.0-123.0","9B55B16496F04787B72417D2E7356689","019ce7a5-0da1-7162-90b1-214f06950ac5","019ce7a0-0965-7aa7-a556-174d32a8e773","","null","
                    <div class=""stimulus-container"">
                        <img src=""images/causal_sequence/saving_a_cat_causal/saving_a_cat_causal_7.png"" class=""exp-image"">
                        <div class=""question-area""></div> 
                    </div>","null","","","","","","",""
"","","","","","html-button-response","124","393266","0.0-124.0","9B55B16496F04787B72417D2E7356689","019ce7a5-0da1-7162-90b1-214f06950ac5","019ce7a0-0965-7aa7-a556-174d32a8e773","","1166","
                    <div class=""stimulus-container"">
                        <img src=""images/causal_sequence/saving_a_cat_causal/saving_a_cat_causal_7.png"" class=""exp-image"">
                        <div class=""question-area"">
                            <p style=""font-size: 20px; font-weight: bold; margin: 0;"">Is there a person in this image?</p>
                        </div>
                    </div>","0","main_causal_task","7","saving_a_cat_causal","","","",""
"","","","","","html-keyboard-response","125","398269","0.0-125.0","9B55B16496F04787B72417D2E7356689","019ce7a5-0da1-7162-90b1-214f06950ac5","019ce7a0-0965-7aa7-a556-174d32a8e773","","null","
                    <div class=""stimulus-container"">
                        <img src=""images/causal_sequence/saving_a_cat_causal/saving_a_cat_causal_8.png"" class=""exp-image"">
                        <div class=""question-area""></div> 
                    </div>","null","","","","","","",""
"","","","","","html-button-response","126","398680","0.0-126.0","9B55B16496F04787B72417D2E7356689","019ce7a5-0da1-7162-90b1-214f06950ac5","019ce7a0-0965-7aa7-a556-174d32a8e773","","408","
                    <div class=""stimulus-container"">
                        <img src=""images/causal_sequence/saving_a_cat_causal/saving_a_cat_causal_8.png"" class=""exp-image"">
                        <div class=""question-area"">
                            <p style=""font-size: 20px; font-weight: bold; margin: 0;"">Is there a person in this image?</p>
                        </div>
                    </div>","0","main_causal_task","8","saving_a_cat_causal","","","",""
"","","","","","html-keyboard-response","127","403682","0.0-127.0","9B55B16496F04787B72417D2E7356689","019ce7a5-0da1-7162-90b1-214f06950ac5","019ce7a0-0965-7aa7-a556-174d32a8e773","","null","
                    <div class=""stimulus-container"">
                        <img src=""images/causal_sequence/saving_a_cat_causal/saving_a_cat_causal_9.png"" class=""exp-image"">
                        <div class=""question-area""></div> 
                    </div>","null","","","","","","",""
"","","","","","html-button-response","128","403787","0.0-128.0","9B55B16496F04787B72417D2E7356689","019ce7a5-0da1-7162-90b1-214f06950ac5","019ce7a0-0965-7aa7-a556-174d32a8e773","","104","
                    <div class=""stimulus-container"">
                        <img src=""images/causal_sequence/saving_a_cat_causal/saving_a_cat_causal_9.png"" class=""exp-image"">
                        <div class=""question-area"">
                            <p style=""font-size: 20px; font-weight: bold; margin: 0;"">Is there a person in this image?</p>
                        </div>
                    </div>","0","main_causal_task","9","saving_a_cat_causal","","","",""
"","","","","","instructions","129","405824","0.0-129.0","9B55B16496F04787B72417D2E7356689","019ce7a5-0da1-7162-90b1-214f06950ac5","019ce7a0-0965-7aa7-a556-174d32a8e773","[{""page_index"":0,""viewing_time"":2036}]","2036","","","","","","","","",""
"","","","","","instructions","130","411102","0.0-130.0","9B55B16496F04787B72417D2E7356689","019ce7a5-0da1-7162-90b1-214f06950ac5","019ce7a0-0965-7aa7-a556-174d32a8e773","[{""page_index"":0,""viewing_time"":5278}]","5278","","","","","","","","",""
"","","","","","html-keyboard-response","131","412104","0.0-131.0","9B55B16496F04787B72417D2E7356689","019ce7a5-0da1-7162-90b1-214f06950ac5","019ce7a0-0965-7aa7-a556-174d32a8e773","","null","
        <div class=""stimulus-container"" style=""display: flex; align-items: center; justify-content: center; gap: 30px;"">
            <img src=""images/instructions/movie_1.png"" class=""exp-image"">
            <div style=""font-size: 40px; font-weight: bold; color: green; border: 5px solid green; padding: 25px; border-radius: 15px; background-color: #f0fff0;"">
                WORTH<br>$1
            </div>
        </div>
        <div class=""question-area""></div>","null","","","","","","",""
"","","","","","html-button-response","132","413838","0.0-132.0","9B55B16496F04787B72417D2E7356689","019ce7a5-0da1-7162-90b1-214f06950ac5","019ce7a0-0965-7aa7-a556-174d32a8e773","","1732","
        <div class=""stimulus-container"" style=""display: flex; align-items: center; justify-content: center; gap: 30px;"">
            <img src=""images/instructions/movie_1.png"" class=""exp-image"">
            <div style=""font-size: 40px; font-weight: bold; color: green; border: 5px solid green; padding: 25px; border-radius: 15px; background-color: #f0fff0;"">
                WORTH<br>$1
            </div>
        </div>
        <div class=""question-area"">
            <p style=""font-size: 20px; font-weight: bold; margin: 0;"">Was there a person in this image?</p>
        </div>","0","","","","","","",""
"","","","","","instructions","133","416224","0.0-133.0","9B55B16496F04787B72417D2E7356689","019ce7a5-0da1-7162-90b1-214f06950ac5","019ce7a0-0965-7aa7-a556-174d32a8e773","[{""page_index"":0,""viewing_time"":2385}]","2385","","","","","","","","",""
"","","","","","html-keyboard-response","134","426227","0.0-134.0","9B55B16496F04787B72417D2E7356689","019ce7a5-0da1-7162-90b1-214f06950ac5","019ce7a0-0965-7aa7-a556-174d32a8e773","","null","
            <div class=""stimulus-container"" style=""display: flex; align-items: center; justify-content: center; gap: 30px;"">
                <img src=""images/causal_sequence/package_causal/package_causal_6.png"" class=""exp-image"">
                <div style=""font-size: 40px; font-weight: bold; color: green; border: 5px solid green; padding: 25px; border-radius: 15px; background-color: #f0fff0;"">
                    WORTH<br>$1
                </div>
            </div>
            <div class=""question-area""></div>","null","","","","","","",""
"","","","","","html-button-response","135","427309","0.0-135.0","9B55B16496F04787B72417D2E7356689","019ce7a5-0da1-7162-90b1-214f06950ac5","019ce7a0-0965-7aa7-a556-174d32a8e773","","1080","
            <div class=""stimulus-container"" style=""display: flex; align-items: center; justify-content: center; gap: 30px;"">
                <img src=""images/causal_sequence/package_causal/package_causal_6.png"" class=""exp-image"">
                <div style=""font-size: 40px; font-weight: bold; color: green; border: 5px solid green; padding: 25px; border-radius: 15px; background-color: #f0fff0;"">
                    WORTH<br>$1
                </div>
            </div>
            <div class=""question-area"">
                <p style=""font-size: 20px; font-weight: bold; margin: 0;"">Was there a person in this image?</p>
            </div>","0","part2_value_learning","","package_causal","6","","",""
"","","","","","html-keyboard-response","136","437311","0.0-136.0","9B55B16496F04787B72417D2E7356689","019ce7a5-0da1-7162-90b1-214f06950ac5","019ce7a0-0965-7aa7-a556-174d32a8e773","","null","
            <div class=""stimulus-container"" style=""display: flex; align-items: center; justify-content: center; gap: 30px;"">
                <img src=""images/causal_sequence/museum_causal/museum_causal_6.png"" class=""exp-image"">
                <div style=""font-size: 40px; font-weight: bold; color: green; border: 5px solid green; padding: 25px; border-radius: 15px; background-color: #f0fff0;"">
                    WORTH<br>$1
                </div>
            </div>
            <div class=""question-area""></div>","null","","","","","","",""
"","","","","","html-button-response","137","438142","0.0-137.0","9B55B16496F04787B72417D2E7356689","019ce7a5-0da1-7162-90b1-214f06950ac5","019ce7a0-0965-7aa7-a556-174d32a8e773","","831","
            <div class=""stimulus-container"" style=""display: flex; align-items: center; justify-content: center; gap: 30px;"">
                <img src=""images/causal_sequence/museum_causal/museum_causal_6.png"" class=""exp-image"">
                <div style=""font-size: 40px; font-weight: bold; color: green; border: 5px solid green; padding: 25px; border-radius: 15px; background-color: #f0fff0;"">
                    WORTH<br>$1
                </div>
            </div>
            <div class=""question-area"">
                <p style=""font-size: 20px; font-weight: bold; margin: 0;"">Was there a person in this image?</p>
            </div>","0","part2_value_learning","","museum_causal","6","","",""
"","","","","","html-keyboard-response","138","448144","0.0-138.0","9B55B16496F04787B72417D2E7356689","019ce7a5-0da1-7162-90b1-214f06950ac5","019ce7a0-0965-7aa7-a556-174d32a8e773","","null","
            <div class=""stimulus-container"" style=""display: flex; align-items: center; justify-content: center; gap: 30px;"">
                <img src=""images/causal_sequence/the_performance_causal/the_performance_causal_7.png"" class=""exp-image"">
                <div style=""font-size: 40px; font-weight: bold; color: green; border: 5px solid green; padding: 25px; border-radius: 15px; background-color: #f0fff0;"">
                    WORTH<br>$1
                </div>
            </div>
            <div class=""question-area""></div>","null","","","","","","",""
"","","","","","html-button-response","139","448700","0.0-139.0","9B55B16496F04787B72417D2E7356689","019ce7a5-0da1-7162-90b1-214f06950ac5","019ce7a0-0965-7aa7-a556-174d32a8e773","","555","
            <div class=""stimulus-container"" style=""display: flex; align-items: center; justify-content: center; gap: 30px;"">
                <img src=""images/causal_sequence/the_performance_causal/the_performance_causal_7.png"" class=""exp-image"">
                <div style=""font-size: 40px; font-weight: bold; color: green; border: 5px solid green; padding: 25px; border-radius: 15px; background-color: #f0fff0;"">
                    WORTH<br>$1
                </div>
            </div>
            <div class=""question-area"">
                <p style=""font-size: 20px; font-weight: bold; margin: 0;"">Was there a person in this image?</p>
            </div>","0","part2_value_learning","","the_performance_causal","7","","",""
"","","","","","html-keyboard-response","140","458703","0.0-140.0","9B55B16496F04787B72417D2E7356689","019ce7a5-0da1-7162-90b1-214f06950ac5","019ce7a0-0965-7aa7-a556-174d32a8e773","","null","
            <div class=""stimulus-container"" style=""display: flex; align-items: center; justify-content: center; gap: 30px;"">
                <img src=""images/causal_sequence/dog_causal/dog_causal_3.png"" class=""exp-image"">
                <div style=""font-size: 40px; font-weight: bold; color: green; border: 5px solid green; padding: 25px; border-radius: 15px; background-color: #f0fff0;"">
                    WORTH<br>$1
                </div>
            </div>
            <div class=""question-area""></div>","null","","","","","","",""
"","","","","","html-button-response","141","459216","0.0-141.0","9B55B16496F04787B72417D2E7356689","019ce7a5-0da1-7162-90b1-214f06950ac5","019ce7a0-0965-7aa7-a556-174d32a8e773","","511","
            <div class=""stimulus-container"" style=""display: flex; align-items: center; justify-content: center; gap: 30px;"">
                <img src=""images/causal_sequence/dog_causal/dog_causal_3.png"" class=""exp-image"">
                <div style=""font-size: 40px; font-weight: bold; color: green; border: 5px solid green; padding: 25px; border-radius: 15px; background-color: #f0fff0;"">
                    WORTH<br>$1
                </div>
            </div>
            <div class=""question-area"">
                <p style=""font-size: 20px; font-weight: bold; margin: 0;"">Was there a person in this image?</p>
            </div>","0","part2_value_learning","","dog_causal","3","","",""
"","","","","","html-keyboard-response","142","469219","0.0-142.0","9B55B16496F04787B72417D2E7356689","019ce7a5-0da1-7162-90b1-214f06950ac5","019ce7a0-0965-7aa7-a556-174d32a8e773","","null","
            <div class=""stimulus-container"" style=""display: flex; align-items: center; justify-content: center; gap: 30px;"">
                <img src=""images/causal_sequence/saving_a_cat_causal/saving_a_cat_causal_6.png"" class=""exp-image"">
                <div style=""font-size: 40px; font-weight: bold; color: green; border: 5px solid green; padding: 25px; border-radius: 15px; background-color: #f0fff0;"">
                    WORTH<br>$1
                </div>
            </div>
            <div class=""question-area""></div>","null","","","","","","",""
"","","","","","html-button-response","143","469931","0.0-143.0","9B55B16496F04787B72417D2E7356689","019ce7a5-0da1-7162-90b1-214f06950ac5","019ce7a0-0965-7aa7-a556-174d32a8e773","","710","
            <div class=""stimulus-container"" style=""display: flex; align-items: center; justify-content: center; gap: 30px;"">
                <img src=""images/causal_sequence/saving_a_cat_causal/saving_a_cat_causal_6.png"" class=""exp-image"">
                <div style=""font-size: 40px; font-weight: bold; color: green; border: 5px solid green; padding: 25px; border-radius: 15px; background-color: #f0fff0;"">
                    WORTH<br>$1
                </div>
            </div>
            <div class=""question-area"">
                <p style=""font-size: 20px; font-weight: bold; margin: 0;"">Was there a person in this image?</p>
            </div>","0","part2_value_learning","","saving_a_cat_causal","6","","",""
"","","","","","html-keyboard-response","144","479934","0.0-144.0","9B55B16496F04787B72417D2E7356689","019ce7a5-0da1-7162-90b1-214f06950ac5","019ce7a0-0965-7aa7-a556-174d32a8e773","","null","
            <div class=""stimulus-container"" style=""display: flex; align-items: center; justify-content: center; gap: 30px;"">
                <img src=""images/causal_sequence/coin_causal/coin_causal_4.png"" class=""exp-image"">
                <div style=""font-size: 40px; font-weight: bold; color: green; border: 5px solid green; padding: 25px; border-radius: 15px; background-color: #f0fff0;"">
                    WORTH<br>$1
                </div>
            </div>
            <div class=""question-area""></div>","null","","","","","","",""
"","","","","","html-button-response","145","480604","0.0-145.0","9B55B16496F04787B72417D2E7356689","019ce7a5-0da1-7162-90b1-214f06950ac5","019ce7a0-0965-7aa7-a556-174d32a8e773","","668","
            <div class=""stimulus-container"" style=""display: flex; align-items: center; justify-content: center; gap: 30px;"">
                <img src=""images/causal_sequence/coin_causal/coin_causal_4.png"" class=""exp-image"">
                <div style=""font-size: 40px; font-weight: bold; color: green; border: 5px solid green; padding: 25px; border-radius: 15px; background-color: #f0fff0;"">
                    WORTH<br>$1
                </div>
            </div>
            <div class=""question-area"">
                <p style=""font-size: 20px; font-weight: bold; margin: 0;"">Was there a person in this image?</p>
            </div>","0","part2_value_learning","","coin_causal","4","","",""
"","","","","","instructions","146","482243","0.0-146.0","9B55B16496F04787B72417D2E7356689","019ce7a5-0da1-7162-90b1-214f06950ac5","019ce7a0-0965-7aa7-a556-174d32a8e773","[{""page_index"":0,""viewing_time"":1637}]","1638","","","","","","","","",""
"","","","","","instructions","147","483570","0.0-147.0","9B55B16496F04787B72417D2E7356689","019ce7a5-0da1-7162-90b1-214f06950ac5","019ce7a0-0965-7aa7-a556-174d32a8e773","[{""page_index"":0,""viewing_time"":1326}]","1327","","","","","","","","",""
"","","","","","html-keyboard-response","148","493573","0.0-148.0-0.0","9B55B16496F04787B72417D2E7356689","019ce7a5-0da1-7162-90b1-214f06950ac5","019ce7a0-0965-7aa7-a556-174d32a8e773","","null","
                        <div style=""font-family: Arial; margin-bottom: 20px;""><h3>Which image is more valuable?</h3></div>
                        <div class=""stimulus-container"" style=""display: flex; width: 1100px; justify-content: center; gap: 50px;"">
                            <img src=""images/causal_sequence/dog_causal/dog_causal_1.png"" class=""exp-image"">
                            <img src=""images/causal_sequence/dog_causal/dog_causal_5.png"" class=""exp-image"">
                        </div>","null","","","","","","",""
"","","","","","html-button-response","149","494938","0.0-148.0-1.0","9B55B16496F04787B72417D2E7356689","019ce7a5-0da1-7162-90b1-214f06950ac5","019ce7a0-0965-7aa7-a556-174d32a8e773","","1363","
                        <div style=""font-family: Arial; margin-bottom: 20px;""><h3>Which image is more valuable?</h3></div>
                        <div class=""stimulus-container"" style=""display: flex; width: 1100px; justify-content: center; gap: 50px;"">
                            <img src=""images/causal_sequence/dog_causal/dog_causal_1.png"" class=""exp-image"">
                            <img src=""images/causal_sequence/dog_causal/dog_causal_5.png"" class=""exp-image"">
                        </div>","0","part3_final_choice","","dog_causal","","3","1","-2"
"","","","","","html-keyboard-response","150","504942","0.0-149.0-0.0","9B55B16496F04787B72417D2E7356689","019ce7a5-0da1-7162-90b1-214f06950ac5","019ce7a0-0965-7aa7-a556-174d32a8e773","","null","
                        <div style=""font-family: Arial; margin-bottom: 20px;""><h3>Which image is more valuable?</h3></div>
                        <div class=""stimulus-container"" style=""display: flex; width: 1100px; justify-content: center; gap: 50px;"">
                            <img src=""images/causal_sequence/coin_causal/coin_causal_6.png"" class=""exp-image"">
                            <img src=""images/causal_sequence/coin_causal/coin_causal_2.png"" class=""exp-image"">
                        </div>","null","","","","","","",""
"","","","","","html-button-response","151","505720","0.0-149.0-1.0","9B55B16496F04787B72417D2E7356689","019ce7a5-0da1-7162-90b1-214f06950ac5","019ce7a0-0965-7aa7-a556-174d32a8e773","","776","
                        <div style=""font-family: Arial; margin-bottom: 20px;""><h3>Which image is more valuable?</h3></div>
                        <div class=""stimulus-container"" style=""display: flex; width: 1100px; justify-content: center; gap: 50px;"">
                            <img src=""images/causal_sequence/coin_causal/coin_causal_6.png"" class=""exp-image"">
                            <img src=""images/causal_sequence/coin_causal/coin_causal_2.png"" class=""exp-image"">
                        </div>","0","part3_final_choice","","coin_causal","","4","6","2"
"","","","","","html-keyboard-response","152","515723","0.0-150.0-0.0","9B55B16496F04787B72417D2E7356689","019ce7a5-0da1-7162-90b1-214f06950ac5","019ce7a0-0965-7aa7-a556-174d32a8e773","","null","
                        <div style=""font-family: Arial; margin-bottom: 20px;""><h3>Which image is more valuable?</h3></div>
                        <div class=""stimulus-container"" style=""display: flex; width: 1100px; justify-content: center; gap: 50px;"">
                            <img src=""images/causal_sequence/the_performance_causal/the_performance_causal_5.png"" class=""exp-image"">
                            <img src=""images/causal_sequence/the_performance_causal/the_performance_causal_9.png"" class=""exp-image"">
                        </div>","null","","","","","","",""
"","","","","","html-button-response","153","516519","0.0-150.0-1.0","9B55B16496F04787B72417D2E7356689","019ce7a5-0da1-7162-90b1-214f06950ac5","019ce7a0-0965-7aa7-a556-174d32a8e773","","793","
                        <div style=""font-family: Arial; margin-bottom: 20px;""><h3>Which image is more valuable?</h3></div>
                        <div class=""stimulus-container"" style=""display: flex; width: 1100px; justify-content: center; gap: 50px;"">
                            <img src=""images/causal_sequence/the_performance_causal/the_performance_causal_5.png"" class=""exp-image"">
                            <img src=""images/causal_sequence/the_performance_causal/the_performance_causal_9.png"" class=""exp-image"">
                        </div>","0","part3_final_choice","","the_performance_causal","","7","5","-2"
"","","","","","html-keyboard-response","154","526521","0.0-151.0-0.0","9B55B16496F04787B72417D2E7356689","019ce7a5-0da1-7162-90b1-214f06950ac5","019ce7a0-0965-7aa7-a556-174d32a8e773","","null","
                        <div style=""font-family: Arial; margin-bottom: 20px;""><h3>Which image is more valuable?</h3></div>
                        <div class=""stimulus-container"" style=""display: flex; width: 1100px; justify-content: center; gap: 50px;"">
                            <img src=""images/causal_sequence/package_causal/package_causal_4.png"" class=""exp-image"">
                            <img src=""images/causal_sequence/package_causal/package_causal_8.png"" class=""exp-image"">
                        </div>","null","","","","","","",""
"","","","","","html-button-response","155","527250","0.0-151.0-1.0","9B55B16496F04787B72417D2E7356689","019ce7a5-0da1-7162-90b1-214f06950ac5","019ce7a0-0965-7aa7-a556-174d32a8e773","","726","
                        <div style=""font-family: Arial; margin-bottom: 20px;""><h3>Which image is more valuable?</h3></div>
                        <div class=""stimulus-container"" style=""display: flex; width: 1100px; justify-content: center; gap: 50px;"">
                            <img src=""images/causal_sequence/package_causal/package_causal_4.png"" class=""exp-image"">
                            <img src=""images/causal_sequence/package_causal/package_causal_8.png"" class=""exp-image"">
                        </div>","1","part3_final_choice","","package_causal","","6","8","2"
"","","","","","html-keyboard-response","156","537252","0.0-152.0-0.0","9B55B16496F04787B72417D2E7356689","019ce7a5-0da1-7162-90b1-214f06950ac5","019ce7a0-0965-7aa7-a556-174d32a8e773","","null","
                        <div style=""font-family: Arial; margin-bottom: 20px;""><h3>Which image is more valuable?</h3></div>
                        <div class=""stimulus-container"" style=""display: flex; width: 1100px; justify-content: center; gap: 50px;"">
                            <img src=""images/causal_sequence/museum_causal/museum_causal_8.png"" class=""exp-image"">
                            <img src=""images/causal_sequence/museum_causal/museum_causal_4.png"" class=""exp-image"">
                        </div>","null","","","","","","",""
"","","","","","html-button-response","157","537949","0.0-152.0-1.0","9B55B16496F04787B72417D2E7356689","019ce7a5-0da1-7162-90b1-214f06950ac5","019ce7a0-0965-7aa7-a556-174d32a8e773","","694","
                        <div style=""font-family: Arial; margin-bottom: 20px;""><h3>Which image is more valuable?</h3></div>
                        <div class=""stimulus-container"" style=""display: flex; width: 1100px; justify-content: center; gap: 50px;"">
                            <img src=""images/causal_sequence/museum_causal/museum_causal_8.png"" class=""exp-image"">
                            <img src=""images/causal_sequence/museum_causal/museum_causal_4.png"" class=""exp-image"">
                        </div>","0","part3_final_choice","","museum_causal","","6","8","2"
"","","","","","html-keyboard-response","158","547952","0.0-153.0-0.0","9B55B16496F04787B72417D2E7356689","019ce7a5-0da1-7162-90b1-214f06950ac5","019ce7a0-0965-7aa7-a556-174d32a8e773","","null","
                        <div style=""font-family: Arial; margin-bottom: 20px;""><h3>Which image is more valuable?</h3></div>
                        <div class=""stimulus-container"" style=""display: flex; width: 1100px; justify-content: center; gap: 50px;"">
                            <img src=""images/causal_sequence/saving_a_cat_causal/saving_a_cat_causal_8.png"" class=""exp-image"">
                            <img src=""images/causal_sequence/saving_a_cat_causal/saving_a_cat_causal_4.png"" class=""exp-image"">
                        </div>","null","","","","","","",""
"","","","","","html-button-response","159","548601","0.0-153.0-1.0","9B55B16496F04787B72417D2E7356689","019ce7a5-0da1-7162-90b1-214f06950ac5","019ce7a0-0965-7aa7-a556-174d32a8e773","","645","
                        <div style=""font-family: Arial; margin-bottom: 20px;""><h3>Which image is more valuable?</h3></div>
                        <div class=""stimulus-container"" style=""display: flex; width: 1100px; justify-content: center; gap: 50px;"">
                            <img src=""images/causal_sequence/saving_a_cat_causal/saving_a_cat_causal_8.png"" class=""exp-image"">
                            <img src=""images/causal_sequence/saving_a_cat_causal/saving_a_cat_causal_4.png"" class=""exp-image"">
                        </div>","0","part3_final_choice","","saving_a_cat_causal","","6","8","2"
"","","","","","survey-text","160","589642","0.0-154.0","9B55B16496F04787B72417D2E7356689","019ce7a5-0da1-7162-90b1-214f06950ac5","019ce7a0-0965-7aa7-a556-174d32a8e773","","41035","","{""gender"":""Male"",""age"":""28"",""decision_strategy"":""There were a few where I wasn't sure which was more valuable (if either) but knew one wasn't, so would choose the other."",""consistency_check"":""I used the same logic for all pairs.""}","demographics_and_strategy","","","","","",""
"","","","","","instructions","161","597887","0.0-155.0","9B55B16496F04787B72417D2E7356689","019ce7a5-0da1-7162-90b1-214f06950ac5","019ce7a0-0965-7aa7-a556-174d32a8e773","[{""page_index"":0,""viewing_time"":8244}]","8244","","","","","","","","",""
