"success","timeout","failed_images","failed_audio","failed_video","trial_type","trial_index","time_elapsed","internal_node_id","subject_id","study_id","session_id","view_history","rt","stimulus","response","task","image_index","folder","sequence_type","valuable_image_index","reward_type","correct_choice","chosen_image_index","target_X"
"true","false","[]","[]","[]","preload","0","7254","0.0-0.0","83DBFE11DC3D4AD6A9FDB0C15C10B4CA","019cf7c8-ecdb-7875-ba23-6e2c02947cfc","019cf7bd-52b9-7f96-9138-a5960b400b31","","","","","","","","","","","","",""
"","","","","","instructions","1","23282","0.0-1.0","83DBFE11DC3D4AD6A9FDB0C15C10B4CA","019cf7c8-ecdb-7875-ba23-6e2c02947cfc","019cf7bd-52b9-7f96-9138-a5960b400b31","[{""page_index"":0,""viewing_time"":16028}]","16028","","","","","","","","","","",""
"","","","","","instructions","2","44259","0.0-2.0","83DBFE11DC3D4AD6A9FDB0C15C10B4CA","019cf7c8-ecdb-7875-ba23-6e2c02947cfc","019cf7bd-52b9-7f96-9138-a5960b400b31","[{""page_index"":0,""viewing_time"":20975}]","20976","","","","","","","","","","",""
"true","","","","","fullscreen","3","47057","0.0-3.0","83DBFE11DC3D4AD6A9FDB0C15C10B4CA","019cf7c8-ecdb-7875-ba23-6e2c02947cfc","019cf7bd-52b9-7f96-9138-a5960b400b31","","1782","","","","","","","","","","",""
"","","","","","instructions","4","53299","0.0-4.0","83DBFE11DC3D4AD6A9FDB0C15C10B4CA","019cf7c8-ecdb-7875-ba23-6e2c02947cfc","019cf7bd-52b9-7f96-9138-a5960b400b31","[{""page_index"":0,""viewing_time"":6240}]","6240","","","","","","","","","","",""
"","","","","","instructions","5","63938","0.0-5.0","83DBFE11DC3D4AD6A9FDB0C15C10B4CA","019cf7c8-ecdb-7875-ba23-6e2c02947cfc","019cf7bd-52b9-7f96-9138-a5960b400b31","[{""page_index"":0,""viewing_time"":10638}]","10638","","","","","","","","","","",""
"","","","","","html-keyboard-response","6","68333","0.0-6.0","83DBFE11DC3D4AD6A9FDB0C15C10B4CA","019cf7c8-ecdb-7875-ba23-6e2c02947cfc","019cf7bd-52b9-7f96-9138-a5960b400b31","","null","
                <div class=""stimulus-container"">
                    <img src=""images/instructions/movie_1.png"" class=""exp-image"">
                    <div class=""question-area""></div> 
                </div>","null","","","","","","","","",""
"","","","","","html-button-response","7","69978","0.0-7.0","83DBFE11DC3D4AD6A9FDB0C15C10B4CA","019cf7c8-ecdb-7875-ba23-6e2c02947cfc","019cf7bd-52b9-7f96-9138-a5960b400b31","","1644","
                <div class=""stimulus-container"">
                    <img src=""images/instructions/movie_1.png"" class=""exp-image"">
                    <div class=""question-area"">
                        <p style=""font-size: 20px; font-weight: bold; margin: 0;"">Was there a person in this image?</p>
                    </div>
                </div>","0","example_question","1","","","","","","",""
"","","","","","html-keyboard-response","8","74150","0.0-8.0","83DBFE11DC3D4AD6A9FDB0C15C10B4CA","019cf7c8-ecdb-7875-ba23-6e2c02947cfc","019cf7bd-52b9-7f96-9138-a5960b400b31","","null","
                <div class=""stimulus-container"">
                    <img src=""images/instructions/movie_2.png"" class=""exp-image"">
                    <div class=""question-area""></div> 
                </div>","null","","","","","","","","",""
"","","","","","html-button-response","9","75099","0.0-9.0","83DBFE11DC3D4AD6A9FDB0C15C10B4CA","019cf7c8-ecdb-7875-ba23-6e2c02947cfc","019cf7bd-52b9-7f96-9138-a5960b400b31","","948","
                <div class=""stimulus-container"">
                    <img src=""images/instructions/movie_2.png"" class=""exp-image"">
                    <div class=""question-area"">
                        <p style=""font-size: 20px; font-weight: bold; margin: 0;"">Was there a person in this image?</p>
                    </div>
                </div>","0","example_question","2","","","","","","",""
"","","","","","html-keyboard-response","10","79111","0.0-10.0","83DBFE11DC3D4AD6A9FDB0C15C10B4CA","019cf7c8-ecdb-7875-ba23-6e2c02947cfc","019cf7bd-52b9-7f96-9138-a5960b400b31","","null","
                <div class=""stimulus-container"">
                    <img src=""images/instructions/movie_3.png"" class=""exp-image"">
                    <div class=""question-area""></div> 
                </div>","null","","","","","","","","",""
"","","","","","html-button-response","11","80098","0.0-11.0","83DBFE11DC3D4AD6A9FDB0C15C10B4CA","019cf7c8-ecdb-7875-ba23-6e2c02947cfc","019cf7bd-52b9-7f96-9138-a5960b400b31","","987","
                <div class=""stimulus-container"">
                    <img src=""images/instructions/movie_3.png"" class=""exp-image"">
                    <div class=""question-area"">
                        <p style=""font-size: 20px; font-weight: bold; margin: 0;"">Was there a person in this image?</p>
                    </div>
                </div>","0","example_question","3","","","","","","",""
"","","","","","html-keyboard-response","12","84100","0.0-12.0","83DBFE11DC3D4AD6A9FDB0C15C10B4CA","019cf7c8-ecdb-7875-ba23-6e2c02947cfc","019cf7bd-52b9-7f96-9138-a5960b400b31","","null","
                <div class=""stimulus-container"">
                    <img src=""images/instructions/movie_4.png"" class=""exp-image"">
                    <div class=""question-area""></div> 
                </div>","null","","","","","","","","",""
"","","","","","html-button-response","13","84723","0.0-13.0","83DBFE11DC3D4AD6A9FDB0C15C10B4CA","019cf7c8-ecdb-7875-ba23-6e2c02947cfc","019cf7bd-52b9-7f96-9138-a5960b400b31","","621","
                <div class=""stimulus-container"">
                    <img src=""images/instructions/movie_4.png"" class=""exp-image"">
                    <div class=""question-area"">
                        <p style=""font-size: 20px; font-weight: bold; margin: 0;"">Was there a person in this image?</p>
                    </div>
                </div>","0","example_question","4","","","","","","",""
"","","","","","instructions","14","86794","0.0-14.0","83DBFE11DC3D4AD6A9FDB0C15C10B4CA","019cf7c8-ecdb-7875-ba23-6e2c02947cfc","019cf7bd-52b9-7f96-9138-a5960b400b31","[{""page_index"":0,""viewing_time"":2072}]","2072","","","","","","","","","","",""
"","","","","","instructions","15","97074","0.0-15.0","83DBFE11DC3D4AD6A9FDB0C15C10B4CA","019cf7c8-ecdb-7875-ba23-6e2c02947cfc","019cf7bd-52b9-7f96-9138-a5960b400b31","[{""page_index"":0,""viewing_time"":10279}]","10279","","","","","","","","","","",""
"","","","","","html-keyboard-response","16","98094","0.0-16.0","83DBFE11DC3D4AD6A9FDB0C15C10B4CA","019cf7c8-ecdb-7875-ba23-6e2c02947cfc","019cf7bd-52b9-7f96-9138-a5960b400b31","","null","<div style=""background-color: white; width: 100vw; height: 100vh;""></div>","null","","","","","","","","",""
"","","","","","html-keyboard-response","17","103102","0.0-17.0","83DBFE11DC3D4AD6A9FDB0C15C10B4CA","019cf7c8-ecdb-7875-ba23-6e2c02947cfc","019cf7bd-52b9-7f96-9138-a5960b400b31","","null","
                <div class=""stimulus-container"">
                    <img src=""images/semantic_sequence/kitchen_operations_semantic/kitchen_operations_semantic_1.png"" class=""exp-image"">
                    <div class=""question-area""></div> 
                </div>","null","","","","","","","","",""
"","","","","","html-button-response","18","104306","0.0-18.0","83DBFE11DC3D4AD6A9FDB0C15C10B4CA","019cf7c8-ecdb-7875-ba23-6e2c02947cfc","019cf7bd-52b9-7f96-9138-a5960b400b31","","1204","
                <div class=""stimulus-container"">
                    <img src=""images/semantic_sequence/kitchen_operations_semantic/kitchen_operations_semantic_1.png"" class=""exp-image"">
                    <div class=""question-area"">
                        <p style=""font-size: 20px; font-weight: bold; margin: 0;"">Is there a person in this image?</p>
                    </div>
                </div>","0","main_experiment_trial","1","kitchen_operations_semantic","semantic_sequence","","","","",""
"","","","","","html-keyboard-response","19","109406","0.0-19.0","83DBFE11DC3D4AD6A9FDB0C15C10B4CA","019cf7c8-ecdb-7875-ba23-6e2c02947cfc","019cf7bd-52b9-7f96-9138-a5960b400b31","","null","
                <div class=""stimulus-container"">
                    <img src=""images/semantic_sequence/kitchen_operations_semantic/kitchen_operations_semantic_2.png"" class=""exp-image"">
                    <div class=""question-area""></div> 
                </div>","null","","","","","","","","",""
"","","","","","html-button-response","20","109948","0.0-20.0","83DBFE11DC3D4AD6A9FDB0C15C10B4CA","019cf7c8-ecdb-7875-ba23-6e2c02947cfc","019cf7bd-52b9-7f96-9138-a5960b400b31","","540","
                <div class=""stimulus-container"">
                    <img src=""images/semantic_sequence/kitchen_operations_semantic/kitchen_operations_semantic_2.png"" class=""exp-image"">
                    <div class=""question-area"">
                        <p style=""font-size: 20px; font-weight: bold; margin: 0;"">Is there a person in this image?</p>
                    </div>
                </div>","0","main_experiment_trial","2","kitchen_operations_semantic","semantic_sequence","","","","",""
"","","","","","html-keyboard-response","21","114949","0.0-21.0","83DBFE11DC3D4AD6A9FDB0C15C10B4CA","019cf7c8-ecdb-7875-ba23-6e2c02947cfc","019cf7bd-52b9-7f96-9138-a5960b400b31","","null","
                <div class=""stimulus-container"">
                    <img src=""images/semantic_sequence/kitchen_operations_semantic/kitchen_operations_semantic_3.png"" class=""exp-image"">
                    <div class=""question-area""></div> 
                </div>","null","","","","","","","","",""
"","","","","","html-button-response","22","115811","0.0-22.0","83DBFE11DC3D4AD6A9FDB0C15C10B4CA","019cf7c8-ecdb-7875-ba23-6e2c02947cfc","019cf7bd-52b9-7f96-9138-a5960b400b31","","862","
                <div class=""stimulus-container"">
                    <img src=""images/semantic_sequence/kitchen_operations_semantic/kitchen_operations_semantic_3.png"" class=""exp-image"">
                    <div class=""question-area"">
                        <p style=""font-size: 20px; font-weight: bold; margin: 0;"">Is there a person in this image?</p>
                    </div>
                </div>","0","main_experiment_trial","3","kitchen_operations_semantic","semantic_sequence","","","","",""
"","","","","","html-keyboard-response","23","121118","0.0-23.0","83DBFE11DC3D4AD6A9FDB0C15C10B4CA","019cf7c8-ecdb-7875-ba23-6e2c02947cfc","019cf7bd-52b9-7f96-9138-a5960b400b31","","null","
                <div class=""stimulus-container"">
                    <img src=""images/semantic_sequence/kitchen_operations_semantic/kitchen_operations_semantic_4.png"" class=""exp-image"">
                    <div class=""question-area""></div> 
                </div>","null","","","","","","","","",""
"","","","","","html-button-response","24","121787","0.0-24.0","83DBFE11DC3D4AD6A9FDB0C15C10B4CA","019cf7c8-ecdb-7875-ba23-6e2c02947cfc","019cf7bd-52b9-7f96-9138-a5960b400b31","","668","
                <div class=""stimulus-container"">
                    <img src=""images/semantic_sequence/kitchen_operations_semantic/kitchen_operations_semantic_4.png"" class=""exp-image"">
                    <div class=""question-area"">
                        <p style=""font-size: 20px; font-weight: bold; margin: 0;"">Is there a person in this image?</p>
                    </div>
                </div>","0","main_experiment_trial","4","kitchen_operations_semantic","semantic_sequence","","","","",""
"","","","","","html-keyboard-response","25","126788","0.0-25.0","83DBFE11DC3D4AD6A9FDB0C15C10B4CA","019cf7c8-ecdb-7875-ba23-6e2c02947cfc","019cf7bd-52b9-7f96-9138-a5960b400b31","","null","
                <div class=""stimulus-container"">
                    <img src=""images/semantic_sequence/kitchen_operations_semantic/kitchen_operations_semantic_5.png"" class=""exp-image"">
                    <div class=""question-area""></div> 
                </div>","null","","","","","","","","",""
"","","","","","html-button-response","26","127274","0.0-26.0","83DBFE11DC3D4AD6A9FDB0C15C10B4CA","019cf7c8-ecdb-7875-ba23-6e2c02947cfc","019cf7bd-52b9-7f96-9138-a5960b400b31","","486","
                <div class=""stimulus-container"">
                    <img src=""images/semantic_sequence/kitchen_operations_semantic/kitchen_operations_semantic_5.png"" class=""exp-image"">
                    <div class=""question-area"">
                        <p style=""font-size: 20px; font-weight: bold; margin: 0;"">Is there a person in this image?</p>
                    </div>
                </div>","0","main_experiment_trial","5","kitchen_operations_semantic","semantic_sequence","","","","",""
"","","","","","html-keyboard-response","27","132282","0.0-27.0","83DBFE11DC3D4AD6A9FDB0C15C10B4CA","019cf7c8-ecdb-7875-ba23-6e2c02947cfc","019cf7bd-52b9-7f96-9138-a5960b400b31","","null","
                <div class=""stimulus-container"">
                    <img src=""images/semantic_sequence/kitchen_operations_semantic/kitchen_operations_semantic_6.png"" class=""exp-image"">
                    <div class=""question-area""></div> 
                </div>","null","","","","","","","","",""
"","","","","","html-button-response","28","132931","0.0-28.0","83DBFE11DC3D4AD6A9FDB0C15C10B4CA","019cf7c8-ecdb-7875-ba23-6e2c02947cfc","019cf7bd-52b9-7f96-9138-a5960b400b31","","649","
                <div class=""stimulus-container"">
                    <img src=""images/semantic_sequence/kitchen_operations_semantic/kitchen_operations_semantic_6.png"" class=""exp-image"">
                    <div class=""question-area"">
                        <p style=""font-size: 20px; font-weight: bold; margin: 0;"">Is there a person in this image?</p>
                    </div>
                </div>","0","main_experiment_trial","6","kitchen_operations_semantic","semantic_sequence","","","","",""
"","","","","","html-keyboard-response","29","137932","0.0-29.0","83DBFE11DC3D4AD6A9FDB0C15C10B4CA","019cf7c8-ecdb-7875-ba23-6e2c02947cfc","019cf7bd-52b9-7f96-9138-a5960b400b31","","null","
                <div class=""stimulus-container"">
                    <img src=""images/semantic_sequence/kitchen_operations_semantic/kitchen_operations_semantic_7.png"" class=""exp-image"">
                    <div class=""question-area""></div> 
                </div>","null","","","","","","","","",""
"","","","","","html-button-response","30","138634","0.0-30.0","83DBFE11DC3D4AD6A9FDB0C15C10B4CA","019cf7c8-ecdb-7875-ba23-6e2c02947cfc","019cf7bd-52b9-7f96-9138-a5960b400b31","","701","
                <div class=""stimulus-container"">
                    <img src=""images/semantic_sequence/kitchen_operations_semantic/kitchen_operations_semantic_7.png"" class=""exp-image"">
                    <div class=""question-area"">
                        <p style=""font-size: 20px; font-weight: bold; margin: 0;"">Is there a person in this image?</p>
                    </div>
                </div>","0","main_experiment_trial","7","kitchen_operations_semantic","semantic_sequence","","","","",""
"","","","","","html-keyboard-response","31","144103","0.0-31.0","83DBFE11DC3D4AD6A9FDB0C15C10B4CA","019cf7c8-ecdb-7875-ba23-6e2c02947cfc","019cf7bd-52b9-7f96-9138-a5960b400b31","","null","
                <div class=""stimulus-container"">
                    <img src=""images/semantic_sequence/kitchen_operations_semantic/kitchen_operations_semantic_8.png"" class=""exp-image"">
                    <div class=""question-area""></div> 
                </div>","null","","","","","","","","",""
"","","","","","html-button-response","32","144627","0.0-32.0","83DBFE11DC3D4AD6A9FDB0C15C10B4CA","019cf7c8-ecdb-7875-ba23-6e2c02947cfc","019cf7bd-52b9-7f96-9138-a5960b400b31","","523","
                <div class=""stimulus-container"">
                    <img src=""images/semantic_sequence/kitchen_operations_semantic/kitchen_operations_semantic_8.png"" class=""exp-image"">
                    <div class=""question-area"">
                        <p style=""font-size: 20px; font-weight: bold; margin: 0;"">Is there a person in this image?</p>
                    </div>
                </div>","0","main_experiment_trial","8","kitchen_operations_semantic","semantic_sequence","","","","",""
"","","","","","html-keyboard-response","33","149630","0.0-33.0","83DBFE11DC3D4AD6A9FDB0C15C10B4CA","019cf7c8-ecdb-7875-ba23-6e2c02947cfc","019cf7bd-52b9-7f96-9138-a5960b400b31","","null","
                <div class=""stimulus-container"">
                    <img src=""images/semantic_sequence/kitchen_operations_semantic/kitchen_operations_semantic_9.png"" class=""exp-image"">
                    <div class=""question-area""></div> 
                </div>","null","","","","","","","","",""
"","","","","","html-button-response","34","150163","0.0-34.0","83DBFE11DC3D4AD6A9FDB0C15C10B4CA","019cf7c8-ecdb-7875-ba23-6e2c02947cfc","019cf7bd-52b9-7f96-9138-a5960b400b31","","532","
                <div class=""stimulus-container"">
                    <img src=""images/semantic_sequence/kitchen_operations_semantic/kitchen_operations_semantic_9.png"" class=""exp-image"">
                    <div class=""question-area"">
                        <p style=""font-size: 20px; font-weight: bold; margin: 0;"">Is there a person in this image?</p>
                    </div>
                </div>","0","main_experiment_trial","9","kitchen_operations_semantic","semantic_sequence","","","","",""
"","","","","","html-keyboard-response","35","155181","0.0-35.0","83DBFE11DC3D4AD6A9FDB0C15C10B4CA","019cf7c8-ecdb-7875-ba23-6e2c02947cfc","019cf7bd-52b9-7f96-9138-a5960b400b31","","null","
                <div class=""stimulus-container"">
                    <img src=""images/semantic_sequence/kitchen_operations_semantic/kitchen_operations_semantic_ten.png"" class=""exp-image"">
                    <div class=""question-area""></div> 
                </div>","null","","","","","","","","",""
"","","","","","html-button-response","36","155641","0.0-36.0","83DBFE11DC3D4AD6A9FDB0C15C10B4CA","019cf7c8-ecdb-7875-ba23-6e2c02947cfc","019cf7bd-52b9-7f96-9138-a5960b400b31","","460","
                <div class=""stimulus-container"">
                    <img src=""images/semantic_sequence/kitchen_operations_semantic/kitchen_operations_semantic_ten.png"" class=""exp-image"">
                    <div class=""question-area"">
                        <p style=""font-size: 20px; font-weight: bold; margin: 0;"">Is there a person in this image?</p>
                    </div>
                </div>","0","main_experiment_trial","ten","kitchen_operations_semantic","semantic_sequence","","","","",""
"","","","","","html-keyboard-response","37","156651","0.0-37.0","83DBFE11DC3D4AD6A9FDB0C15C10B4CA","019cf7c8-ecdb-7875-ba23-6e2c02947cfc","019cf7bd-52b9-7f96-9138-a5960b400b31","","null","<div style=""background-color: white; width: 100vw; height: 100vh;""></div>","null","","","","","","","","",""
"","","","","","html-keyboard-response","38","161665","0.0-38.0","83DBFE11DC3D4AD6A9FDB0C15C10B4CA","019cf7c8-ecdb-7875-ba23-6e2c02947cfc","019cf7bd-52b9-7f96-9138-a5960b400b31","","null","
                <div class=""stimulus-container"">
                    <img src=""images/semantic_sequence/exploring_nature_semantic/exploring_nature_semantic_1.png"" class=""exp-image"">
                    <div class=""question-area""></div> 
                </div>","null","","","","","","","","",""
"","","","","","html-button-response","39","162579","0.0-39.0","83DBFE11DC3D4AD6A9FDB0C15C10B4CA","019cf7c8-ecdb-7875-ba23-6e2c02947cfc","019cf7bd-52b9-7f96-9138-a5960b400b31","","915","
                <div class=""stimulus-container"">
                    <img src=""images/semantic_sequence/exploring_nature_semantic/exploring_nature_semantic_1.png"" class=""exp-image"">
                    <div class=""question-area"">
                        <p style=""font-size: 20px; font-weight: bold; margin: 0;"">Is there a person in this image?</p>
                    </div>
                </div>","0","main_experiment_trial","1","exploring_nature_semantic","semantic_sequence","","","","",""
"","","","","","html-keyboard-response","40","167593","0.0-40.0","83DBFE11DC3D4AD6A9FDB0C15C10B4CA","019cf7c8-ecdb-7875-ba23-6e2c02947cfc","019cf7bd-52b9-7f96-9138-a5960b400b31","","null","
                <div class=""stimulus-container"">
                    <img src=""images/semantic_sequence/exploring_nature_semantic/exploring_nature_semantic_2.png"" class=""exp-image"">
                    <div class=""question-area""></div> 
                </div>","null","","","","","","","","",""
"","","","","","html-button-response","41","168050","0.0-41.0","83DBFE11DC3D4AD6A9FDB0C15C10B4CA","019cf7c8-ecdb-7875-ba23-6e2c02947cfc","019cf7bd-52b9-7f96-9138-a5960b400b31","","457","
                <div class=""stimulus-container"">
                    <img src=""images/semantic_sequence/exploring_nature_semantic/exploring_nature_semantic_2.png"" class=""exp-image"">
                    <div class=""question-area"">
                        <p style=""font-size: 20px; font-weight: bold; margin: 0;"">Is there a person in this image?</p>
                    </div>
                </div>","0","main_experiment_trial","2","exploring_nature_semantic","semantic_sequence","","","","",""
"","","","","","html-keyboard-response","42","173051","0.0-42.0","83DBFE11DC3D4AD6A9FDB0C15C10B4CA","019cf7c8-ecdb-7875-ba23-6e2c02947cfc","019cf7bd-52b9-7f96-9138-a5960b400b31","","null","
                <div class=""stimulus-container"">
                    <img src=""images/semantic_sequence/exploring_nature_semantic/exploring_nature_semantic_3.png"" class=""exp-image"">
                    <div class=""question-area""></div> 
                </div>","null","","","","","","","","",""
"","","","","","html-button-response","43","173595","0.0-43.0","83DBFE11DC3D4AD6A9FDB0C15C10B4CA","019cf7c8-ecdb-7875-ba23-6e2c02947cfc","019cf7bd-52b9-7f96-9138-a5960b400b31","","542","
                <div class=""stimulus-container"">
                    <img src=""images/semantic_sequence/exploring_nature_semantic/exploring_nature_semantic_3.png"" class=""exp-image"">
                    <div class=""question-area"">
                        <p style=""font-size: 20px; font-weight: bold; margin: 0;"">Is there a person in this image?</p>
                    </div>
                </div>","0","main_experiment_trial","3","exploring_nature_semantic","semantic_sequence","","","","",""
"","","","","","html-keyboard-response","44","178600","0.0-44.0","83DBFE11DC3D4AD6A9FDB0C15C10B4CA","019cf7c8-ecdb-7875-ba23-6e2c02947cfc","019cf7bd-52b9-7f96-9138-a5960b400b31","","null","
                <div class=""stimulus-container"">
                    <img src=""images/semantic_sequence/exploring_nature_semantic/exploring_nature_semantic_4.png"" class=""exp-image"">
                    <div class=""question-area""></div> 
                </div>","null","","","","","","","","",""
"","","","","","html-button-response","45","179210","0.0-45.0","83DBFE11DC3D4AD6A9FDB0C15C10B4CA","019cf7c8-ecdb-7875-ba23-6e2c02947cfc","019cf7bd-52b9-7f96-9138-a5960b400b31","","610","
                <div class=""stimulus-container"">
                    <img src=""images/semantic_sequence/exploring_nature_semantic/exploring_nature_semantic_4.png"" class=""exp-image"">
                    <div class=""question-area"">
                        <p style=""font-size: 20px; font-weight: bold; margin: 0;"">Is there a person in this image?</p>
                    </div>
                </div>","0","main_experiment_trial","4","exploring_nature_semantic","semantic_sequence","","","","",""
"","","","","","html-keyboard-response","46","184214","0.0-46.0","83DBFE11DC3D4AD6A9FDB0C15C10B4CA","019cf7c8-ecdb-7875-ba23-6e2c02947cfc","019cf7bd-52b9-7f96-9138-a5960b400b31","","null","
                <div class=""stimulus-container"">
                    <img src=""images/semantic_sequence/exploring_nature_semantic/exploring_nature_semantic_5.png"" class=""exp-image"">
                    <div class=""question-area""></div> 
                </div>","null","","","","","","","","",""
"","","","","","html-button-response","47","184730","0.0-47.0","83DBFE11DC3D4AD6A9FDB0C15C10B4CA","019cf7c8-ecdb-7875-ba23-6e2c02947cfc","019cf7bd-52b9-7f96-9138-a5960b400b31","","516","
                <div class=""stimulus-container"">
                    <img src=""images/semantic_sequence/exploring_nature_semantic/exploring_nature_semantic_5.png"" class=""exp-image"">
                    <div class=""question-area"">
                        <p style=""font-size: 20px; font-weight: bold; margin: 0;"">Is there a person in this image?</p>
                    </div>
                </div>","0","main_experiment_trial","5","exploring_nature_semantic","semantic_sequence","","","","",""
"","","","","","html-keyboard-response","48","189742","0.0-48.0","83DBFE11DC3D4AD6A9FDB0C15C10B4CA","019cf7c8-ecdb-7875-ba23-6e2c02947cfc","019cf7bd-52b9-7f96-9138-a5960b400b31","","null","
                <div class=""stimulus-container"">
                    <img src=""images/semantic_sequence/exploring_nature_semantic/exploring_nature_semantic_6.png"" class=""exp-image"">
                    <div class=""question-area""></div> 
                </div>","null","","","","","","","","",""
"","","","","","html-button-response","49","190201","0.0-49.0","83DBFE11DC3D4AD6A9FDB0C15C10B4CA","019cf7c8-ecdb-7875-ba23-6e2c02947cfc","019cf7bd-52b9-7f96-9138-a5960b400b31","","459","
                <div class=""stimulus-container"">
                    <img src=""images/semantic_sequence/exploring_nature_semantic/exploring_nature_semantic_6.png"" class=""exp-image"">
                    <div class=""question-area"">
                        <p style=""font-size: 20px; font-weight: bold; margin: 0;"">Is there a person in this image?</p>
                    </div>
                </div>","0","main_experiment_trial","6","exploring_nature_semantic","semantic_sequence","","","","",""
"","","","","","html-keyboard-response","50","195202","0.0-50.0","83DBFE11DC3D4AD6A9FDB0C15C10B4CA","019cf7c8-ecdb-7875-ba23-6e2c02947cfc","019cf7bd-52b9-7f96-9138-a5960b400b31","","null","
                <div class=""stimulus-container"">
                    <img src=""images/semantic_sequence/exploring_nature_semantic/exploring_nature_semantic_7.png"" class=""exp-image"">
                    <div class=""question-area""></div> 
                </div>","null","","","","","","","","",""
"","","","","","html-button-response","51","195755","0.0-51.0","83DBFE11DC3D4AD6A9FDB0C15C10B4CA","019cf7c8-ecdb-7875-ba23-6e2c02947cfc","019cf7bd-52b9-7f96-9138-a5960b400b31","","553","
                <div class=""stimulus-container"">
                    <img src=""images/semantic_sequence/exploring_nature_semantic/exploring_nature_semantic_7.png"" class=""exp-image"">
                    <div class=""question-area"">
                        <p style=""font-size: 20px; font-weight: bold; margin: 0;"">Is there a person in this image?</p>
                    </div>
                </div>","0","main_experiment_trial","7","exploring_nature_semantic","semantic_sequence","","","","",""
"","","","","","html-keyboard-response","52","200759","0.0-52.0","83DBFE11DC3D4AD6A9FDB0C15C10B4CA","019cf7c8-ecdb-7875-ba23-6e2c02947cfc","019cf7bd-52b9-7f96-9138-a5960b400b31","","null","
                <div class=""stimulus-container"">
                    <img src=""images/semantic_sequence/exploring_nature_semantic/exploring_nature_semantic_8.png"" class=""exp-image"">
                    <div class=""question-area""></div> 
                </div>","null","","","","","","","","",""
"","","","","","html-button-response","53","201874","0.0-53.0","83DBFE11DC3D4AD6A9FDB0C15C10B4CA","019cf7c8-ecdb-7875-ba23-6e2c02947cfc","019cf7bd-52b9-7f96-9138-a5960b400b31","","1114","
                <div class=""stimulus-container"">
                    <img src=""images/semantic_sequence/exploring_nature_semantic/exploring_nature_semantic_8.png"" class=""exp-image"">
                    <div class=""question-area"">
                        <p style=""font-size: 20px; font-weight: bold; margin: 0;"">Is there a person in this image?</p>
                    </div>
                </div>","0","main_experiment_trial","8","exploring_nature_semantic","semantic_sequence","","","","",""
"","","","","","html-keyboard-response","54","206885","0.0-54.0","83DBFE11DC3D4AD6A9FDB0C15C10B4CA","019cf7c8-ecdb-7875-ba23-6e2c02947cfc","019cf7bd-52b9-7f96-9138-a5960b400b31","","null","
                <div class=""stimulus-container"">
                    <img src=""images/semantic_sequence/exploring_nature_semantic/exploring_nature_semantic_9.png"" class=""exp-image"">
                    <div class=""question-area""></div> 
                </div>","null","","","","","","","","",""
"","","","","","html-button-response","55","207594","0.0-55.0","83DBFE11DC3D4AD6A9FDB0C15C10B4CA","019cf7c8-ecdb-7875-ba23-6e2c02947cfc","019cf7bd-52b9-7f96-9138-a5960b400b31","","709","
                <div class=""stimulus-container"">
                    <img src=""images/semantic_sequence/exploring_nature_semantic/exploring_nature_semantic_9.png"" class=""exp-image"">
                    <div class=""question-area"">
                        <p style=""font-size: 20px; font-weight: bold; margin: 0;"">Is there a person in this image?</p>
                    </div>
                </div>","0","main_experiment_trial","9","exploring_nature_semantic","semantic_sequence","","","","",""
"","","","","","html-keyboard-response","56","212807","0.0-56.0","83DBFE11DC3D4AD6A9FDB0C15C10B4CA","019cf7c8-ecdb-7875-ba23-6e2c02947cfc","019cf7bd-52b9-7f96-9138-a5960b400b31","","null","
                <div class=""stimulus-container"">
                    <img src=""images/semantic_sequence/exploring_nature_semantic/exploring_nature_semantic_ten.png"" class=""exp-image"">
                    <div class=""question-area""></div> 
                </div>","null","","","","","","","","",""
"","","","","","html-button-response","57","213459","0.0-57.0","83DBFE11DC3D4AD6A9FDB0C15C10B4CA","019cf7c8-ecdb-7875-ba23-6e2c02947cfc","019cf7bd-52b9-7f96-9138-a5960b400b31","","651","
                <div class=""stimulus-container"">
                    <img src=""images/semantic_sequence/exploring_nature_semantic/exploring_nature_semantic_ten.png"" class=""exp-image"">
                    <div class=""question-area"">
                        <p style=""font-size: 20px; font-weight: bold; margin: 0;"">Is there a person in this image?</p>
                    </div>
                </div>","0","main_experiment_trial","ten","exploring_nature_semantic","semantic_sequence","","","","",""
"","","","","","html-keyboard-response","58","214463","0.0-58.0","83DBFE11DC3D4AD6A9FDB0C15C10B4CA","019cf7c8-ecdb-7875-ba23-6e2c02947cfc","019cf7bd-52b9-7f96-9138-a5960b400b31","","null","<div style=""background-color: white; width: 100vw; height: 100vh;""></div>","null","","","","","","","","",""
"","","","","","html-keyboard-response","59","219478","0.0-59.0","83DBFE11DC3D4AD6A9FDB0C15C10B4CA","019cf7c8-ecdb-7875-ba23-6e2c02947cfc","019cf7bd-52b9-7f96-9138-a5960b400b31","","null","
                <div class=""stimulus-container"">
                    <img src=""images/schematic_sequence/dinner_party_scheme/dinner_party_scheme_1.png"" class=""exp-image"">
                    <div class=""question-area""></div> 
                </div>","null","","","","","","","","",""
"","","","","","html-button-response","60","220658","0.0-60.0","83DBFE11DC3D4AD6A9FDB0C15C10B4CA","019cf7c8-ecdb-7875-ba23-6e2c02947cfc","019cf7bd-52b9-7f96-9138-a5960b400b31","","1180","
                <div class=""stimulus-container"">
                    <img src=""images/schematic_sequence/dinner_party_scheme/dinner_party_scheme_1.png"" class=""exp-image"">
                    <div class=""question-area"">
                        <p style=""font-size: 20px; font-weight: bold; margin: 0;"">Is there a person in this image?</p>
                    </div>
                </div>","0","main_experiment_trial","1","dinner_party_scheme","schematic_sequence","","","","",""
"","","","","","html-keyboard-response","61","225660","0.0-61.0","83DBFE11DC3D4AD6A9FDB0C15C10B4CA","019cf7c8-ecdb-7875-ba23-6e2c02947cfc","019cf7bd-52b9-7f96-9138-a5960b400b31","","null","
                <div class=""stimulus-container"">
                    <img src=""images/schematic_sequence/dinner_party_scheme/dinner_party_scheme_2.png"" class=""exp-image"">
                    <div class=""question-area""></div> 
                </div>","null","","","","","","","","",""
"","","","","","html-button-response","62","226435","0.0-62.0","83DBFE11DC3D4AD6A9FDB0C15C10B4CA","019cf7c8-ecdb-7875-ba23-6e2c02947cfc","019cf7bd-52b9-7f96-9138-a5960b400b31","","774","
                <div class=""stimulus-container"">
                    <img src=""images/schematic_sequence/dinner_party_scheme/dinner_party_scheme_2.png"" class=""exp-image"">
                    <div class=""question-area"">
                        <p style=""font-size: 20px; font-weight: bold; margin: 0;"">Is there a person in this image?</p>
                    </div>
                </div>","0","main_experiment_trial","2","dinner_party_scheme","schematic_sequence","","","","",""
"","","","","","html-keyboard-response","63","231443","0.0-63.0","83DBFE11DC3D4AD6A9FDB0C15C10B4CA","019cf7c8-ecdb-7875-ba23-6e2c02947cfc","019cf7bd-52b9-7f96-9138-a5960b400b31","","null","
                <div class=""stimulus-container"">
                    <img src=""images/schematic_sequence/dinner_party_scheme/dinner_party_scheme_3.png"" class=""exp-image"">
                    <div class=""question-area""></div> 
                </div>","null","","","","","","","","",""
"","","","","","html-button-response","64","232099","0.0-64.0","83DBFE11DC3D4AD6A9FDB0C15C10B4CA","019cf7c8-ecdb-7875-ba23-6e2c02947cfc","019cf7bd-52b9-7f96-9138-a5960b400b31","","655","
                <div class=""stimulus-container"">
                    <img src=""images/schematic_sequence/dinner_party_scheme/dinner_party_scheme_3.png"" class=""exp-image"">
                    <div class=""question-area"">
                        <p style=""font-size: 20px; font-weight: bold; margin: 0;"">Is there a person in this image?</p>
                    </div>
                </div>","0","main_experiment_trial","3","dinner_party_scheme","schematic_sequence","","","","",""
"","","","","","html-keyboard-response","65","237101","0.0-65.0","83DBFE11DC3D4AD6A9FDB0C15C10B4CA","019cf7c8-ecdb-7875-ba23-6e2c02947cfc","019cf7bd-52b9-7f96-9138-a5960b400b31","","null","
                <div class=""stimulus-container"">
                    <img src=""images/schematic_sequence/dinner_party_scheme/dinner_party_scheme_4.png"" class=""exp-image"">
                    <div class=""question-area""></div> 
                </div>","null","","","","","","","","",""
"","","","","","html-button-response","66","237601","0.0-66.0","83DBFE11DC3D4AD6A9FDB0C15C10B4CA","019cf7c8-ecdb-7875-ba23-6e2c02947cfc","019cf7bd-52b9-7f96-9138-a5960b400b31","","500","
                <div class=""stimulus-container"">
                    <img src=""images/schematic_sequence/dinner_party_scheme/dinner_party_scheme_4.png"" class=""exp-image"">
                    <div class=""question-area"">
                        <p style=""font-size: 20px; font-weight: bold; margin: 0;"">Is there a person in this image?</p>
                    </div>
                </div>","0","main_experiment_trial","4","dinner_party_scheme","schematic_sequence","","","","",""
"","","","","","html-keyboard-response","67","242623","0.0-67.0","83DBFE11DC3D4AD6A9FDB0C15C10B4CA","019cf7c8-ecdb-7875-ba23-6e2c02947cfc","019cf7bd-52b9-7f96-9138-a5960b400b31","","null","
                <div class=""stimulus-container"">
                    <img src=""images/schematic_sequence/dinner_party_scheme/dinner_party_scheme_5.png"" class=""exp-image"">
                    <div class=""question-area""></div> 
                </div>","null","","","","","","","","",""
"","","","","","html-button-response","68","243322","0.0-68.0","83DBFE11DC3D4AD6A9FDB0C15C10B4CA","019cf7c8-ecdb-7875-ba23-6e2c02947cfc","019cf7bd-52b9-7f96-9138-a5960b400b31","","700","
                <div class=""stimulus-container"">
                    <img src=""images/schematic_sequence/dinner_party_scheme/dinner_party_scheme_5.png"" class=""exp-image"">
                    <div class=""question-area"">
                        <p style=""font-size: 20px; font-weight: bold; margin: 0;"">Is there a person in this image?</p>
                    </div>
                </div>","0","main_experiment_trial","5","dinner_party_scheme","schematic_sequence","","","","",""
"","","","","","html-keyboard-response","69","248604","0.0-69.0","83DBFE11DC3D4AD6A9FDB0C15C10B4CA","019cf7c8-ecdb-7875-ba23-6e2c02947cfc","019cf7bd-52b9-7f96-9138-a5960b400b31","","null","
                <div class=""stimulus-container"">
                    <img src=""images/schematic_sequence/dinner_party_scheme/dinner_party_scheme_6.png"" class=""exp-image"">
                    <div class=""question-area""></div> 
                </div>","null","","","","","","","","",""
"","","","","","html-button-response","70","249275","0.0-70.0","83DBFE11DC3D4AD6A9FDB0C15C10B4CA","019cf7c8-ecdb-7875-ba23-6e2c02947cfc","019cf7bd-52b9-7f96-9138-a5960b400b31","","671","
                <div class=""stimulus-container"">
                    <img src=""images/schematic_sequence/dinner_party_scheme/dinner_party_scheme_6.png"" class=""exp-image"">
                    <div class=""question-area"">
                        <p style=""font-size: 20px; font-weight: bold; margin: 0;"">Is there a person in this image?</p>
                    </div>
                </div>","0","main_experiment_trial","6","dinner_party_scheme","schematic_sequence","","","","",""
"","","","","","html-keyboard-response","71","254280","0.0-71.0","83DBFE11DC3D4AD6A9FDB0C15C10B4CA","019cf7c8-ecdb-7875-ba23-6e2c02947cfc","019cf7bd-52b9-7f96-9138-a5960b400b31","","null","
                <div class=""stimulus-container"">
                    <img src=""images/schematic_sequence/dinner_party_scheme/dinner_party_scheme_7.png"" class=""exp-image"">
                    <div class=""question-area""></div> 
                </div>","null","","","","","","","","",""
"","","","","","html-button-response","72","254770","0.0-72.0","83DBFE11DC3D4AD6A9FDB0C15C10B4CA","019cf7c8-ecdb-7875-ba23-6e2c02947cfc","019cf7bd-52b9-7f96-9138-a5960b400b31","","490","
                <div class=""stimulus-container"">
                    <img src=""images/schematic_sequence/dinner_party_scheme/dinner_party_scheme_7.png"" class=""exp-image"">
                    <div class=""question-area"">
                        <p style=""font-size: 20px; font-weight: bold; margin: 0;"">Is there a person in this image?</p>
                    </div>
                </div>","0","main_experiment_trial","7","dinner_party_scheme","schematic_sequence","","","","",""
"","","","","","html-keyboard-response","73","259777","0.0-73.0","83DBFE11DC3D4AD6A9FDB0C15C10B4CA","019cf7c8-ecdb-7875-ba23-6e2c02947cfc","019cf7bd-52b9-7f96-9138-a5960b400b31","","null","
                <div class=""stimulus-container"">
                    <img src=""images/schematic_sequence/dinner_party_scheme/dinner_party_scheme_8.png"" class=""exp-image"">
                    <div class=""question-area""></div> 
                </div>","null","","","","","","","","",""
"","","","","","html-button-response","74","260330","0.0-74.0","83DBFE11DC3D4AD6A9FDB0C15C10B4CA","019cf7c8-ecdb-7875-ba23-6e2c02947cfc","019cf7bd-52b9-7f96-9138-a5960b400b31","","553","
                <div class=""stimulus-container"">
                    <img src=""images/schematic_sequence/dinner_party_scheme/dinner_party_scheme_8.png"" class=""exp-image"">
                    <div class=""question-area"">
                        <p style=""font-size: 20px; font-weight: bold; margin: 0;"">Is there a person in this image?</p>
                    </div>
                </div>","0","main_experiment_trial","8","dinner_party_scheme","schematic_sequence","","","","",""
"","","","","","html-keyboard-response","75","265636","0.0-75.0","83DBFE11DC3D4AD6A9FDB0C15C10B4CA","019cf7c8-ecdb-7875-ba23-6e2c02947cfc","019cf7bd-52b9-7f96-9138-a5960b400b31","","null","
                <div class=""stimulus-container"">
                    <img src=""images/schematic_sequence/dinner_party_scheme/dinner_party_scheme_9.png"" class=""exp-image"">
                    <div class=""question-area""></div> 
                </div>","null","","","","","","","","",""
"","","","","","html-button-response","76","266298","0.0-76.0","83DBFE11DC3D4AD6A9FDB0C15C10B4CA","019cf7c8-ecdb-7875-ba23-6e2c02947cfc","019cf7bd-52b9-7f96-9138-a5960b400b31","","662","
                <div class=""stimulus-container"">
                    <img src=""images/schematic_sequence/dinner_party_scheme/dinner_party_scheme_9.png"" class=""exp-image"">
                    <div class=""question-area"">
                        <p style=""font-size: 20px; font-weight: bold; margin: 0;"">Is there a person in this image?</p>
                    </div>
                </div>","0","main_experiment_trial","9","dinner_party_scheme","schematic_sequence","","","","",""
"","","","","","html-keyboard-response","77","271307","0.0-77.0","83DBFE11DC3D4AD6A9FDB0C15C10B4CA","019cf7c8-ecdb-7875-ba23-6e2c02947cfc","019cf7bd-52b9-7f96-9138-a5960b400b31","","null","
                <div class=""stimulus-container"">
                    <img src=""images/schematic_sequence/dinner_party_scheme/dinner_party_scheme_ten.png"" class=""exp-image"">
                    <div class=""question-area""></div> 
                </div>","null","","","","","","","","",""
"","","","","","html-button-response","78","271731","0.0-78.0","83DBFE11DC3D4AD6A9FDB0C15C10B4CA","019cf7c8-ecdb-7875-ba23-6e2c02947cfc","019cf7bd-52b9-7f96-9138-a5960b400b31","","423","
                <div class=""stimulus-container"">
                    <img src=""images/schematic_sequence/dinner_party_scheme/dinner_party_scheme_ten.png"" class=""exp-image"">
                    <div class=""question-area"">
                        <p style=""font-size: 20px; font-weight: bold; margin: 0;"">Is there a person in this image?</p>
                    </div>
                </div>","0","main_experiment_trial","ten","dinner_party_scheme","schematic_sequence","","","","",""
"","","","","","html-keyboard-response","79","272746","0.0-79.0","83DBFE11DC3D4AD6A9FDB0C15C10B4CA","019cf7c8-ecdb-7875-ba23-6e2c02947cfc","019cf7bd-52b9-7f96-9138-a5960b400b31","","null","<div style=""background-color: white; width: 100vw; height: 100vh;""></div>","null","","","","","","","","",""
"","","","","","html-keyboard-response","80","277756","0.0-80.0","83DBFE11DC3D4AD6A9FDB0C15C10B4CA","019cf7c8-ecdb-7875-ba23-6e2c02947cfc","019cf7bd-52b9-7f96-9138-a5960b400b31","","null","
                <div class=""stimulus-container"">
                    <img src=""images/semantic_sequence/redecorating_a_house_semantic/redecorating_a_house_semantic_1.png"" class=""exp-image"">
                    <div class=""question-area""></div> 
                </div>","null","","","","","","","","",""
"","","","","","html-button-response","81","278371","0.0-81.0","83DBFE11DC3D4AD6A9FDB0C15C10B4CA","019cf7c8-ecdb-7875-ba23-6e2c02947cfc","019cf7bd-52b9-7f96-9138-a5960b400b31","","613","
                <div class=""stimulus-container"">
                    <img src=""images/semantic_sequence/redecorating_a_house_semantic/redecorating_a_house_semantic_1.png"" class=""exp-image"">
                    <div class=""question-area"">
                        <p style=""font-size: 20px; font-weight: bold; margin: 0;"">Is there a person in this image?</p>
                    </div>
                </div>","0","main_experiment_trial","1","redecorating_a_house_semantic","semantic_sequence","","","","",""
"","","","","","html-keyboard-response","82","283388","0.0-82.0","83DBFE11DC3D4AD6A9FDB0C15C10B4CA","019cf7c8-ecdb-7875-ba23-6e2c02947cfc","019cf7bd-52b9-7f96-9138-a5960b400b31","","null","
                <div class=""stimulus-container"">
                    <img src=""images/semantic_sequence/redecorating_a_house_semantic/redecorating_a_house_semantic_2.png"" class=""exp-image"">
                    <div class=""question-area""></div> 
                </div>","null","","","","","","","","",""
"","","","","","html-button-response","83","284130","0.0-83.0","83DBFE11DC3D4AD6A9FDB0C15C10B4CA","019cf7c8-ecdb-7875-ba23-6e2c02947cfc","019cf7bd-52b9-7f96-9138-a5960b400b31","","742","
                <div class=""stimulus-container"">
                    <img src=""images/semantic_sequence/redecorating_a_house_semantic/redecorating_a_house_semantic_2.png"" class=""exp-image"">
                    <div class=""question-area"">
                        <p style=""font-size: 20px; font-weight: bold; margin: 0;"">Is there a person in this image?</p>
                    </div>
                </div>","0","main_experiment_trial","2","redecorating_a_house_semantic","semantic_sequence","","","","",""
"","","","","","html-keyboard-response","84","289147","0.0-84.0","83DBFE11DC3D4AD6A9FDB0C15C10B4CA","019cf7c8-ecdb-7875-ba23-6e2c02947cfc","019cf7bd-52b9-7f96-9138-a5960b400b31","","null","
                <div class=""stimulus-container"">
                    <img src=""images/semantic_sequence/redecorating_a_house_semantic/redecorating_a_house_semantic_3.png"" class=""exp-image"">
                    <div class=""question-area""></div> 
                </div>","null","","","","","","","","",""
"","","","","","html-button-response","85","289618","0.0-85.0","83DBFE11DC3D4AD6A9FDB0C15C10B4CA","019cf7c8-ecdb-7875-ba23-6e2c02947cfc","019cf7bd-52b9-7f96-9138-a5960b400b31","","470","
                <div class=""stimulus-container"">
                    <img src=""images/semantic_sequence/redecorating_a_house_semantic/redecorating_a_house_semantic_3.png"" class=""exp-image"">
                    <div class=""question-area"">
                        <p style=""font-size: 20px; font-weight: bold; margin: 0;"">Is there a person in this image?</p>
                    </div>
                </div>","0","main_experiment_trial","3","redecorating_a_house_semantic","semantic_sequence","","","","",""
"","","","","","html-keyboard-response","86","294627","0.0-86.0","83DBFE11DC3D4AD6A9FDB0C15C10B4CA","019cf7c8-ecdb-7875-ba23-6e2c02947cfc","019cf7bd-52b9-7f96-9138-a5960b400b31","","null","
                <div class=""stimulus-container"">
                    <img src=""images/semantic_sequence/redecorating_a_house_semantic/redecorating_a_house_semantic_4.png"" class=""exp-image"">
                    <div class=""question-area""></div> 
                </div>","null","","","","","","","","",""
"","","","","","html-button-response","87","295243","0.0-87.0","83DBFE11DC3D4AD6A9FDB0C15C10B4CA","019cf7c8-ecdb-7875-ba23-6e2c02947cfc","019cf7bd-52b9-7f96-9138-a5960b400b31","","615","
                <div class=""stimulus-container"">
                    <img src=""images/semantic_sequence/redecorating_a_house_semantic/redecorating_a_house_semantic_4.png"" class=""exp-image"">
                    <div class=""question-area"">
                        <p style=""font-size: 20px; font-weight: bold; margin: 0;"">Is there a person in this image?</p>
                    </div>
                </div>","0","main_experiment_trial","4","redecorating_a_house_semantic","semantic_sequence","","","","",""
"","","","","","html-keyboard-response","88","300256","0.0-88.0","83DBFE11DC3D4AD6A9FDB0C15C10B4CA","019cf7c8-ecdb-7875-ba23-6e2c02947cfc","019cf7bd-52b9-7f96-9138-a5960b400b31","","null","
                <div class=""stimulus-container"">
                    <img src=""images/semantic_sequence/redecorating_a_house_semantic/redecorating_a_house_semantic_5.png"" class=""exp-image"">
                    <div class=""question-area""></div> 
                </div>","null","","","","","","","","",""
"","","","","","html-button-response","89","300769","0.0-89.0","83DBFE11DC3D4AD6A9FDB0C15C10B4CA","019cf7c8-ecdb-7875-ba23-6e2c02947cfc","019cf7bd-52b9-7f96-9138-a5960b400b31","","511","
                <div class=""stimulus-container"">
                    <img src=""images/semantic_sequence/redecorating_a_house_semantic/redecorating_a_house_semantic_5.png"" class=""exp-image"">
                    <div class=""question-area"">
                        <p style=""font-size: 20px; font-weight: bold; margin: 0;"">Is there a person in this image?</p>
                    </div>
                </div>","0","main_experiment_trial","5","redecorating_a_house_semantic","semantic_sequence","","","","",""
"","","","","","html-keyboard-response","90","305770","0.0-90.0","83DBFE11DC3D4AD6A9FDB0C15C10B4CA","019cf7c8-ecdb-7875-ba23-6e2c02947cfc","019cf7bd-52b9-7f96-9138-a5960b400b31","","null","
                <div class=""stimulus-container"">
                    <img src=""images/semantic_sequence/redecorating_a_house_semantic/redecorating_a_house_semantic_6.png"" class=""exp-image"">
                    <div class=""question-area""></div> 
                </div>","null","","","","","","","","",""
"","","","","","html-button-response","91","306681","0.0-91.0","83DBFE11DC3D4AD6A9FDB0C15C10B4CA","019cf7c8-ecdb-7875-ba23-6e2c02947cfc","019cf7bd-52b9-7f96-9138-a5960b400b31","","910","
                <div class=""stimulus-container"">
                    <img src=""images/semantic_sequence/redecorating_a_house_semantic/redecorating_a_house_semantic_6.png"" class=""exp-image"">
                    <div class=""question-area"">
                        <p style=""font-size: 20px; font-weight: bold; margin: 0;"">Is there a person in this image?</p>
                    </div>
                </div>","0","main_experiment_trial","6","redecorating_a_house_semantic","semantic_sequence","","","","",""
"","","","","","html-keyboard-response","92","311688","0.0-92.0","83DBFE11DC3D4AD6A9FDB0C15C10B4CA","019cf7c8-ecdb-7875-ba23-6e2c02947cfc","019cf7bd-52b9-7f96-9138-a5960b400b31","","null","
                <div class=""stimulus-container"">
                    <img src=""images/semantic_sequence/redecorating_a_house_semantic/redecorating_a_house_semantic_7.png"" class=""exp-image"">
                    <div class=""question-area""></div> 
                </div>","null","","","","","","","","",""
"","","","","","html-button-response","93","312347","0.0-93.0","83DBFE11DC3D4AD6A9FDB0C15C10B4CA","019cf7c8-ecdb-7875-ba23-6e2c02947cfc","019cf7bd-52b9-7f96-9138-a5960b400b31","","660","
                <div class=""stimulus-container"">
                    <img src=""images/semantic_sequence/redecorating_a_house_semantic/redecorating_a_house_semantic_7.png"" class=""exp-image"">
                    <div class=""question-area"">
                        <p style=""font-size: 20px; font-weight: bold; margin: 0;"">Is there a person in this image?</p>
                    </div>
                </div>","0","main_experiment_trial","7","redecorating_a_house_semantic","semantic_sequence","","","","",""
"","","","","","html-keyboard-response","94","317361","0.0-94.0","83DBFE11DC3D4AD6A9FDB0C15C10B4CA","019cf7c8-ecdb-7875-ba23-6e2c02947cfc","019cf7bd-52b9-7f96-9138-a5960b400b31","","null","
                <div class=""stimulus-container"">
                    <img src=""images/semantic_sequence/redecorating_a_house_semantic/redecorating_a_house_semantic_8.png"" class=""exp-image"">
                    <div class=""question-area""></div> 
                </div>","null","","","","","","","","",""
"","","","","","html-button-response","95","319666","0.0-95.0","83DBFE11DC3D4AD6A9FDB0C15C10B4CA","019cf7c8-ecdb-7875-ba23-6e2c02947cfc","019cf7bd-52b9-7f96-9138-a5960b400b31","","2305","
                <div class=""stimulus-container"">
                    <img src=""images/semantic_sequence/redecorating_a_house_semantic/redecorating_a_house_semantic_8.png"" class=""exp-image"">
                    <div class=""question-area"">
                        <p style=""font-size: 20px; font-weight: bold; margin: 0;"">Is there a person in this image?</p>
                    </div>
                </div>","0","main_experiment_trial","8","redecorating_a_house_semantic","semantic_sequence","","","","",""
"","","","","","html-keyboard-response","96","324675","0.0-96.0","83DBFE11DC3D4AD6A9FDB0C15C10B4CA","019cf7c8-ecdb-7875-ba23-6e2c02947cfc","019cf7bd-52b9-7f96-9138-a5960b400b31","","null","
                <div class=""stimulus-container"">
                    <img src=""images/semantic_sequence/redecorating_a_house_semantic/redecorating_a_house_semantic_9.png"" class=""exp-image"">
                    <div class=""question-area""></div> 
                </div>","null","","","","","","","","",""
"","","","","","html-button-response","97","325163","0.0-97.0","83DBFE11DC3D4AD6A9FDB0C15C10B4CA","019cf7c8-ecdb-7875-ba23-6e2c02947cfc","019cf7bd-52b9-7f96-9138-a5960b400b31","","487","
                <div class=""stimulus-container"">
                    <img src=""images/semantic_sequence/redecorating_a_house_semantic/redecorating_a_house_semantic_9.png"" class=""exp-image"">
                    <div class=""question-area"">
                        <p style=""font-size: 20px; font-weight: bold; margin: 0;"">Is there a person in this image?</p>
                    </div>
                </div>","0","main_experiment_trial","9","redecorating_a_house_semantic","semantic_sequence","","","","",""
"","","","","","html-keyboard-response","98","330169","0.0-98.0","83DBFE11DC3D4AD6A9FDB0C15C10B4CA","019cf7c8-ecdb-7875-ba23-6e2c02947cfc","019cf7bd-52b9-7f96-9138-a5960b400b31","","null","
                <div class=""stimulus-container"">
                    <img src=""images/semantic_sequence/redecorating_a_house_semantic/redecorating_a_house_semantic_ten.png"" class=""exp-image"">
                    <div class=""question-area""></div> 
                </div>","null","","","","","","","","",""
"","","","","","html-button-response","99","331114","0.0-99.0","83DBFE11DC3D4AD6A9FDB0C15C10B4CA","019cf7c8-ecdb-7875-ba23-6e2c02947cfc","019cf7bd-52b9-7f96-9138-a5960b400b31","","945","
                <div class=""stimulus-container"">
                    <img src=""images/semantic_sequence/redecorating_a_house_semantic/redecorating_a_house_semantic_ten.png"" class=""exp-image"">
                    <div class=""question-area"">
                        <p style=""font-size: 20px; font-weight: bold; margin: 0;"">Is there a person in this image?</p>
                    </div>
                </div>","0","main_experiment_trial","ten","redecorating_a_house_semantic","semantic_sequence","","","","",""
"","","","","","html-keyboard-response","100","332178","0.0-100.0","83DBFE11DC3D4AD6A9FDB0C15C10B4CA","019cf7c8-ecdb-7875-ba23-6e2c02947cfc","019cf7bd-52b9-7f96-9138-a5960b400b31","","null","<div style=""background-color: white; width: 100vw; height: 100vh;""></div>","null","","","","","","","","",""
"","","","","","html-keyboard-response","101","337199","0.0-101.0","83DBFE11DC3D4AD6A9FDB0C15C10B4CA","019cf7c8-ecdb-7875-ba23-6e2c02947cfc","019cf7bd-52b9-7f96-9138-a5960b400b31","","null","
                <div class=""stimulus-container"">
                    <img src=""images/schematic_sequence/interview_scheme/interview_scheme_1.png"" class=""exp-image"">
                    <div class=""question-area""></div> 
                </div>","null","","","","","","","","",""
"","","","","","html-button-response","102","338625","0.0-102.0","83DBFE11DC3D4AD6A9FDB0C15C10B4CA","019cf7c8-ecdb-7875-ba23-6e2c02947cfc","019cf7bd-52b9-7f96-9138-a5960b400b31","","1426","
                <div class=""stimulus-container"">
                    <img src=""images/schematic_sequence/interview_scheme/interview_scheme_1.png"" class=""exp-image"">
                    <div class=""question-area"">
                        <p style=""font-size: 20px; font-weight: bold; margin: 0;"">Is there a person in this image?</p>
                    </div>
                </div>","1","main_experiment_trial","1","interview_scheme","schematic_sequence","","","","",""
"","","","","","html-keyboard-response","103","343628","0.0-103.0","83DBFE11DC3D4AD6A9FDB0C15C10B4CA","019cf7c8-ecdb-7875-ba23-6e2c02947cfc","019cf7bd-52b9-7f96-9138-a5960b400b31","","null","
                <div class=""stimulus-container"">
                    <img src=""images/schematic_sequence/interview_scheme/interview_scheme_2.png"" class=""exp-image"">
                    <div class=""question-area""></div> 
                </div>","null","","","","","","","","",""
"","","","","","html-button-response","104","344489","0.0-104.0","83DBFE11DC3D4AD6A9FDB0C15C10B4CA","019cf7c8-ecdb-7875-ba23-6e2c02947cfc","019cf7bd-52b9-7f96-9138-a5960b400b31","","860","
                <div class=""stimulus-container"">
                    <img src=""images/schematic_sequence/interview_scheme/interview_scheme_2.png"" class=""exp-image"">
                    <div class=""question-area"">
                        <p style=""font-size: 20px; font-weight: bold; margin: 0;"">Is there a person in this image?</p>
                    </div>
                </div>","0","main_experiment_trial","2","interview_scheme","schematic_sequence","","","","",""
"","","","","","html-keyboard-response","105","349493","0.0-105.0","83DBFE11DC3D4AD6A9FDB0C15C10B4CA","019cf7c8-ecdb-7875-ba23-6e2c02947cfc","019cf7bd-52b9-7f96-9138-a5960b400b31","","null","
                <div class=""stimulus-container"">
                    <img src=""images/schematic_sequence/interview_scheme/interview_scheme_3.png"" class=""exp-image"">
                    <div class=""question-area""></div> 
                </div>","null","","","","","","","","",""
"","","","","","html-button-response","106","350491","0.0-106.0","83DBFE11DC3D4AD6A9FDB0C15C10B4CA","019cf7c8-ecdb-7875-ba23-6e2c02947cfc","019cf7bd-52b9-7f96-9138-a5960b400b31","","996","
                <div class=""stimulus-container"">
                    <img src=""images/schematic_sequence/interview_scheme/interview_scheme_3.png"" class=""exp-image"">
                    <div class=""question-area"">
                        <p style=""font-size: 20px; font-weight: bold; margin: 0;"">Is there a person in this image?</p>
                    </div>
                </div>","1","main_experiment_trial","3","interview_scheme","schematic_sequence","","","","",""
"","","","","","html-keyboard-response","107","355678","0.0-107.0","83DBFE11DC3D4AD6A9FDB0C15C10B4CA","019cf7c8-ecdb-7875-ba23-6e2c02947cfc","019cf7bd-52b9-7f96-9138-a5960b400b31","","null","
                <div class=""stimulus-container"">
                    <img src=""images/schematic_sequence/interview_scheme/interview_scheme_4.png"" class=""exp-image"">
                    <div class=""question-area""></div> 
                </div>","null","","","","","","","","",""
"","","","","","html-button-response","108","356195","0.0-108.0","83DBFE11DC3D4AD6A9FDB0C15C10B4CA","019cf7c8-ecdb-7875-ba23-6e2c02947cfc","019cf7bd-52b9-7f96-9138-a5960b400b31","","516","
                <div class=""stimulus-container"">
                    <img src=""images/schematic_sequence/interview_scheme/interview_scheme_4.png"" class=""exp-image"">
                    <div class=""question-area"">
                        <p style=""font-size: 20px; font-weight: bold; margin: 0;"">Is there a person in this image?</p>
                    </div>
                </div>","1","main_experiment_trial","4","interview_scheme","schematic_sequence","","","","",""
"","","","","","html-keyboard-response","109","361198","0.0-109.0","83DBFE11DC3D4AD6A9FDB0C15C10B4CA","019cf7c8-ecdb-7875-ba23-6e2c02947cfc","019cf7bd-52b9-7f96-9138-a5960b400b31","","null","
                <div class=""stimulus-container"">
                    <img src=""images/schematic_sequence/interview_scheme/interview_scheme_5.png"" class=""exp-image"">
                    <div class=""question-area""></div> 
                </div>","null","","","","","","","","",""
"","","","","","html-button-response","110","361731","0.0-110.0","83DBFE11DC3D4AD6A9FDB0C15C10B4CA","019cf7c8-ecdb-7875-ba23-6e2c02947cfc","019cf7bd-52b9-7f96-9138-a5960b400b31","","531","
                <div class=""stimulus-container"">
                    <img src=""images/schematic_sequence/interview_scheme/interview_scheme_5.png"" class=""exp-image"">
                    <div class=""question-area"">
                        <p style=""font-size: 20px; font-weight: bold; margin: 0;"">Is there a person in this image?</p>
                    </div>
                </div>","0","main_experiment_trial","5","interview_scheme","schematic_sequence","","","","",""
"","","","","","html-keyboard-response","111","366738","0.0-111.0","83DBFE11DC3D4AD6A9FDB0C15C10B4CA","019cf7c8-ecdb-7875-ba23-6e2c02947cfc","019cf7bd-52b9-7f96-9138-a5960b400b31","","null","
                <div class=""stimulus-container"">
                    <img src=""images/schematic_sequence/interview_scheme/interview_scheme_6.png"" class=""exp-image"">
                    <div class=""question-area""></div> 
                </div>","null","","","","","","","","",""
"","","","","","html-button-response","112","367257","0.0-112.0","83DBFE11DC3D4AD6A9FDB0C15C10B4CA","019cf7c8-ecdb-7875-ba23-6e2c02947cfc","019cf7bd-52b9-7f96-9138-a5960b400b31","","519","
                <div class=""stimulus-container"">
                    <img src=""images/schematic_sequence/interview_scheme/interview_scheme_6.png"" class=""exp-image"">
                    <div class=""question-area"">
                        <p style=""font-size: 20px; font-weight: bold; margin: 0;"">Is there a person in this image?</p>
                    </div>
                </div>","0","main_experiment_trial","6","interview_scheme","schematic_sequence","","","","",""
"","","","","","html-keyboard-response","113","372267","0.0-113.0","83DBFE11DC3D4AD6A9FDB0C15C10B4CA","019cf7c8-ecdb-7875-ba23-6e2c02947cfc","019cf7bd-52b9-7f96-9138-a5960b400b31","","null","
                <div class=""stimulus-container"">
                    <img src=""images/schematic_sequence/interview_scheme/interview_scheme_7.png"" class=""exp-image"">
                    <div class=""question-area""></div> 
                </div>","null","","","","","","","","",""
"","","","","","html-button-response","114","372890","0.0-114.0","83DBFE11DC3D4AD6A9FDB0C15C10B4CA","019cf7c8-ecdb-7875-ba23-6e2c02947cfc","019cf7bd-52b9-7f96-9138-a5960b400b31","","623","
                <div class=""stimulus-container"">
                    <img src=""images/schematic_sequence/interview_scheme/interview_scheme_7.png"" class=""exp-image"">
                    <div class=""question-area"">
                        <p style=""font-size: 20px; font-weight: bold; margin: 0;"">Is there a person in this image?</p>
                    </div>
                </div>","0","main_experiment_trial","7","interview_scheme","schematic_sequence","","","","",""
"","","","","","html-keyboard-response","115","377899","0.0-115.0","83DBFE11DC3D4AD6A9FDB0C15C10B4CA","019cf7c8-ecdb-7875-ba23-6e2c02947cfc","019cf7bd-52b9-7f96-9138-a5960b400b31","","null","
                <div class=""stimulus-container"">
                    <img src=""images/schematic_sequence/interview_scheme/interview_scheme_8.png"" class=""exp-image"">
                    <div class=""question-area""></div> 
                </div>","null","","","","","","","","",""
"","","","","","html-button-response","116","378354","0.0-116.0","83DBFE11DC3D4AD6A9FDB0C15C10B4CA","019cf7c8-ecdb-7875-ba23-6e2c02947cfc","019cf7bd-52b9-7f96-9138-a5960b400b31","","455","
                <div class=""stimulus-container"">
                    <img src=""images/schematic_sequence/interview_scheme/interview_scheme_8.png"" class=""exp-image"">
                    <div class=""question-area"">
                        <p style=""font-size: 20px; font-weight: bold; margin: 0;"">Is there a person in this image?</p>
                    </div>
                </div>","0","main_experiment_trial","8","interview_scheme","schematic_sequence","","","","",""
"","","","","","html-keyboard-response","117","383362","0.0-117.0","83DBFE11DC3D4AD6A9FDB0C15C10B4CA","019cf7c8-ecdb-7875-ba23-6e2c02947cfc","019cf7bd-52b9-7f96-9138-a5960b400b31","","null","
                <div class=""stimulus-container"">
                    <img src=""images/schematic_sequence/interview_scheme/interview_scheme_9.png"" class=""exp-image"">
                    <div class=""question-area""></div> 
                </div>","null","","","","","","","","",""
"","","","","","html-button-response","118","383842","0.0-118.0","83DBFE11DC3D4AD6A9FDB0C15C10B4CA","019cf7c8-ecdb-7875-ba23-6e2c02947cfc","019cf7bd-52b9-7f96-9138-a5960b400b31","","479","
                <div class=""stimulus-container"">
                    <img src=""images/schematic_sequence/interview_scheme/interview_scheme_9.png"" class=""exp-image"">
                    <div class=""question-area"">
                        <p style=""font-size: 20px; font-weight: bold; margin: 0;"">Is there a person in this image?</p>
                    </div>
                </div>","0","main_experiment_trial","9","interview_scheme","schematic_sequence","","","","",""
"","","","","","html-keyboard-response","119","389061","0.0-119.0","83DBFE11DC3D4AD6A9FDB0C15C10B4CA","019cf7c8-ecdb-7875-ba23-6e2c02947cfc","019cf7bd-52b9-7f96-9138-a5960b400b31","","null","
                <div class=""stimulus-container"">
                    <img src=""images/schematic_sequence/interview_scheme/interview_scheme_ten.png"" class=""exp-image"">
                    <div class=""question-area""></div> 
                </div>","null","","","","","","","","",""
"","","","","","html-button-response","120","392082","0.0-120.0","83DBFE11DC3D4AD6A9FDB0C15C10B4CA","019cf7c8-ecdb-7875-ba23-6e2c02947cfc","019cf7bd-52b9-7f96-9138-a5960b400b31","","3021","
                <div class=""stimulus-container"">
                    <img src=""images/schematic_sequence/interview_scheme/interview_scheme_ten.png"" class=""exp-image"">
                    <div class=""question-area"">
                        <p style=""font-size: 20px; font-weight: bold; margin: 0;"">Is there a person in this image?</p>
                    </div>
                </div>","0","main_experiment_trial","ten","interview_scheme","schematic_sequence","","","","",""
"","","","","","html-keyboard-response","121","393089","0.0-121.0","83DBFE11DC3D4AD6A9FDB0C15C10B4CA","019cf7c8-ecdb-7875-ba23-6e2c02947cfc","019cf7bd-52b9-7f96-9138-a5960b400b31","","null","<div style=""background-color: white; width: 100vw; height: 100vh;""></div>","null","","","","","","","","",""
"","","","","","html-keyboard-response","122","398193","0.0-122.0","83DBFE11DC3D4AD6A9FDB0C15C10B4CA","019cf7c8-ecdb-7875-ba23-6e2c02947cfc","019cf7bd-52b9-7f96-9138-a5960b400b31","","null","
                <div class=""stimulus-container"">
                    <img src=""images/schematic_sequence/flight_scheme/flight_scheme_1.png"" class=""exp-image"">
                    <div class=""question-area""></div> 
                </div>","null","","","","","","","","",""
"","","","","","html-button-response","123","399427","0.0-123.0","83DBFE11DC3D4AD6A9FDB0C15C10B4CA","019cf7c8-ecdb-7875-ba23-6e2c02947cfc","019cf7bd-52b9-7f96-9138-a5960b400b31","","1235","
                <div class=""stimulus-container"">
                    <img src=""images/schematic_sequence/flight_scheme/flight_scheme_1.png"" class=""exp-image"">
                    <div class=""question-area"">
                        <p style=""font-size: 20px; font-weight: bold; margin: 0;"">Is there a person in this image?</p>
                    </div>
                </div>","0","main_experiment_trial","1","flight_scheme","schematic_sequence","","","","",""
"","","","","","html-keyboard-response","124","404436","0.0-124.0","83DBFE11DC3D4AD6A9FDB0C15C10B4CA","019cf7c8-ecdb-7875-ba23-6e2c02947cfc","019cf7bd-52b9-7f96-9138-a5960b400b31","","null","
                <div class=""stimulus-container"">
                    <img src=""images/schematic_sequence/flight_scheme/flight_scheme_2.png"" class=""exp-image"">
                    <div class=""question-area""></div> 
                </div>","null","","","","","","","","",""
"","","","","","html-button-response","125","407588","0.0-125.0","83DBFE11DC3D4AD6A9FDB0C15C10B4CA","019cf7c8-ecdb-7875-ba23-6e2c02947cfc","019cf7bd-52b9-7f96-9138-a5960b400b31","","null","
                <div class=""stimulus-container"">
                    <img src=""images/schematic_sequence/flight_scheme/flight_scheme_2.png"" class=""exp-image"">
                    <div class=""question-area"">
                        <p style=""font-size: 20px; font-weight: bold; margin: 0;"">Is there a person in this image?</p>
                    </div>
                </div>","null","main_experiment_trial","2","flight_scheme","schematic_sequence","","","","",""
"","","","","","html-keyboard-response","126","412652","0.0-126.0","83DBFE11DC3D4AD6A9FDB0C15C10B4CA","019cf7c8-ecdb-7875-ba23-6e2c02947cfc","019cf7bd-52b9-7f96-9138-a5960b400b31","","null","
                <div class=""stimulus-container"">
                    <img src=""images/schematic_sequence/flight_scheme/flight_scheme_3.png"" class=""exp-image"">
                    <div class=""question-area""></div> 
                </div>","null","","","","","","","","",""
"","","","","","html-button-response","127","413882","0.0-127.0","83DBFE11DC3D4AD6A9FDB0C15C10B4CA","019cf7c8-ecdb-7875-ba23-6e2c02947cfc","019cf7bd-52b9-7f96-9138-a5960b400b31","","1229","
                <div class=""stimulus-container"">
                    <img src=""images/schematic_sequence/flight_scheme/flight_scheme_3.png"" class=""exp-image"">
                    <div class=""question-area"">
                        <p style=""font-size: 20px; font-weight: bold; margin: 0;"">Is there a person in this image?</p>
                    </div>
                </div>","0","main_experiment_trial","3","flight_scheme","schematic_sequence","","","","",""
"","","","","","html-keyboard-response","128","419263","0.0-128.0","83DBFE11DC3D4AD6A9FDB0C15C10B4CA","019cf7c8-ecdb-7875-ba23-6e2c02947cfc","019cf7bd-52b9-7f96-9138-a5960b400b31","","null","
                <div class=""stimulus-container"">
                    <img src=""images/schematic_sequence/flight_scheme/flight_scheme_4.png"" class=""exp-image"">
                    <div class=""question-area""></div> 
                </div>","null","","","","","","","","",""
"","","","","","html-button-response","129","420314","0.0-129.0","83DBFE11DC3D4AD6A9FDB0C15C10B4CA","019cf7c8-ecdb-7875-ba23-6e2c02947cfc","019cf7bd-52b9-7f96-9138-a5960b400b31","","1052","
                <div class=""stimulus-container"">
                    <img src=""images/schematic_sequence/flight_scheme/flight_scheme_4.png"" class=""exp-image"">
                    <div class=""question-area"">
                        <p style=""font-size: 20px; font-weight: bold; margin: 0;"">Is there a person in this image?</p>
                    </div>
                </div>","0","main_experiment_trial","4","flight_scheme","schematic_sequence","","","","",""
"","","","","","html-keyboard-response","130","425577","0.0-130.0","83DBFE11DC3D4AD6A9FDB0C15C10B4CA","019cf7c8-ecdb-7875-ba23-6e2c02947cfc","019cf7bd-52b9-7f96-9138-a5960b400b31","","null","
                <div class=""stimulus-container"">
                    <img src=""images/schematic_sequence/flight_scheme/flight_scheme_5.png"" class=""exp-image"">
                    <div class=""question-area""></div> 
                </div>","null","","","","","","","","",""
"","","","","","html-button-response","131","426602","0.0-131.0","83DBFE11DC3D4AD6A9FDB0C15C10B4CA","019cf7c8-ecdb-7875-ba23-6e2c02947cfc","019cf7bd-52b9-7f96-9138-a5960b400b31","","1025","
                <div class=""stimulus-container"">
                    <img src=""images/schematic_sequence/flight_scheme/flight_scheme_5.png"" class=""exp-image"">
                    <div class=""question-area"">
                        <p style=""font-size: 20px; font-weight: bold; margin: 0;"">Is there a person in this image?</p>
                    </div>
                </div>","0","main_experiment_trial","5","flight_scheme","schematic_sequence","","","","",""
"","","","","","html-keyboard-response","132","431808","0.0-132.0","83DBFE11DC3D4AD6A9FDB0C15C10B4CA","019cf7c8-ecdb-7875-ba23-6e2c02947cfc","019cf7bd-52b9-7f96-9138-a5960b400b31","","null","
                <div class=""stimulus-container"">
                    <img src=""images/schematic_sequence/flight_scheme/flight_scheme_6.png"" class=""exp-image"">
                    <div class=""question-area""></div> 
                </div>","null","","","","","","","","",""
"","","","","","html-button-response","133","432946","0.0-133.0","83DBFE11DC3D4AD6A9FDB0C15C10B4CA","019cf7c8-ecdb-7875-ba23-6e2c02947cfc","019cf7bd-52b9-7f96-9138-a5960b400b31","","1139","
                <div class=""stimulus-container"">
                    <img src=""images/schematic_sequence/flight_scheme/flight_scheme_6.png"" class=""exp-image"">
                    <div class=""question-area"">
                        <p style=""font-size: 20px; font-weight: bold; margin: 0;"">Is there a person in this image?</p>
                    </div>
                </div>","1","main_experiment_trial","6","flight_scheme","schematic_sequence","","","","",""
"","","","","","html-keyboard-response","134","437955","0.0-134.0","83DBFE11DC3D4AD6A9FDB0C15C10B4CA","019cf7c8-ecdb-7875-ba23-6e2c02947cfc","019cf7bd-52b9-7f96-9138-a5960b400b31","","null","
                <div class=""stimulus-container"">
                    <img src=""images/schematic_sequence/flight_scheme/flight_scheme_7.png"" class=""exp-image"">
                    <div class=""question-area""></div> 
                </div>","null","","","","","","","","",""
"","","","","","html-button-response","135","438706","0.0-135.0","83DBFE11DC3D4AD6A9FDB0C15C10B4CA","019cf7c8-ecdb-7875-ba23-6e2c02947cfc","019cf7bd-52b9-7f96-9138-a5960b400b31","","751","
                <div class=""stimulus-container"">
                    <img src=""images/schematic_sequence/flight_scheme/flight_scheme_7.png"" class=""exp-image"">
                    <div class=""question-area"">
                        <p style=""font-size: 20px; font-weight: bold; margin: 0;"">Is there a person in this image?</p>
                    </div>
                </div>","0","main_experiment_trial","7","flight_scheme","schematic_sequence","","","","",""
"","","","","","html-keyboard-response","136","444100","0.0-136.0","83DBFE11DC3D4AD6A9FDB0C15C10B4CA","019cf7c8-ecdb-7875-ba23-6e2c02947cfc","019cf7bd-52b9-7f96-9138-a5960b400b31","","null","
                <div class=""stimulus-container"">
                    <img src=""images/schematic_sequence/flight_scheme/flight_scheme_8.png"" class=""exp-image"">
                    <div class=""question-area""></div> 
                </div>","null","","","","","","","","",""
"","","","","","html-button-response","137","445178","0.0-137.0","83DBFE11DC3D4AD6A9FDB0C15C10B4CA","019cf7c8-ecdb-7875-ba23-6e2c02947cfc","019cf7bd-52b9-7f96-9138-a5960b400b31","","1077","
                <div class=""stimulus-container"">
                    <img src=""images/schematic_sequence/flight_scheme/flight_scheme_8.png"" class=""exp-image"">
                    <div class=""question-area"">
                        <p style=""font-size: 20px; font-weight: bold; margin: 0;"">Is there a person in this image?</p>
                    </div>
                </div>","1","main_experiment_trial","8","flight_scheme","schematic_sequence","","","","",""
"","","","","","html-keyboard-response","138","450221","0.0-138.0","83DBFE11DC3D4AD6A9FDB0C15C10B4CA","019cf7c8-ecdb-7875-ba23-6e2c02947cfc","019cf7bd-52b9-7f96-9138-a5960b400b31","","null","
                <div class=""stimulus-container"">
                    <img src=""images/schematic_sequence/flight_scheme/flight_scheme_9.png"" class=""exp-image"">
                    <div class=""question-area""></div> 
                </div>","null","","","","","","","","",""
"","","","","","html-button-response","139","451994","0.0-139.0","83DBFE11DC3D4AD6A9FDB0C15C10B4CA","019cf7c8-ecdb-7875-ba23-6e2c02947cfc","019cf7bd-52b9-7f96-9138-a5960b400b31","","1772","
                <div class=""stimulus-container"">
                    <img src=""images/schematic_sequence/flight_scheme/flight_scheme_9.png"" class=""exp-image"">
                    <div class=""question-area"">
                        <p style=""font-size: 20px; font-weight: bold; margin: 0;"">Is there a person in this image?</p>
                    </div>
                </div>","0","main_experiment_trial","9","flight_scheme","schematic_sequence","","","","",""
"","","","","","html-keyboard-response","140","457001","0.0-140.0","83DBFE11DC3D4AD6A9FDB0C15C10B4CA","019cf7c8-ecdb-7875-ba23-6e2c02947cfc","019cf7bd-52b9-7f96-9138-a5960b400b31","","null","
                <div class=""stimulus-container"">
                    <img src=""images/schematic_sequence/flight_scheme/flight_scheme_ten.png"" class=""exp-image"">
                    <div class=""question-area""></div> 
                </div>","null","","","","","","","","",""
"","","","","","html-button-response","141","457938","0.0-141.0","83DBFE11DC3D4AD6A9FDB0C15C10B4CA","019cf7c8-ecdb-7875-ba23-6e2c02947cfc","019cf7bd-52b9-7f96-9138-a5960b400b31","","937","
                <div class=""stimulus-container"">
                    <img src=""images/schematic_sequence/flight_scheme/flight_scheme_ten.png"" class=""exp-image"">
                    <div class=""question-area"">
                        <p style=""font-size: 20px; font-weight: bold; margin: 0;"">Is there a person in this image?</p>
                    </div>
                </div>","0","main_experiment_trial","ten","flight_scheme","schematic_sequence","","","","",""
"","","","","","html-keyboard-response","142","459009","0.0-142.0","83DBFE11DC3D4AD6A9FDB0C15C10B4CA","019cf7c8-ecdb-7875-ba23-6e2c02947cfc","019cf7bd-52b9-7f96-9138-a5960b400b31","","null","<div style=""background-color: white; width: 100vw; height: 100vh;""></div>","null","","","","","","","","",""
"","","","","","html-keyboard-response","143","464089","0.0-143.0","83DBFE11DC3D4AD6A9FDB0C15C10B4CA","019cf7c8-ecdb-7875-ba23-6e2c02947cfc","019cf7bd-52b9-7f96-9138-a5960b400b31","","null","
                <div class=""stimulus-container"">
                    <img src=""images/semantic_sequence/market_semantic/market_semantic_1.png"" class=""exp-image"">
                    <div class=""question-area""></div> 
                </div>","null","","","","","","","","",""
"","","","","","html-button-response","144","465595","0.0-144.0","83DBFE11DC3D4AD6A9FDB0C15C10B4CA","019cf7c8-ecdb-7875-ba23-6e2c02947cfc","019cf7bd-52b9-7f96-9138-a5960b400b31","","1504","
                <div class=""stimulus-container"">
                    <img src=""images/semantic_sequence/market_semantic/market_semantic_1.png"" class=""exp-image"">
                    <div class=""question-area"">
                        <p style=""font-size: 20px; font-weight: bold; margin: 0;"">Is there a person in this image?</p>
                    </div>
                </div>","1","main_experiment_trial","1","market_semantic","semantic_sequence","","","","",""
"","","","","","html-keyboard-response","145","470618","0.0-145.0","83DBFE11DC3D4AD6A9FDB0C15C10B4CA","019cf7c8-ecdb-7875-ba23-6e2c02947cfc","019cf7bd-52b9-7f96-9138-a5960b400b31","","null","
                <div class=""stimulus-container"">
                    <img src=""images/semantic_sequence/market_semantic/market_semantic_2.png"" class=""exp-image"">
                    <div class=""question-area""></div> 
                </div>","null","","","","","","","","",""
"","","","","","html-button-response","146","472122","0.0-146.0","83DBFE11DC3D4AD6A9FDB0C15C10B4CA","019cf7c8-ecdb-7875-ba23-6e2c02947cfc","019cf7bd-52b9-7f96-9138-a5960b400b31","","1504","
                <div class=""stimulus-container"">
                    <img src=""images/semantic_sequence/market_semantic/market_semantic_2.png"" class=""exp-image"">
                    <div class=""question-area"">
                        <p style=""font-size: 20px; font-weight: bold; margin: 0;"">Is there a person in this image?</p>
                    </div>
                </div>","1","main_experiment_trial","2","market_semantic","semantic_sequence","","","","",""
"","","","","","html-keyboard-response","147","477145","0.0-147.0","83DBFE11DC3D4AD6A9FDB0C15C10B4CA","019cf7c8-ecdb-7875-ba23-6e2c02947cfc","019cf7bd-52b9-7f96-9138-a5960b400b31","","null","
                <div class=""stimulus-container"">
                    <img src=""images/semantic_sequence/market_semantic/market_semantic_3.png"" class=""exp-image"">
                    <div class=""question-area""></div> 
                </div>","null","","","","","","","","",""
"","","","","","html-button-response","148","478064","0.0-148.0","83DBFE11DC3D4AD6A9FDB0C15C10B4CA","019cf7c8-ecdb-7875-ba23-6e2c02947cfc","019cf7bd-52b9-7f96-9138-a5960b400b31","","920","
                <div class=""stimulus-container"">
                    <img src=""images/semantic_sequence/market_semantic/market_semantic_3.png"" class=""exp-image"">
                    <div class=""question-area"">
                        <p style=""font-size: 20px; font-weight: bold; margin: 0;"">Is there a person in this image?</p>
                    </div>
                </div>","1","main_experiment_trial","3","market_semantic","semantic_sequence","","","","",""
"","","","","","html-keyboard-response","149","483240","0.0-149.0","83DBFE11DC3D4AD6A9FDB0C15C10B4CA","019cf7c8-ecdb-7875-ba23-6e2c02947cfc","019cf7bd-52b9-7f96-9138-a5960b400b31","","null","
                <div class=""stimulus-container"">
                    <img src=""images/semantic_sequence/market_semantic/market_semantic_4.png"" class=""exp-image"">
                    <div class=""question-area""></div> 
                </div>","null","","","","","","","","",""
"","","","","","html-button-response","150","484226","0.0-150.0","83DBFE11DC3D4AD6A9FDB0C15C10B4CA","019cf7c8-ecdb-7875-ba23-6e2c02947cfc","019cf7bd-52b9-7f96-9138-a5960b400b31","","984","
                <div class=""stimulus-container"">
                    <img src=""images/semantic_sequence/market_semantic/market_semantic_4.png"" class=""exp-image"">
                    <div class=""question-area"">
                        <p style=""font-size: 20px; font-weight: bold; margin: 0;"">Is there a person in this image?</p>
                    </div>
                </div>","0","main_experiment_trial","4","market_semantic","semantic_sequence","","","","",""
"","","","","","html-keyboard-response","151","489519","0.0-151.0","83DBFE11DC3D4AD6A9FDB0C15C10B4CA","019cf7c8-ecdb-7875-ba23-6e2c02947cfc","019cf7bd-52b9-7f96-9138-a5960b400b31","","null","
                <div class=""stimulus-container"">
                    <img src=""images/semantic_sequence/market_semantic/market_semantic_5.png"" class=""exp-image"">
                    <div class=""question-area""></div> 
                </div>","null","","","","","","","","",""
"","","","","","html-button-response","152","490546","0.0-152.0","83DBFE11DC3D4AD6A9FDB0C15C10B4CA","019cf7c8-ecdb-7875-ba23-6e2c02947cfc","019cf7bd-52b9-7f96-9138-a5960b400b31","","1026","
                <div class=""stimulus-container"">
                    <img src=""images/semantic_sequence/market_semantic/market_semantic_5.png"" class=""exp-image"">
                    <div class=""question-area"">
                        <p style=""font-size: 20px; font-weight: bold; margin: 0;"">Is there a person in this image?</p>
                    </div>
                </div>","1","main_experiment_trial","5","market_semantic","semantic_sequence","","","","",""
"","","","","","html-keyboard-response","153","495551","0.0-153.0","83DBFE11DC3D4AD6A9FDB0C15C10B4CA","019cf7c8-ecdb-7875-ba23-6e2c02947cfc","019cf7bd-52b9-7f96-9138-a5960b400b31","","null","
                <div class=""stimulus-container"">
                    <img src=""images/semantic_sequence/market_semantic/market_semantic_6.png"" class=""exp-image"">
                    <div class=""question-area""></div> 
                </div>","null","","","","","","","","",""
"","","","","","html-button-response","154","496641","0.0-154.0","83DBFE11DC3D4AD6A9FDB0C15C10B4CA","019cf7c8-ecdb-7875-ba23-6e2c02947cfc","019cf7bd-52b9-7f96-9138-a5960b400b31","","1091","
                <div class=""stimulus-container"">
                    <img src=""images/semantic_sequence/market_semantic/market_semantic_6.png"" class=""exp-image"">
                    <div class=""question-area"">
                        <p style=""font-size: 20px; font-weight: bold; margin: 0;"">Is there a person in this image?</p>
                    </div>
                </div>","1","main_experiment_trial","6","market_semantic","semantic_sequence","","","","",""
"","","","","","html-keyboard-response","155","501670","0.0-155.0","83DBFE11DC3D4AD6A9FDB0C15C10B4CA","019cf7c8-ecdb-7875-ba23-6e2c02947cfc","019cf7bd-52b9-7f96-9138-a5960b400b31","","null","
                <div class=""stimulus-container"">
                    <img src=""images/semantic_sequence/market_semantic/market_semantic_7.png"" class=""exp-image"">
                    <div class=""question-area""></div> 
                </div>","null","","","","","","","","",""
"","","","","","html-button-response","156","502610","0.0-156.0","83DBFE11DC3D4AD6A9FDB0C15C10B4CA","019cf7c8-ecdb-7875-ba23-6e2c02947cfc","019cf7bd-52b9-7f96-9138-a5960b400b31","","939","
                <div class=""stimulus-container"">
                    <img src=""images/semantic_sequence/market_semantic/market_semantic_7.png"" class=""exp-image"">
                    <div class=""question-area"">
                        <p style=""font-size: 20px; font-weight: bold; margin: 0;"">Is there a person in this image?</p>
                    </div>
                </div>","0","main_experiment_trial","7","market_semantic","semantic_sequence","","","","",""
"","","","","","html-keyboard-response","157","507623","0.0-157.0","83DBFE11DC3D4AD6A9FDB0C15C10B4CA","019cf7c8-ecdb-7875-ba23-6e2c02947cfc","019cf7bd-52b9-7f96-9138-a5960b400b31","","null","
                <div class=""stimulus-container"">
                    <img src=""images/semantic_sequence/market_semantic/market_semantic_8.png"" class=""exp-image"">
                    <div class=""question-area""></div> 
                </div>","null","","","","","","","","",""
"","","","","","html-button-response","158","508938","0.0-158.0","83DBFE11DC3D4AD6A9FDB0C15C10B4CA","019cf7c8-ecdb-7875-ba23-6e2c02947cfc","019cf7bd-52b9-7f96-9138-a5960b400b31","","1315","
                <div class=""stimulus-container"">
                    <img src=""images/semantic_sequence/market_semantic/market_semantic_8.png"" class=""exp-image"">
                    <div class=""question-area"">
                        <p style=""font-size: 20px; font-weight: bold; margin: 0;"">Is there a person in this image?</p>
                    </div>
                </div>","0","main_experiment_trial","8","market_semantic","semantic_sequence","","","","",""
"","","","","","html-keyboard-response","159","513986","0.0-159.0","83DBFE11DC3D4AD6A9FDB0C15C10B4CA","019cf7c8-ecdb-7875-ba23-6e2c02947cfc","019cf7bd-52b9-7f96-9138-a5960b400b31","","null","
                <div class=""stimulus-container"">
                    <img src=""images/semantic_sequence/market_semantic/market_semantic_9.png"" class=""exp-image"">
                    <div class=""question-area""></div> 
                </div>","null","","","","","","","","",""
"","","","","","html-button-response","160","515163","0.0-160.0","83DBFE11DC3D4AD6A9FDB0C15C10B4CA","019cf7c8-ecdb-7875-ba23-6e2c02947cfc","019cf7bd-52b9-7f96-9138-a5960b400b31","","1176","
                <div class=""stimulus-container"">
                    <img src=""images/semantic_sequence/market_semantic/market_semantic_9.png"" class=""exp-image"">
                    <div class=""question-area"">
                        <p style=""font-size: 20px; font-weight: bold; margin: 0;"">Is there a person in this image?</p>
                    </div>
                </div>","0","main_experiment_trial","9","market_semantic","semantic_sequence","","","","",""
"","","","","","html-keyboard-response","161","520178","0.0-161.0","83DBFE11DC3D4AD6A9FDB0C15C10B4CA","019cf7c8-ecdb-7875-ba23-6e2c02947cfc","019cf7bd-52b9-7f96-9138-a5960b400b31","","null","
                <div class=""stimulus-container"">
                    <img src=""images/semantic_sequence/market_semantic/market_semantic_ten.png"" class=""exp-image"">
                    <div class=""question-area""></div> 
                </div>","null","","","","","","","","",""
"","","","","","html-button-response","162","521298","0.0-162.0","83DBFE11DC3D4AD6A9FDB0C15C10B4CA","019cf7c8-ecdb-7875-ba23-6e2c02947cfc","019cf7bd-52b9-7f96-9138-a5960b400b31","","1120","
                <div class=""stimulus-container"">
                    <img src=""images/semantic_sequence/market_semantic/market_semantic_ten.png"" class=""exp-image"">
                    <div class=""question-area"">
                        <p style=""font-size: 20px; font-weight: bold; margin: 0;"">Is there a person in this image?</p>
                    </div>
                </div>","1","main_experiment_trial","ten","market_semantic","semantic_sequence","","","","",""
"","","","","","html-keyboard-response","163","522301","0.0-163.0","83DBFE11DC3D4AD6A9FDB0C15C10B4CA","019cf7c8-ecdb-7875-ba23-6e2c02947cfc","019cf7bd-52b9-7f96-9138-a5960b400b31","","null","<div style=""background-color: white; width: 100vw; height: 100vh;""></div>","null","","","","","","","","",""
"","","","","","html-keyboard-response","164","527641","0.0-164.0","83DBFE11DC3D4AD6A9FDB0C15C10B4CA","019cf7c8-ecdb-7875-ba23-6e2c02947cfc","019cf7bd-52b9-7f96-9138-a5960b400b31","","null","
                <div class=""stimulus-container"">
                    <img src=""images/semantic_sequence/physical_activity_semantic/physical_activity_semantic_1.png"" class=""exp-image"">
                    <div class=""question-area""></div> 
                </div>","null","","","","","","","","",""
"","","","","","html-button-response","165","529049","0.0-165.0","83DBFE11DC3D4AD6A9FDB0C15C10B4CA","019cf7c8-ecdb-7875-ba23-6e2c02947cfc","019cf7bd-52b9-7f96-9138-a5960b400b31","","1408","
                <div class=""stimulus-container"">
                    <img src=""images/semantic_sequence/physical_activity_semantic/physical_activity_semantic_1.png"" class=""exp-image"">
                    <div class=""question-area"">
                        <p style=""font-size: 20px; font-weight: bold; margin: 0;"">Is there a person in this image?</p>
                    </div>
                </div>","0","main_experiment_trial","1","physical_activity_semantic","semantic_sequence","","","","",""
"","","","","","html-keyboard-response","166","534050","0.0-166.0","83DBFE11DC3D4AD6A9FDB0C15C10B4CA","019cf7c8-ecdb-7875-ba23-6e2c02947cfc","019cf7bd-52b9-7f96-9138-a5960b400b31","","null","
                <div class=""stimulus-container"">
                    <img src=""images/semantic_sequence/physical_activity_semantic/physical_activity_semantic_2.png"" class=""exp-image"">
                    <div class=""question-area""></div> 
                </div>","null","","","","","","","","",""
"","","","","","html-button-response","167","535186","0.0-167.0","83DBFE11DC3D4AD6A9FDB0C15C10B4CA","019cf7c8-ecdb-7875-ba23-6e2c02947cfc","019cf7bd-52b9-7f96-9138-a5960b400b31","","1135","
                <div class=""stimulus-container"">
                    <img src=""images/semantic_sequence/physical_activity_semantic/physical_activity_semantic_2.png"" class=""exp-image"">
                    <div class=""question-area"">
                        <p style=""font-size: 20px; font-weight: bold; margin: 0;"">Is there a person in this image?</p>
                    </div>
                </div>","0","main_experiment_trial","2","physical_activity_semantic","semantic_sequence","","","","",""
"","","","","","html-keyboard-response","168","540192","0.0-168.0","83DBFE11DC3D4AD6A9FDB0C15C10B4CA","019cf7c8-ecdb-7875-ba23-6e2c02947cfc","019cf7bd-52b9-7f96-9138-a5960b400b31","","null","
                <div class=""stimulus-container"">
                    <img src=""images/semantic_sequence/physical_activity_semantic/physical_activity_semantic_3.png"" class=""exp-image"">
                    <div class=""question-area""></div> 
                </div>","null","","","","","","","","",""
"","","","","","html-button-response","169","541674","0.0-169.0","83DBFE11DC3D4AD6A9FDB0C15C10B4CA","019cf7c8-ecdb-7875-ba23-6e2c02947cfc","019cf7bd-52b9-7f96-9138-a5960b400b31","","1481","
                <div class=""stimulus-container"">
                    <img src=""images/semantic_sequence/physical_activity_semantic/physical_activity_semantic_3.png"" class=""exp-image"">
                    <div class=""question-area"">
                        <p style=""font-size: 20px; font-weight: bold; margin: 0;"">Is there a person in this image?</p>
                    </div>
                </div>","0","main_experiment_trial","3","physical_activity_semantic","semantic_sequence","","","","",""
"","","","","","html-keyboard-response","170","546822","0.0-170.0","83DBFE11DC3D4AD6A9FDB0C15C10B4CA","019cf7c8-ecdb-7875-ba23-6e2c02947cfc","019cf7bd-52b9-7f96-9138-a5960b400b31","","null","
                <div class=""stimulus-container"">
                    <img src=""images/semantic_sequence/physical_activity_semantic/physical_activity_semantic_4.png"" class=""exp-image"">
                    <div class=""question-area""></div> 
                </div>","null","","","","","","","","",""
"","","","","","html-button-response","171","547522","0.0-171.0","83DBFE11DC3D4AD6A9FDB0C15C10B4CA","019cf7c8-ecdb-7875-ba23-6e2c02947cfc","019cf7bd-52b9-7f96-9138-a5960b400b31","","699","
                <div class=""stimulus-container"">
                    <img src=""images/semantic_sequence/physical_activity_semantic/physical_activity_semantic_4.png"" class=""exp-image"">
                    <div class=""question-area"">
                        <p style=""font-size: 20px; font-weight: bold; margin: 0;"">Is there a person in this image?</p>
                    </div>
                </div>","0","main_experiment_trial","4","physical_activity_semantic","semantic_sequence","","","","",""
"","","","","","html-keyboard-response","172","552527","0.0-172.0","83DBFE11DC3D4AD6A9FDB0C15C10B4CA","019cf7c8-ecdb-7875-ba23-6e2c02947cfc","019cf7bd-52b9-7f96-9138-a5960b400b31","","null","
                <div class=""stimulus-container"">
                    <img src=""images/semantic_sequence/physical_activity_semantic/physical_activity_semantic_5.png"" class=""exp-image"">
                    <div class=""question-area""></div> 
                </div>","null","","","","","","","","",""
"","","","","","html-button-response","173","553417","0.0-173.0","83DBFE11DC3D4AD6A9FDB0C15C10B4CA","019cf7c8-ecdb-7875-ba23-6e2c02947cfc","019cf7bd-52b9-7f96-9138-a5960b400b31","","889","
                <div class=""stimulus-container"">
                    <img src=""images/semantic_sequence/physical_activity_semantic/physical_activity_semantic_5.png"" class=""exp-image"">
                    <div class=""question-area"">
                        <p style=""font-size: 20px; font-weight: bold; margin: 0;"">Is there a person in this image?</p>
                    </div>
                </div>","0","main_experiment_trial","5","physical_activity_semantic","semantic_sequence","","","","",""
"","","","","","html-keyboard-response","174","558441","0.0-174.0","83DBFE11DC3D4AD6A9FDB0C15C10B4CA","019cf7c8-ecdb-7875-ba23-6e2c02947cfc","019cf7bd-52b9-7f96-9138-a5960b400b31","","null","
                <div class=""stimulus-container"">
                    <img src=""images/semantic_sequence/physical_activity_semantic/physical_activity_semantic_6.png"" class=""exp-image"">
                    <div class=""question-area""></div> 
                </div>","null","","","","","","","","",""
"","","","","","html-button-response","175","559225","0.0-175.0","83DBFE11DC3D4AD6A9FDB0C15C10B4CA","019cf7c8-ecdb-7875-ba23-6e2c02947cfc","019cf7bd-52b9-7f96-9138-a5960b400b31","","784","
                <div class=""stimulus-container"">
                    <img src=""images/semantic_sequence/physical_activity_semantic/physical_activity_semantic_6.png"" class=""exp-image"">
                    <div class=""question-area"">
                        <p style=""font-size: 20px; font-weight: bold; margin: 0;"">Is there a person in this image?</p>
                    </div>
                </div>","0","main_experiment_trial","6","physical_activity_semantic","semantic_sequence","","","","",""
"","","","","","html-keyboard-response","176","564245","0.0-176.0","83DBFE11DC3D4AD6A9FDB0C15C10B4CA","019cf7c8-ecdb-7875-ba23-6e2c02947cfc","019cf7bd-52b9-7f96-9138-a5960b400b31","","null","
                <div class=""stimulus-container"">
                    <img src=""images/semantic_sequence/physical_activity_semantic/physical_activity_semantic_7.png"" class=""exp-image"">
                    <div class=""question-area""></div> 
                </div>","null","","","","","","","","",""
"","","","","","html-button-response","177","564897","0.0-177.0","83DBFE11DC3D4AD6A9FDB0C15C10B4CA","019cf7c8-ecdb-7875-ba23-6e2c02947cfc","019cf7bd-52b9-7f96-9138-a5960b400b31","","651","
                <div class=""stimulus-container"">
                    <img src=""images/semantic_sequence/physical_activity_semantic/physical_activity_semantic_7.png"" class=""exp-image"">
                    <div class=""question-area"">
                        <p style=""font-size: 20px; font-weight: bold; margin: 0;"">Is there a person in this image?</p>
                    </div>
                </div>","0","main_experiment_trial","7","physical_activity_semantic","semantic_sequence","","","","",""
"","","","","","html-keyboard-response","178","569911","0.0-178.0","83DBFE11DC3D4AD6A9FDB0C15C10B4CA","019cf7c8-ecdb-7875-ba23-6e2c02947cfc","019cf7bd-52b9-7f96-9138-a5960b400b31","","null","
                <div class=""stimulus-container"">
                    <img src=""images/semantic_sequence/physical_activity_semantic/physical_activity_semantic_8.png"" class=""exp-image"">
                    <div class=""question-area""></div> 
                </div>","null","","","","","","","","",""
"","","","","","html-button-response","179","570649","0.0-179.0","83DBFE11DC3D4AD6A9FDB0C15C10B4CA","019cf7c8-ecdb-7875-ba23-6e2c02947cfc","019cf7bd-52b9-7f96-9138-a5960b400b31","","737","
                <div class=""stimulus-container"">
                    <img src=""images/semantic_sequence/physical_activity_semantic/physical_activity_semantic_8.png"" class=""exp-image"">
                    <div class=""question-area"">
