"success","timeout","failed_images","failed_audio","failed_video","trial_type","trial_index","time_elapsed","internal_node_id","subject_id","study_id","session_id","view_history","rt","stimulus","response","task","image_index","folder","sequence_type","valuable_image_index","reward_type","left_idx","right_idx","lucky_X","chosen_image_index","distance_from_X","left_image_index","right_image_index"
"true","false","[]","[]","[]","preload","0","6364","0.0-0.0","407393E08DF84DF3BD1A12A0E4ECB005","019cea6e-5844-7fd6-9dc4-eb9428bc6297","019cea5b-a1d2-7168-a211-b4d8162559a9","","","","","","","","","","","","","","","","",""
"","","","","","instructions","1","8782","0.0-1.0","407393E08DF84DF3BD1A12A0E4ECB005","019cea6e-5844-7fd6-9dc4-eb9428bc6297","019cea5b-a1d2-7168-a211-b4d8162559a9","[{""page_index"":0,""viewing_time"":2416}]","2416","","","","","","","","","","","","","","",""
"","","","","","instructions","2","12227","0.0-2.0","407393E08DF84DF3BD1A12A0E4ECB005","019cea6e-5844-7fd6-9dc4-eb9428bc6297","019cea5b-a1d2-7168-a211-b4d8162559a9","[{""page_index"":0,""viewing_time"":3445}]","3445","","","","","","","","","","","","","","",""
"true","","","","","fullscreen","3","14866","0.0-3.0","407393E08DF84DF3BD1A12A0E4ECB005","019cea6e-5844-7fd6-9dc4-eb9428bc6297","019cea5b-a1d2-7168-a211-b4d8162559a9","","1633","","","","","","","","","","","","","","",""
"","","","","","instructions","4","30612","0.0-4.0","407393E08DF84DF3BD1A12A0E4ECB005","019cea6e-5844-7fd6-9dc4-eb9428bc6297","019cea5b-a1d2-7168-a211-b4d8162559a9","[{""page_index"":0,""viewing_time"":15746}]","15746","","","","","","","","","","","","","","",""
"","","","","","instructions","5","69699","0.0-5.0","407393E08DF84DF3BD1A12A0E4ECB005","019cea6e-5844-7fd6-9dc4-eb9428bc6297","019cea5b-a1d2-7168-a211-b4d8162559a9","[{""page_index"":0,""viewing_time"":39084}]","39084","","","","","","","","","","","","","","",""
"","","","","","html-keyboard-response","6","73703","0.0-6.0","407393E08DF84DF3BD1A12A0E4ECB005","019cea6e-5844-7fd6-9dc4-eb9428bc6297","019cea5b-a1d2-7168-a211-b4d8162559a9","","null","
                <div class=""stimulus-container"">
                    <img src=""images/instructions/movie_1.png"" class=""exp-image"">
                    <div class=""question-area""></div> 
                </div>","null","","","","","","","","","","","","",""
"","","","","","html-button-response","7","76367","0.0-7.0","407393E08DF84DF3BD1A12A0E4ECB005","019cea6e-5844-7fd6-9dc4-eb9428bc6297","019cea5b-a1d2-7168-a211-b4d8162559a9","","2661","
                <div class=""stimulus-container"">
                    <img src=""images/instructions/movie_1.png"" class=""exp-image"">
                    <div class=""question-area"">
                        <p style=""font-size: 20px; font-weight: bold; margin: 0;"">Was there a person in this image?</p>
                    </div>
                </div>","0","example_question","1","","","","","","","","","","",""
"","","","","","html-keyboard-response","8","80382","0.0-8.0","407393E08DF84DF3BD1A12A0E4ECB005","019cea6e-5844-7fd6-9dc4-eb9428bc6297","019cea5b-a1d2-7168-a211-b4d8162559a9","","null","
                <div class=""stimulus-container"">
                    <img src=""images/instructions/movie_2.png"" class=""exp-image"">
                    <div class=""question-area""></div> 
                </div>","null","","","","","","","","","","","","",""
"","","","","","html-button-response","9","81865","0.0-9.0","407393E08DF84DF3BD1A12A0E4ECB005","019cea6e-5844-7fd6-9dc4-eb9428bc6297","019cea5b-a1d2-7168-a211-b4d8162559a9","","1482","
                <div class=""stimulus-container"">
                    <img src=""images/instructions/movie_2.png"" class=""exp-image"">
                    <div class=""question-area"">
                        <p style=""font-size: 20px; font-weight: bold; margin: 0;"">Was there a person in this image?</p>
                    </div>
                </div>","0","example_question","2","","","","","","","","","","",""
"","","","","","html-keyboard-response","10","85882","0.0-10.0","407393E08DF84DF3BD1A12A0E4ECB005","019cea6e-5844-7fd6-9dc4-eb9428bc6297","019cea5b-a1d2-7168-a211-b4d8162559a9","","null","
                <div class=""stimulus-container"">
                    <img src=""images/instructions/movie_3.png"" class=""exp-image"">
                    <div class=""question-area""></div> 
                </div>","null","","","","","","","","","","","","",""
"","","","","","html-button-response","11","88883","0.0-11.0","407393E08DF84DF3BD1A12A0E4ECB005","019cea6e-5844-7fd6-9dc4-eb9428bc6297","019cea5b-a1d2-7168-a211-b4d8162559a9","","null","
                <div class=""stimulus-container"">
                    <img src=""images/instructions/movie_3.png"" class=""exp-image"">
                    <div class=""question-area"">
                        <p style=""font-size: 20px; font-weight: bold; margin: 0;"">Was there a person in this image?</p>
                    </div>
                </div>","null","example_question","3","","","","","","","","","","",""
"","","","","","html-keyboard-response","12","92897","0.0-12.0","407393E08DF84DF3BD1A12A0E4ECB005","019cea6e-5844-7fd6-9dc4-eb9428bc6297","019cea5b-a1d2-7168-a211-b4d8162559a9","","null","
                <div class=""stimulus-container"">
                    <img src=""images/instructions/movie_4.png"" class=""exp-image"">
                    <div class=""question-area""></div> 
                </div>","null","","","","","","","","","","","","",""
"","","","","","html-button-response","13","95913","0.0-13.0","407393E08DF84DF3BD1A12A0E4ECB005","019cea6e-5844-7fd6-9dc4-eb9428bc6297","019cea5b-a1d2-7168-a211-b4d8162559a9","","null","
                <div class=""stimulus-container"">
                    <img src=""images/instructions/movie_4.png"" class=""exp-image"">
                    <div class=""question-area"">
                        <p style=""font-size: 20px; font-weight: bold; margin: 0;"">Was there a person in this image?</p>
                    </div>
                </div>","null","example_question","4","","","","","","","","","","",""
"","","","","","instructions","14","125668","0.0-14.0","407393E08DF84DF3BD1A12A0E4ECB005","019cea6e-5844-7fd6-9dc4-eb9428bc6297","019cea5b-a1d2-7168-a211-b4d8162559a9","[{""page_index"":0,""viewing_time"":29753}]","29753","","","","","","","","","","","","","","",""
"","","","","","html-keyboard-response","15","126680","0.0-15.0","407393E08DF84DF3BD1A12A0E4ECB005","019cea6e-5844-7fd6-9dc4-eb9428bc6297","019cea5b-a1d2-7168-a211-b4d8162559a9","","null","<div style=""background-color: white; width: 100vw; height: 100vh;""></div>","null","","","","","","","","","","","","",""
"","","","","","html-keyboard-response","16","131696","0.0-16.0","407393E08DF84DF3BD1A12A0E4ECB005","019cea6e-5844-7fd6-9dc4-eb9428bc6297","019cea5b-a1d2-7168-a211-b4d8162559a9","","null","
                <div class=""stimulus-container"">
                    <img src=""images/schematic_sequence/flight_scheme/flight_scheme_1.png"" class=""exp-image"">
                    <div class=""question-area""></div> 
                </div>","null","","","","","","","","","","","","",""
"","","","","","html-button-response","17","133807","0.0-17.0","407393E08DF84DF3BD1A12A0E4ECB005","019cea6e-5844-7fd6-9dc4-eb9428bc6297","019cea5b-a1d2-7168-a211-b4d8162559a9","","2110","
                <div class=""stimulus-container"">
                    <img src=""images/schematic_sequence/flight_scheme/flight_scheme_1.png"" class=""exp-image"">
                    <div class=""question-area"">
                        <p style=""font-size: 20px; font-weight: bold; margin: 0;"">Is there a person in this image?</p>
                    </div>
                </div>","0","main_experiment_trial","1","flight_scheme","schematic_sequence","","","","","","","","",""
"","","","","","html-keyboard-response","18","138820","0.0-18.0","407393E08DF84DF3BD1A12A0E4ECB005","019cea6e-5844-7fd6-9dc4-eb9428bc6297","019cea5b-a1d2-7168-a211-b4d8162559a9","","null","
                <div class=""stimulus-container"">
                    <img src=""images/schematic_sequence/flight_scheme/flight_scheme_2.png"" class=""exp-image"">
                    <div class=""question-area""></div> 
                </div>","null","","","","","","","","","","","","",""
"","","","","","html-button-response","19","141836","0.0-19.0","407393E08DF84DF3BD1A12A0E4ECB005","019cea6e-5844-7fd6-9dc4-eb9428bc6297","019cea5b-a1d2-7168-a211-b4d8162559a9","","null","
                <div class=""stimulus-container"">
                    <img src=""images/schematic_sequence/flight_scheme/flight_scheme_2.png"" class=""exp-image"">
                    <div class=""question-area"">
                        <p style=""font-size: 20px; font-weight: bold; margin: 0;"">Is there a person in this image?</p>
                    </div>
                </div>","null","main_experiment_trial","2","flight_scheme","schematic_sequence","","","","","","","","",""
"","","","","","html-keyboard-response","20","146838","0.0-20.0","407393E08DF84DF3BD1A12A0E4ECB005","019cea6e-5844-7fd6-9dc4-eb9428bc6297","019cea5b-a1d2-7168-a211-b4d8162559a9","","null","
                <div class=""stimulus-container"">
                    <img src=""images/schematic_sequence/flight_scheme/flight_scheme_3.png"" class=""exp-image"">
                    <div class=""question-area""></div> 
                </div>","null","","","","","","","","","","","","",""
"","","","","","html-button-response","21","148860","0.0-21.0","407393E08DF84DF3BD1A12A0E4ECB005","019cea6e-5844-7fd6-9dc4-eb9428bc6297","019cea5b-a1d2-7168-a211-b4d8162559a9","","2021","
                <div class=""stimulus-container"">
                    <img src=""images/schematic_sequence/flight_scheme/flight_scheme_3.png"" class=""exp-image"">
                    <div class=""question-area"">
                        <p style=""font-size: 20px; font-weight: bold; margin: 0;"">Is there a person in this image?</p>
                    </div>
                </div>","0","main_experiment_trial","3","flight_scheme","schematic_sequence","","","","","","","","",""
"","","","","","html-keyboard-response","22","153862","0.0-22.0","407393E08DF84DF3BD1A12A0E4ECB005","019cea6e-5844-7fd6-9dc4-eb9428bc6297","019cea5b-a1d2-7168-a211-b4d8162559a9","","null","
                <div class=""stimulus-container"">
                    <img src=""images/schematic_sequence/flight_scheme/flight_scheme_4.png"" class=""exp-image"">
                    <div class=""question-area""></div> 
                </div>","null","","","","","","","","","","","","",""
"","","","","","html-button-response","23","156585","0.0-23.0","407393E08DF84DF3BD1A12A0E4ECB005","019cea6e-5844-7fd6-9dc4-eb9428bc6297","019cea5b-a1d2-7168-a211-b4d8162559a9","","2723","
                <div class=""stimulus-container"">
                    <img src=""images/schematic_sequence/flight_scheme/flight_scheme_4.png"" class=""exp-image"">
                    <div class=""question-area"">
                        <p style=""font-size: 20px; font-weight: bold; margin: 0;"">Is there a person in this image?</p>
                    </div>
                </div>","0","main_experiment_trial","4","flight_scheme","schematic_sequence","","","","","","","","",""
"","","","","","html-keyboard-response","24","161602","0.0-24.0","407393E08DF84DF3BD1A12A0E4ECB005","019cea6e-5844-7fd6-9dc4-eb9428bc6297","019cea5b-a1d2-7168-a211-b4d8162559a9","","null","
                <div class=""stimulus-container"">
                    <img src=""images/schematic_sequence/flight_scheme/flight_scheme_5.png"" class=""exp-image"">
                    <div class=""question-area""></div> 
                </div>","null","","","","","","","","","","","","",""
"","","","","","html-button-response","25","163315","0.0-25.0","407393E08DF84DF3BD1A12A0E4ECB005","019cea6e-5844-7fd6-9dc4-eb9428bc6297","019cea5b-a1d2-7168-a211-b4d8162559a9","","1713","
                <div class=""stimulus-container"">
                    <img src=""images/schematic_sequence/flight_scheme/flight_scheme_5.png"" class=""exp-image"">
                    <div class=""question-area"">
                        <p style=""font-size: 20px; font-weight: bold; margin: 0;"">Is there a person in this image?</p>
                    </div>
                </div>","0","main_experiment_trial","5","flight_scheme","schematic_sequence","","","","","","","","",""
"","","","","","html-keyboard-response","26","168320","0.0-26.0","407393E08DF84DF3BD1A12A0E4ECB005","019cea6e-5844-7fd6-9dc4-eb9428bc6297","019cea5b-a1d2-7168-a211-b4d8162559a9","","null","
                <div class=""stimulus-container"">
                    <img src=""images/schematic_sequence/flight_scheme/flight_scheme_6.png"" class=""exp-image"">
                    <div class=""question-area""></div> 
                </div>","null","","","","","","","","","","","","",""
"","","","","","html-button-response","27","171336","0.0-27.0","407393E08DF84DF3BD1A12A0E4ECB005","019cea6e-5844-7fd6-9dc4-eb9428bc6297","019cea5b-a1d2-7168-a211-b4d8162559a9","","null","
                <div class=""stimulus-container"">
                    <img src=""images/schematic_sequence/flight_scheme/flight_scheme_6.png"" class=""exp-image"">
                    <div class=""question-area"">
                        <p style=""font-size: 20px; font-weight: bold; margin: 0;"">Is there a person in this image?</p>
                    </div>
                </div>","null","main_experiment_trial","6","flight_scheme","schematic_sequence","","","","","","","","",""
"","","","","","html-keyboard-response","28","176352","0.0-28.0","407393E08DF84DF3BD1A12A0E4ECB005","019cea6e-5844-7fd6-9dc4-eb9428bc6297","019cea5b-a1d2-7168-a211-b4d8162559a9","","null","
                <div class=""stimulus-container"">
                    <img src=""images/schematic_sequence/flight_scheme/flight_scheme_7.png"" class=""exp-image"">
                    <div class=""question-area""></div> 
                </div>","null","","","","","","","","","","","","",""
"","","","","","html-button-response","29","179365","0.0-29.0","407393E08DF84DF3BD1A12A0E4ECB005","019cea6e-5844-7fd6-9dc4-eb9428bc6297","019cea5b-a1d2-7168-a211-b4d8162559a9","","null","
                <div class=""stimulus-container"">
                    <img src=""images/schematic_sequence/flight_scheme/flight_scheme_7.png"" class=""exp-image"">
                    <div class=""question-area"">
                        <p style=""font-size: 20px; font-weight: bold; margin: 0;"">Is there a person in this image?</p>
                    </div>
                </div>","null","main_experiment_trial","7","flight_scheme","schematic_sequence","","","","","","","","",""
"","","","","","html-keyboard-response","30","184374","0.0-30.0","407393E08DF84DF3BD1A12A0E4ECB005","019cea6e-5844-7fd6-9dc4-eb9428bc6297","019cea5b-a1d2-7168-a211-b4d8162559a9","","null","
                <div class=""stimulus-container"">
                    <img src=""images/schematic_sequence/flight_scheme/flight_scheme_8.png"" class=""exp-image"">
                    <div class=""question-area""></div> 
                </div>","null","","","","","","","","","","","","",""
"","","","","","html-button-response","31","187388","0.0-31.0","407393E08DF84DF3BD1A12A0E4ECB005","019cea6e-5844-7fd6-9dc4-eb9428bc6297","019cea5b-a1d2-7168-a211-b4d8162559a9","","null","
                <div class=""stimulus-container"">
                    <img src=""images/schematic_sequence/flight_scheme/flight_scheme_8.png"" class=""exp-image"">
                    <div class=""question-area"">
                        <p style=""font-size: 20px; font-weight: bold; margin: 0;"">Is there a person in this image?</p>
                    </div>
                </div>","null","main_experiment_trial","8","flight_scheme","schematic_sequence","","","","","","","","",""
"","","","","","html-keyboard-response","32","192389","0.0-32.0","407393E08DF84DF3BD1A12A0E4ECB005","019cea6e-5844-7fd6-9dc4-eb9428bc6297","019cea5b-a1d2-7168-a211-b4d8162559a9","","null","
                <div class=""stimulus-container"">
                    <img src=""images/schematic_sequence/flight_scheme/flight_scheme_9.png"" class=""exp-image"">
                    <div class=""question-area""></div> 
                </div>","null","","","","","","","","","","","","",""
"","","","","","html-button-response","33","193552","0.0-33.0","407393E08DF84DF3BD1A12A0E4ECB005","019cea6e-5844-7fd6-9dc4-eb9428bc6297","019cea5b-a1d2-7168-a211-b4d8162559a9","","1161","
                <div class=""stimulus-container"">
                    <img src=""images/schematic_sequence/flight_scheme/flight_scheme_9.png"" class=""exp-image"">
                    <div class=""question-area"">
                        <p style=""font-size: 20px; font-weight: bold; margin: 0;"">Is there a person in this image?</p>
                    </div>
                </div>","0","main_experiment_trial","9","flight_scheme","schematic_sequence","","","","","","","","",""
"","","","","","html-keyboard-response","34","198557","0.0-34.0","407393E08DF84DF3BD1A12A0E4ECB005","019cea6e-5844-7fd6-9dc4-eb9428bc6297","019cea5b-a1d2-7168-a211-b4d8162559a9","","null","
                <div class=""stimulus-container"">
                    <img src=""images/schematic_sequence/flight_scheme/flight_scheme_ten.png"" class=""exp-image"">
                    <div class=""question-area""></div> 
                </div>","null","","","","","","","","","","","","",""
"","","","","","html-button-response","35","199851","0.0-35.0","407393E08DF84DF3BD1A12A0E4ECB005","019cea6e-5844-7fd6-9dc4-eb9428bc6297","019cea5b-a1d2-7168-a211-b4d8162559a9","","1294","
                <div class=""stimulus-container"">
                    <img src=""images/schematic_sequence/flight_scheme/flight_scheme_ten.png"" class=""exp-image"">
                    <div class=""question-area"">
                        <p style=""font-size: 20px; font-weight: bold; margin: 0;"">Is there a person in this image?</p>
                    </div>
                </div>","0","main_experiment_trial","ten","flight_scheme","schematic_sequence","","","","","","","","",""
"","","","","","html-keyboard-response","36","200854","0.0-36.0","407393E08DF84DF3BD1A12A0E4ECB005","019cea6e-5844-7fd6-9dc4-eb9428bc6297","019cea5b-a1d2-7168-a211-b4d8162559a9","","null","<div style=""background-color: white; width: 100vw; height: 100vh;""></div>","null","","","","","","","","","","","","",""
"","","","","","html-keyboard-response","37","205856","0.0-37.0","407393E08DF84DF3BD1A12A0E4ECB005","019cea6e-5844-7fd6-9dc4-eb9428bc6297","019cea5b-a1d2-7168-a211-b4d8162559a9","","null","
                <div class=""stimulus-container"">
                    <img src=""images/semantic_sequence/visiting_cities_semantic/visiting_cities_semantic_1.png"" class=""exp-image"">
                    <div class=""question-area""></div> 
                </div>","null","","","","","","","","","","","","",""
"","","","","","html-button-response","38","208776","0.0-38.0","407393E08DF84DF3BD1A12A0E4ECB005","019cea6e-5844-7fd6-9dc4-eb9428bc6297","019cea5b-a1d2-7168-a211-b4d8162559a9","","2920","
                <div class=""stimulus-container"">
                    <img src=""images/semantic_sequence/visiting_cities_semantic/visiting_cities_semantic_1.png"" class=""exp-image"">
                    <div class=""question-area"">
                        <p style=""font-size: 20px; font-weight: bold; margin: 0;"">Is there a person in this image?</p>
                    </div>
                </div>","0","main_experiment_trial","1","visiting_cities_semantic","semantic_sequence","","","","","","","","",""
"","","","","","html-keyboard-response","39","213791","0.0-39.0","407393E08DF84DF3BD1A12A0E4ECB005","019cea6e-5844-7fd6-9dc4-eb9428bc6297","019cea5b-a1d2-7168-a211-b4d8162559a9","","null","
                <div class=""stimulus-container"">
                    <img src=""images/semantic_sequence/visiting_cities_semantic/visiting_cities_semantic_2.png"" class=""exp-image"">
                    <div class=""question-area""></div> 
                </div>","null","","","","","","","","","","","","",""
"","","","","","html-button-response","40","215122","0.0-40.0","407393E08DF84DF3BD1A12A0E4ECB005","019cea6e-5844-7fd6-9dc4-eb9428bc6297","019cea5b-a1d2-7168-a211-b4d8162559a9","","1330","
                <div class=""stimulus-container"">
                    <img src=""images/semantic_sequence/visiting_cities_semantic/visiting_cities_semantic_2.png"" class=""exp-image"">
                    <div class=""question-area"">
                        <p style=""font-size: 20px; font-weight: bold; margin: 0;"">Is there a person in this image?</p>
                    </div>
                </div>","1","main_experiment_trial","2","visiting_cities_semantic","semantic_sequence","","","","","","","","",""
"","","","","","html-keyboard-response","41","220124","0.0-41.0","407393E08DF84DF3BD1A12A0E4ECB005","019cea6e-5844-7fd6-9dc4-eb9428bc6297","019cea5b-a1d2-7168-a211-b4d8162559a9","","null","
                <div class=""stimulus-container"">
                    <img src=""images/semantic_sequence/visiting_cities_semantic/visiting_cities_semantic_3.png"" class=""exp-image"">
                    <div class=""question-area""></div> 
                </div>","null","","","","","","","","","","","","",""
"","","","","","html-button-response","42","221230","0.0-42.0","407393E08DF84DF3BD1A12A0E4ECB005","019cea6e-5844-7fd6-9dc4-eb9428bc6297","019cea5b-a1d2-7168-a211-b4d8162559a9","","1106","
                <div class=""stimulus-container"">
                    <img src=""images/semantic_sequence/visiting_cities_semantic/visiting_cities_semantic_3.png"" class=""exp-image"">
                    <div class=""question-area"">
                        <p style=""font-size: 20px; font-weight: bold; margin: 0;"">Is there a person in this image?</p>
                    </div>
                </div>","1","main_experiment_trial","3","visiting_cities_semantic","semantic_sequence","","","","","","","","",""
"","","","","","html-keyboard-response","43","226244","0.0-43.0","407393E08DF84DF3BD1A12A0E4ECB005","019cea6e-5844-7fd6-9dc4-eb9428bc6297","019cea5b-a1d2-7168-a211-b4d8162559a9","","null","
                <div class=""stimulus-container"">
                    <img src=""images/semantic_sequence/visiting_cities_semantic/visiting_cities_semantic_4.png"" class=""exp-image"">
                    <div class=""question-area""></div> 
                </div>","null","","","","","","","","","","","","",""
"","","","","","html-button-response","44","228889","0.0-44.0","407393E08DF84DF3BD1A12A0E4ECB005","019cea6e-5844-7fd6-9dc4-eb9428bc6297","019cea5b-a1d2-7168-a211-b4d8162559a9","","2645","
                <div class=""stimulus-container"">
                    <img src=""images/semantic_sequence/visiting_cities_semantic/visiting_cities_semantic_4.png"" class=""exp-image"">
                    <div class=""question-area"">
                        <p style=""font-size: 20px; font-weight: bold; margin: 0;"">Is there a person in this image?</p>
                    </div>
                </div>","1","main_experiment_trial","4","visiting_cities_semantic","semantic_sequence","","","","","","","","",""
"","","","","","html-keyboard-response","45","233901","0.0-45.0","407393E08DF84DF3BD1A12A0E4ECB005","019cea6e-5844-7fd6-9dc4-eb9428bc6297","019cea5b-a1d2-7168-a211-b4d8162559a9","","null","
                <div class=""stimulus-container"">
                    <img src=""images/semantic_sequence/visiting_cities_semantic/visiting_cities_semantic_5.png"" class=""exp-image"">
                    <div class=""question-area""></div> 
                </div>","null","","","","","","","","","","","","",""
"","","","","","html-button-response","46","236906","0.0-46.0","407393E08DF84DF3BD1A12A0E4ECB005","019cea6e-5844-7fd6-9dc4-eb9428bc6297","019cea5b-a1d2-7168-a211-b4d8162559a9","","null","
                <div class=""stimulus-container"">
                    <img src=""images/semantic_sequence/visiting_cities_semantic/visiting_cities_semantic_5.png"" class=""exp-image"">
                    <div class=""question-area"">
                        <p style=""font-size: 20px; font-weight: bold; margin: 0;"">Is there a person in this image?</p>
                    </div>
                </div>","null","main_experiment_trial","5","visiting_cities_semantic","semantic_sequence","","","","","","","","",""
"","","","","","html-keyboard-response","47","241916","0.0-47.0","407393E08DF84DF3BD1A12A0E4ECB005","019cea6e-5844-7fd6-9dc4-eb9428bc6297","019cea5b-a1d2-7168-a211-b4d8162559a9","","null","
                <div class=""stimulus-container"">
                    <img src=""images/semantic_sequence/visiting_cities_semantic/visiting_cities_semantic_6.png"" class=""exp-image"">
                    <div class=""question-area""></div> 
                </div>","null","","","","","","","","","","","","",""
"","","","","","html-button-response","48","243299","0.0-48.0","407393E08DF84DF3BD1A12A0E4ECB005","019cea6e-5844-7fd6-9dc4-eb9428bc6297","019cea5b-a1d2-7168-a211-b4d8162559a9","","1382","
                <div class=""stimulus-container"">
                    <img src=""images/semantic_sequence/visiting_cities_semantic/visiting_cities_semantic_6.png"" class=""exp-image"">
                    <div class=""question-area"">
                        <p style=""font-size: 20px; font-weight: bold; margin: 0;"">Is there a person in this image?</p>
                    </div>
                </div>","1","main_experiment_trial","6","visiting_cities_semantic","semantic_sequence","","","","","","","","",""
"","","","","","html-keyboard-response","49","248301","0.0-49.0","407393E08DF84DF3BD1A12A0E4ECB005","019cea6e-5844-7fd6-9dc4-eb9428bc6297","019cea5b-a1d2-7168-a211-b4d8162559a9","","null","
                <div class=""stimulus-container"">
                    <img src=""images/semantic_sequence/visiting_cities_semantic/visiting_cities_semantic_7.png"" class=""exp-image"">
                    <div class=""question-area""></div> 
                </div>","null","","","","","","","","","","","","",""
"","","","","","html-button-response","50","250034","0.0-50.0","407393E08DF84DF3BD1A12A0E4ECB005","019cea6e-5844-7fd6-9dc4-eb9428bc6297","019cea5b-a1d2-7168-a211-b4d8162559a9","","1732","
                <div class=""stimulus-container"">
                    <img src=""images/semantic_sequence/visiting_cities_semantic/visiting_cities_semantic_7.png"" class=""exp-image"">
                    <div class=""question-area"">
                        <p style=""font-size: 20px; font-weight: bold; margin: 0;"">Is there a person in this image?</p>
                    </div>
                </div>","0","main_experiment_trial","7","visiting_cities_semantic","semantic_sequence","","","","","","","","",""
"","","","","","html-keyboard-response","51","255043","0.0-51.0","407393E08DF84DF3BD1A12A0E4ECB005","019cea6e-5844-7fd6-9dc4-eb9428bc6297","019cea5b-a1d2-7168-a211-b4d8162559a9","","null","
                <div class=""stimulus-container"">
                    <img src=""images/semantic_sequence/visiting_cities_semantic/visiting_cities_semantic_8.png"" class=""exp-image"">
                    <div class=""question-area""></div> 
                </div>","null","","","","","","","","","","","","",""
"","","","","","html-button-response","52","256340","0.0-52.0","407393E08DF84DF3BD1A12A0E4ECB005","019cea6e-5844-7fd6-9dc4-eb9428bc6297","019cea5b-a1d2-7168-a211-b4d8162559a9","","1296","
                <div class=""stimulus-container"">
                    <img src=""images/semantic_sequence/visiting_cities_semantic/visiting_cities_semantic_8.png"" class=""exp-image"">
                    <div class=""question-area"">
                        <p style=""font-size: 20px; font-weight: bold; margin: 0;"">Is there a person in this image?</p>
                    </div>
                </div>","1","main_experiment_trial","8","visiting_cities_semantic","semantic_sequence","","","","","","","","",""
"","","","","","html-keyboard-response","53","261357","0.0-53.0","407393E08DF84DF3BD1A12A0E4ECB005","019cea6e-5844-7fd6-9dc4-eb9428bc6297","019cea5b-a1d2-7168-a211-b4d8162559a9","","null","
                <div class=""stimulus-container"">
                    <img src=""images/semantic_sequence/visiting_cities_semantic/visiting_cities_semantic_9.png"" class=""exp-image"">
                    <div class=""question-area""></div> 
                </div>","null","","","","","","","","","","","","",""
"","","","","","html-button-response","54","262564","0.0-54.0","407393E08DF84DF3BD1A12A0E4ECB005","019cea6e-5844-7fd6-9dc4-eb9428bc6297","019cea5b-a1d2-7168-a211-b4d8162559a9","","1206","
                <div class=""stimulus-container"">
                    <img src=""images/semantic_sequence/visiting_cities_semantic/visiting_cities_semantic_9.png"" class=""exp-image"">
                    <div class=""question-area"">
                        <p style=""font-size: 20px; font-weight: bold; margin: 0;"">Is there a person in this image?</p>
                    </div>
                </div>","1","main_experiment_trial","9","visiting_cities_semantic","semantic_sequence","","","","","","","","",""
"","","","","","html-keyboard-response","55","267576","0.0-55.0","407393E08DF84DF3BD1A12A0E4ECB005","019cea6e-5844-7fd6-9dc4-eb9428bc6297","019cea5b-a1d2-7168-a211-b4d8162559a9","","null","
                <div class=""stimulus-container"">
                    <img src=""images/semantic_sequence/visiting_cities_semantic/visiting_cities_semantic_ten.png"" class=""exp-image"">
                    <div class=""question-area""></div> 
                </div>","null","","","","","","","","","","","","",""
"","","","","","html-button-response","56","270591","0.0-56.0","407393E08DF84DF3BD1A12A0E4ECB005","019cea6e-5844-7fd6-9dc4-eb9428bc6297","019cea5b-a1d2-7168-a211-b4d8162559a9","","null","
                <div class=""stimulus-container"">
                    <img src=""images/semantic_sequence/visiting_cities_semantic/visiting_cities_semantic_ten.png"" class=""exp-image"">
                    <div class=""question-area"">
                        <p style=""font-size: 20px; font-weight: bold; margin: 0;"">Is there a person in this image?</p>
                    </div>
                </div>","null","main_experiment_trial","ten","visiting_cities_semantic","semantic_sequence","","","","","","","","",""
"","","","","","html-keyboard-response","57","271591","0.0-57.0","407393E08DF84DF3BD1A12A0E4ECB005","019cea6e-5844-7fd6-9dc4-eb9428bc6297","019cea5b-a1d2-7168-a211-b4d8162559a9","","null","<div style=""background-color: white; width: 100vw; height: 100vh;""></div>","null","","","","","","","","","","","","",""
"","","","","","html-keyboard-response","58","276592","0.0-58.0","407393E08DF84DF3BD1A12A0E4ECB005","019cea6e-5844-7fd6-9dc4-eb9428bc6297","019cea5b-a1d2-7168-a211-b4d8162559a9","","null","
                <div class=""stimulus-container"">
                    <img src=""images/semantic_sequence/housework_semantic/housework_semantic_1.png"" class=""exp-image"">
                    <div class=""question-area""></div> 
                </div>","null","","","","","","","","","","","","",""
"","","","","","html-button-response","59","277831","0.0-59.0","407393E08DF84DF3BD1A12A0E4ECB005","019cea6e-5844-7fd6-9dc4-eb9428bc6297","019cea5b-a1d2-7168-a211-b4d8162559a9","","1238","
                <div class=""stimulus-container"">
                    <img src=""images/semantic_sequence/housework_semantic/housework_semantic_1.png"" class=""exp-image"">
                    <div class=""question-area"">
                        <p style=""font-size: 20px; font-weight: bold; margin: 0;"">Is there a person in this image?</p>
                    </div>
                </div>","0","main_experiment_trial","1","housework_semantic","semantic_sequence","","","","","","","","",""
"","","","","","html-keyboard-response","60","282832","0.0-60.0","407393E08DF84DF3BD1A12A0E4ECB005","019cea6e-5844-7fd6-9dc4-eb9428bc6297","019cea5b-a1d2-7168-a211-b4d8162559a9","","null","
                <div class=""stimulus-container"">
                    <img src=""images/semantic_sequence/housework_semantic/housework_semantic_2.png"" class=""exp-image"">
                    <div class=""question-area""></div> 
                </div>","null","","","","","","","","","","","","",""
"","","","","","html-button-response","61","284885","0.0-61.0","407393E08DF84DF3BD1A12A0E4ECB005","019cea6e-5844-7fd6-9dc4-eb9428bc6297","019cea5b-a1d2-7168-a211-b4d8162559a9","","2052","
                <div class=""stimulus-container"">
                    <img src=""images/semantic_sequence/housework_semantic/housework_semantic_2.png"" class=""exp-image"">
                    <div class=""question-area"">
                        <p style=""font-size: 20px; font-weight: bold; margin: 0;"">Is there a person in this image?</p>
                    </div>
                </div>","0","main_experiment_trial","2","housework_semantic","semantic_sequence","","","","","","","","",""
"","","","","","html-keyboard-response","62","289894","0.0-62.0","407393E08DF84DF3BD1A12A0E4ECB005","019cea6e-5844-7fd6-9dc4-eb9428bc6297","019cea5b-a1d2-7168-a211-b4d8162559a9","","null","
                <div class=""stimulus-container"">
                    <img src=""images/semantic_sequence/housework_semantic/housework_semantic_3.png"" class=""exp-image"">
                    <div class=""question-area""></div> 
                </div>","null","","","","","","","","","","","","",""
"","","","","","html-button-response","63","291358","0.0-63.0","407393E08DF84DF3BD1A12A0E4ECB005","019cea6e-5844-7fd6-9dc4-eb9428bc6297","019cea5b-a1d2-7168-a211-b4d8162559a9","","1463","
                <div class=""stimulus-container"">
                    <img src=""images/semantic_sequence/housework_semantic/housework_semantic_3.png"" class=""exp-image"">
                    <div class=""question-area"">
                        <p style=""font-size: 20px; font-weight: bold; margin: 0;"">Is there a person in this image?</p>
                    </div>
                </div>","0","main_experiment_trial","3","housework_semantic","semantic_sequence","","","","","","","","",""
"","","","","","html-keyboard-response","64","296371","0.0-64.0","407393E08DF84DF3BD1A12A0E4ECB005","019cea6e-5844-7fd6-9dc4-eb9428bc6297","019cea5b-a1d2-7168-a211-b4d8162559a9","","null","
                <div class=""stimulus-container"">
                    <img src=""images/semantic_sequence/housework_semantic/housework_semantic_4.png"" class=""exp-image"">
                    <div class=""question-area""></div> 
                </div>","null","","","","","","","","","","","","",""
"","","","","","html-button-response","65","298036","0.0-65.0","407393E08DF84DF3BD1A12A0E4ECB005","019cea6e-5844-7fd6-9dc4-eb9428bc6297","019cea5b-a1d2-7168-a211-b4d8162559a9","","1664","
                <div class=""stimulus-container"">
                    <img src=""images/semantic_sequence/housework_semantic/housework_semantic_4.png"" class=""exp-image"">
                    <div class=""question-area"">
                        <p style=""font-size: 20px; font-weight: bold; margin: 0;"">Is there a person in this image?</p>
                    </div>
                </div>","0","main_experiment_trial","4","housework_semantic","semantic_sequence","","","","","","","","",""
"","","","","","html-keyboard-response","66","303049","0.0-66.0","407393E08DF84DF3BD1A12A0E4ECB005","019cea6e-5844-7fd6-9dc4-eb9428bc6297","019cea5b-a1d2-7168-a211-b4d8162559a9","","null","
                <div class=""stimulus-container"">
                    <img src=""images/semantic_sequence/housework_semantic/housework_semantic_5.png"" class=""exp-image"">
                    <div class=""question-area""></div> 
                </div>","null","","","","","","","","","","","","",""
"","","","","","html-button-response","67","305022","0.0-67.0","407393E08DF84DF3BD1A12A0E4ECB005","019cea6e-5844-7fd6-9dc4-eb9428bc6297","019cea5b-a1d2-7168-a211-b4d8162559a9","","1970","
                <div class=""stimulus-container"">
                    <img src=""images/semantic_sequence/housework_semantic/housework_semantic_5.png"" class=""exp-image"">
                    <div class=""question-area"">
                        <p style=""font-size: 20px; font-weight: bold; margin: 0;"">Is there a person in this image?</p>
                    </div>
                </div>","0","main_experiment_trial","5","housework_semantic","semantic_sequence","","","","","","","","",""
"","","","","","html-keyboard-response","68","310024","0.0-68.0","407393E08DF84DF3BD1A12A0E4ECB005","019cea6e-5844-7fd6-9dc4-eb9428bc6297","019cea5b-a1d2-7168-a211-b4d8162559a9","","null","
                <div class=""stimulus-container"">
                    <img src=""images/semantic_sequence/housework_semantic/housework_semantic_6.png"" class=""exp-image"">
                    <div class=""question-area""></div> 
                </div>","null","","","","","","","","","","","","",""
"","","","","","html-button-response","69","312915","0.0-69.0","407393E08DF84DF3BD1A12A0E4ECB005","019cea6e-5844-7fd6-9dc4-eb9428bc6297","019cea5b-a1d2-7168-a211-b4d8162559a9","","2890","
                <div class=""stimulus-container"">
                    <img src=""images/semantic_sequence/housework_semantic/housework_semantic_6.png"" class=""exp-image"">
                    <div class=""question-area"">
                        <p style=""font-size: 20px; font-weight: bold; margin: 0;"">Is there a person in this image?</p>
                    </div>
                </div>","0","main_experiment_trial","6","housework_semantic","semantic_sequence","","","","","","","","",""
"","","","","","html-keyboard-response","70","317921","0.0-70.0","407393E08DF84DF3BD1A12A0E4ECB005","019cea6e-5844-7fd6-9dc4-eb9428bc6297","019cea5b-a1d2-7168-a211-b4d8162559a9","","null","
                <div class=""stimulus-container"">
                    <img src=""images/semantic_sequence/housework_semantic/housework_semantic_7.png"" class=""exp-image"">
                    <div class=""question-area""></div> 
                </div>","null","","","","","","","","","","","","",""
"","","","","","html-button-response","71","320923","0.0-71.0","407393E08DF84DF3BD1A12A0E4ECB005","019cea6e-5844-7fd6-9dc4-eb9428bc6297","019cea5b-a1d2-7168-a211-b4d8162559a9","","null","
                <div class=""stimulus-container"">
                    <img src=""images/semantic_sequence/housework_semantic/housework_semantic_7.png"" class=""exp-image"">
                    <div class=""question-area"">
                        <p style=""font-size: 20px; font-weight: bold; margin: 0;"">Is there a person in this image?</p>
                    </div>
                </div>","null","main_experiment_trial","7","housework_semantic","semantic_sequence","","","","","","","","",""
"","","","","","html-keyboard-response","72","325937","0.0-72.0","407393E08DF84DF3BD1A12A0E4ECB005","019cea6e-5844-7fd6-9dc4-eb9428bc6297","019cea5b-a1d2-7168-a211-b4d8162559a9","","null","
                <div class=""stimulus-container"">
                    <img src=""images/semantic_sequence/housework_semantic/housework_semantic_8.png"" class=""exp-image"">
                    <div class=""question-area""></div> 
                </div>","null","","","","","","","","","","","","",""
"","","","","","html-button-response","73","327145","0.0-73.0","407393E08DF84DF3BD1A12A0E4ECB005","019cea6e-5844-7fd6-9dc4-eb9428bc6297","019cea5b-a1d2-7168-a211-b4d8162559a9","","1208","
                <div class=""stimulus-container"">
                    <img src=""images/semantic_sequence/housework_semantic/housework_semantic_8.png"" class=""exp-image"">
                    <div class=""question-area"">
                        <p style=""font-size: 20px; font-weight: bold; margin: 0;"">Is there a person in this image?</p>
                    </div>
                </div>","0","main_experiment_trial","8","housework_semantic","semantic_sequence","","","","","","","","",""
"","","","","","html-keyboard-response","74","332160","0.0-74.0","407393E08DF84DF3BD1A12A0E4ECB005","019cea6e-5844-7fd6-9dc4-eb9428bc6297","019cea5b-a1d2-7168-a211-b4d8162559a9","","null","
                <div class=""stimulus-container"">
                    <img src=""images/semantic_sequence/housework_semantic/housework_semantic_9.png"" class=""exp-image"">
                    <div class=""question-area""></div> 
                </div>","null","","","","","","","","","","","","",""
"","","","","","html-button-response","75","333732","0.0-75.0","407393E08DF84DF3BD1A12A0E4ECB005","019cea6e-5844-7fd6-9dc4-eb9428bc6297","019cea5b-a1d2-7168-a211-b4d8162559a9","","1571","
                <div class=""stimulus-container"">
                    <img src=""images/semantic_sequence/housework_semantic/housework_semantic_9.png"" class=""exp-image"">
                    <div class=""question-area"">
                        <p style=""font-size: 20px; font-weight: bold; margin: 0;"">Is there a person in this image?</p>
                    </div>
                </div>","0","main_experiment_trial","9","housework_semantic","semantic_sequence","","","","","","","","",""
"","","","","","html-keyboard-response","76","338749","0.0-76.0","407393E08DF84DF3BD1A12A0E4ECB005","019cea6e-5844-7fd6-9dc4-eb9428bc6297","019cea5b-a1d2-7168-a211-b4d8162559a9","","null","
                <div class=""stimulus-container"">
                    <img src=""images/semantic_sequence/housework_semantic/housework_semantic_ten.png"" class=""exp-image"">
                    <div class=""question-area""></div> 
                </div>","null","","","","","","","","","","","","",""
"","","","","","html-button-response","77","341755","0.0-77.0","407393E08DF84DF3BD1A12A0E4ECB005","019cea6e-5844-7fd6-9dc4-eb9428bc6297","019cea5b-a1d2-7168-a211-b4d8162559a9","","null","
                <div class=""stimulus-container"">
                    <img src=""images/semantic_sequence/housework_semantic/housework_semantic_ten.png"" class=""exp-image"">
                    <div class=""question-area"">
                        <p style=""font-size: 20px; font-weight: bold; margin: 0;"">Is there a person in this image?</p>
                    </div>
                </div>","null","main_experiment_trial","ten","housework_semantic","semantic_sequence","","","","","","","","",""
"","","","","","html-keyboard-response","78","342766","0.0-78.0","407393E08DF84DF3BD1A12A0E4ECB005","019cea6e-5844-7fd6-9dc4-eb9428bc6297","019cea5b-a1d2-7168-a211-b4d8162559a9","","null","<div style=""background-color: white; width: 100vw; height: 100vh;""></div>","null","","","","","","","","","","","","",""
"","","","","","html-keyboard-response","79","347782","0.0-79.0","407393E08DF84DF3BD1A12A0E4ECB005","019cea6e-5844-7fd6-9dc4-eb9428bc6297","019cea5b-a1d2-7168-a211-b4d8162559a9","","null","
                <div class=""stimulus-container"">
                    <img src=""images/schematic_sequence/interview_scheme/interview_scheme_1.png"" class=""exp-image"">
                    <div class=""question-area""></div> 
                </div>","null","","","","","","","","","","","","",""
"","","","","","html-button-response","80","349682","0.0-80.0","407393E08DF84DF3BD1A12A0E4ECB005","019cea6e-5844-7fd6-9dc4-eb9428bc6297","019cea5b-a1d2-7168-a211-b4d8162559a9","","1899","
                <div class=""stimulus-container"">
                    <img src=""images/schematic_sequence/interview_scheme/interview_scheme_1.png"" class=""exp-image"">
                    <div class=""question-area"">
                        <p style=""font-size: 20px; font-weight: bold; margin: 0;"">Is there a person in this image?</p>
                    </div>
                </div>","0","main_experiment_trial","1","interview_scheme","schematic_sequence","","","","","","","","",""
"","","","","","html-keyboard-response","81","354684","0.0-81.0","407393E08DF84DF3BD1A12A0E4ECB005","019cea6e-5844-7fd6-9dc4-eb9428bc6297","019cea5b-a1d2-7168-a211-b4d8162559a9","","null","
                <div class=""stimulus-container"">
                    <img src=""images/schematic_sequence/interview_scheme/interview_scheme_2.png"" class=""exp-image"">
                    <div class=""question-area""></div> 
                </div>","null","","","","","","","","","","","","",""
"","","","","","html-button-response","82","357687","0.0-82.0","407393E08DF84DF3BD1A12A0E4ECB005","019cea6e-5844-7fd6-9dc4-eb9428bc6297","019cea5b-a1d2-7168-a211-b4d8162559a9","","null","
                <div class=""stimulus-container"">
                    <img src=""images/schematic_sequence/interview_scheme/interview_scheme_2.png"" class=""exp-image"">
                    <div class=""question-area"">
                        <p style=""font-size: 20px; font-weight: bold; margin: 0;"">Is there a person in this image?</p>
                    </div>
                </div>","null","main_experiment_trial","2","interview_scheme","schematic_sequence","","","","","","","","",""
"","","","","","html-keyboard-response","83","362689","0.0-83.0","407393E08DF84DF3BD1A12A0E4ECB005","019cea6e-5844-7fd6-9dc4-eb9428bc6297","019cea5b-a1d2-7168-a211-b4d8162559a9","","null","
                <div class=""stimulus-container"">
                    <img src=""images/schematic_sequence/interview_scheme/interview_scheme_3.png"" class=""exp-image"">
                    <div class=""question-area""></div> 
                </div>","null","","","","","","","","","","","","",""
"","","","","","html-button-response","84","363944","0.0-84.0","407393E08DF84DF3BD1A12A0E4ECB005","019cea6e-5844-7fd6-9dc4-eb9428bc6297","019cea5b-a1d2-7168-a211-b4d8162559a9","","1255","
                <div class=""stimulus-container"">
                    <img src=""images/schematic_sequence/interview_scheme/interview_scheme_3.png"" class=""exp-image"">
                    <div class=""question-area"">
                        <p style=""font-size: 20px; font-weight: bold; margin: 0;"">Is there a person in this image?</p>
                    </div>
                </div>","1","main_experiment_trial","3","interview_scheme","schematic_sequence","","","","","","","","",""
"","","","","","html-keyboard-response","85","368955","0.0-85.0","407393E08DF84DF3BD1A12A0E4ECB005","019cea6e-5844-7fd6-9dc4-eb9428bc6297","019cea5b-a1d2-7168-a211-b4d8162559a9","","null","
                <div class=""stimulus-container"">
                    <img src=""images/schematic_sequence/interview_scheme/interview_scheme_4.png"" class=""exp-image"">
                    <div class=""question-area""></div> 
                </div>","null","","","","","","","","","","","","",""
"","","","","","html-button-response","86","371957","0.0-86.0","407393E08DF84DF3BD1A12A0E4ECB005","019cea6e-5844-7fd6-9dc4-eb9428bc6297","019cea5b-a1d2-7168-a211-b4d8162559a9","","null","
                <div class=""stimulus-container"">
                    <img src=""images/schematic_sequence/interview_scheme/interview_scheme_4.png"" class=""exp-image"">
                    <div class=""question-area"">
                        <p style=""font-size: 20px; font-weight: bold; margin: 0;"">Is there a person in this image?</p>
                    </div>
                </div>","null","main_experiment_trial","4","interview_scheme","schematic_sequence","","","","","","","","",""
"","","","","","html-keyboard-response","87","376958","0.0-87.0","407393E08DF84DF3BD1A12A0E4ECB005","019cea6e-5844-7fd6-9dc4-eb9428bc6297","019cea5b-a1d2-7168-a211-b4d8162559a9","","null","
                <div class=""stimulus-container"">
                    <img src=""images/schematic_sequence/interview_scheme/interview_scheme_5.png"" class=""exp-image"">
                    <div class=""question-area""></div> 
                </div>","null","","","","","","","","","","","","",""
"","","","","","html-button-response","88","378145","0.0-88.0","407393E08DF84DF3BD1A12A0E4ECB005","019cea6e-5844-7fd6-9dc4-eb9428bc6297","019cea5b-a1d2-7168-a211-b4d8162559a9","","1187","
                <div class=""stimulus-container"">
                    <img src=""images/schematic_sequence/interview_scheme/interview_scheme_5.png"" class=""exp-image"">
                    <div class=""question-area"">
                        <p style=""font-size: 20px; font-weight: bold; margin: 0;"">Is there a person in this image?</p>
                    </div>
                </div>","0","main_experiment_trial","5","interview_scheme","schematic_sequence","","","","","","","","",""
"","","","","","html-keyboard-response","89","383147","0.0-89.0","407393E08DF84DF3BD1A12A0E4ECB005","019cea6e-5844-7fd6-9dc4-eb9428bc6297","019cea5b-a1d2-7168-a211-b4d8162559a9","","null","
                <div class=""stimulus-container"">
                    <img src=""images/schematic_sequence/interview_scheme/interview_scheme_6.png"" class=""exp-image"">
                    <div class=""question-area""></div> 
                </div>","null","","","","","","","","","","","","",""
"","","","","","html-button-response","90","383923","0.0-90.0","407393E08DF84DF3BD1A12A0E4ECB005","019cea6e-5844-7fd6-9dc4-eb9428bc6297","019cea5b-a1d2-7168-a211-b4d8162559a9","","776","
                <div class=""stimulus-container"">
                    <img src=""images/schematic_sequence/interview_scheme/interview_scheme_6.png"" class=""exp-image"">
                    <div class=""question-area"">
                        <p style=""font-size: 20px; font-weight: bold; margin: 0;"">Is there a person in this image?</p>
                    </div>
                </div>","0","main_experiment_trial","6","interview_scheme","schematic_sequence","","","","","","","","",""
"","","","","","html-keyboard-response","91","388939","0.0-91.0","407393E08DF84DF3BD1A12A0E4ECB005","019cea6e-5844-7fd6-9dc4-eb9428bc6297","019cea5b-a1d2-7168-a211-b4d8162559a9","","null","
                <div class=""stimulus-container"">
                    <img src=""images/schematic_sequence/interview_scheme/interview_scheme_7.png"" class=""exp-image"">
                    <div class=""question-area""></div> 
                </div>","null","","","","","","","","","","","","",""
"","","","","","html-button-response","92","390090","0.0-92.0","407393E08DF84DF3BD1A12A0E4ECB005","019cea6e-5844-7fd6-9dc4-eb9428bc6297","019cea5b-a1d2-7168-a211-b4d8162559a9","","1151","
                <div class=""stimulus-container"">
                    <img src=""images/schematic_sequence/interview_scheme/interview_scheme_7.png"" class=""exp-image"">
                    <div class=""question-area"">
                        <p style=""font-size: 20px; font-weight: bold; margin: 0;"">Is there a person in this image?</p>
                    </div>
                </div>","0","main_experiment_trial","7","interview_scheme","schematic_sequence","","","","","","","","",""
"","","","","","html-keyboard-response","93","395094","0.0-93.0","407393E08DF84DF3BD1A12A0E4ECB005","019cea6e-5844-7fd6-9dc4-eb9428bc6297","019cea5b-a1d2-7168-a211-b4d8162559a9","","null","
                <div class=""stimulus-container"">
                    <img src=""images/schematic_sequence/interview_scheme/interview_scheme_8.png"" class=""exp-image"">
                    <div class=""question-area""></div> 
                </div>","null","","","","","","","","","","","","",""
"","","","","","html-button-response","94","396008","0.0-94.0","407393E08DF84DF3BD1A12A0E4ECB005","019cea6e-5844-7fd6-9dc4-eb9428bc6297","019cea5b-a1d2-7168-a211-b4d8162559a9","","913","
                <div class=""stimulus-container"">
                    <img src=""images/schematic_sequence/interview_scheme/interview_scheme_8.png"" class=""exp-image"">
                    <div class=""question-area"">
                        <p style=""font-size: 20px; font-weight: bold; margin: 0;"">Is there a person in this image?</p>
                    </div>
                </div>","0","main_experiment_trial","8","interview_scheme","schematic_sequence","","","","","","","","",""
"","","","","","html-keyboard-response","95","401016","0.0-95.0","407393E08DF84DF3BD1A12A0E4ECB005","019cea6e-5844-7fd6-9dc4-eb9428bc6297","019cea5b-a1d2-7168-a211-b4d8162559a9","","null","
                <div class=""stimulus-container"">
                    <img src=""images/schematic_sequence/interview_scheme/interview_scheme_9.png"" class=""exp-image"">
                    <div class=""question-area""></div> 
                </div>","null","","","","","","","","","","","","",""
"","","","","","html-button-response","96","401990","0.0-96.0","407393E08DF84DF3BD1A12A0E4ECB005","019cea6e-5844-7fd6-9dc4-eb9428bc6297","019cea5b-a1d2-7168-a211-b4d8162559a9","","974","
                <div class=""stimulus-container"">
                    <img src=""images/schematic_sequence/interview_scheme/interview_scheme_9.png"" class=""exp-image"">
                    <div class=""question-area"">
                        <p style=""font-size: 20px; font-weight: bold; margin: 0;"">Is there a person in this image?</p>
                    </div>
                </div>","0","main_experiment_trial","9","interview_scheme","schematic_sequence","","","","","","","","",""
"","","","","","html-keyboard-response","97","407001","0.0-97.0","407393E08DF84DF3BD1A12A0E4ECB005","019cea6e-5844-7fd6-9dc4-eb9428bc6297","019cea5b-a1d2-7168-a211-b4d8162559a9","","null","
                <div class=""stimulus-container"">
                    <img src=""images/schematic_sequence/interview_scheme/interview_scheme_ten.png"" class=""exp-image"">
                    <div class=""question-area""></div> 
                </div>","null","","","","","","","","","","","","",""
"","","","","","html-button-response","98","408562","0.0-98.0","407393E08DF84DF3BD1A12A0E4ECB005","019cea6e-5844-7fd6-9dc4-eb9428bc6297","019cea5b-a1d2-7168-a211-b4d8162559a9","","1560","
                <div class=""stimulus-container"">
                    <img src=""images/schematic_sequence/interview_scheme/interview_scheme_ten.png"" class=""exp-image"">
                    <div class=""question-area"">
                        <p style=""font-size: 20px; font-weight: bold; margin: 0;"">Is there a person in this image?</p>
                    </div>
                </div>","0","main_experiment_trial","ten","interview_scheme","schematic_sequence","","","","","","","","",""
"","","","","","html-keyboard-response","99","409564","0.0-99.0","407393E08DF84DF3BD1A12A0E4ECB005","019cea6e-5844-7fd6-9dc4-eb9428bc6297","019cea5b-a1d2-7168-a211-b4d8162559a9","","null","<div style=""background-color: white; width: 100vw; height: 100vh;""></div>","null","","","","","","","","","","","","",""
"","","","","","html-keyboard-response","100","414579","0.0-100.0","407393E08DF84DF3BD1A12A0E4ECB005","019cea6e-5844-7fd6-9dc4-eb9428bc6297","019cea5b-a1d2-7168-a211-b4d8162559a9","","null","
                <div class=""stimulus-container"">
                    <img src=""images/semantic_sequence/redecorating_a_house_semantic/redecorating_a_house_semantic_1.png"" class=""exp-image"">
                    <div class=""question-area""></div> 
                </div>","null","","","","","","","","","","","","",""
"","","","","","html-button-response","101","415558","0.0-101.0","407393E08DF84DF3BD1A12A0E4ECB005","019cea6e-5844-7fd6-9dc4-eb9428bc6297","019cea5b-a1d2-7168-a211-b4d8162559a9","","979","
                <div class=""stimulus-container"">
                    <img src=""images/semantic_sequence/redecorating_a_house_semantic/redecorating_a_house_semantic_1.png"" class=""exp-image"">
                    <div class=""question-area"">
                        <p style=""font-size: 20px; font-weight: bold; margin: 0;"">Is there a person in this image?</p>
                    </div>
                </div>","0","main_experiment_trial","1","redecorating_a_house_semantic","semantic_sequence","","","","","","","","",""
"","","","","","html-keyboard-response","102","420568","0.0-102.0","407393E08DF84DF3BD1A12A0E4ECB005","019cea6e-5844-7fd6-9dc4-eb9428bc6297","019cea5b-a1d2-7168-a211-b4d8162559a9","","null","
                <div class=""stimulus-container"">
                    <img src=""images/semantic_sequence/redecorating_a_house_semantic/redecorating_a_house_semantic_2.png"" class=""exp-image"">
                    <div class=""question-area""></div> 
                </div>","null","","","","","","","","","","","","",""
"","","","","","html-button-response","103","422181","0.0-103.0","407393E08DF84DF3BD1A12A0E4ECB005","019cea6e-5844-7fd6-9dc4-eb9428bc6297","019cea5b-a1d2-7168-a211-b4d8162559a9","","1612","
                <div class=""stimulus-container"">
                    <img src=""images/semantic_sequence/redecorating_a_house_semantic/redecorating_a_house_semantic_2.png"" class=""exp-image"">
                    <div class=""question-area"">
                        <p style=""font-size: 20px; font-weight: bold; margin: 0;"">Is there a person in this image?</p>
                    </div>
                </div>","0","main_experiment_trial","2","redecorating_a_house_semantic","semantic_sequence","","","","","","","","",""
"","","","","","html-keyboard-response","104","427184","0.0-104.0","407393E08DF84DF3BD1A12A0E4ECB005","019cea6e-5844-7fd6-9dc4-eb9428bc6297","019cea5b-a1d2-7168-a211-b4d8162559a9","","null","
                <div class=""stimulus-container"">
                    <img src=""images/semantic_sequence/redecorating_a_house_semantic/redecorating_a_house_semantic_3.png"" class=""exp-image"">
                    <div class=""question-area""></div> 
                </div>","null","","","","","","","","","","","","",""
"","","","","","html-button-response","105","428280","0.0-105.0","407393E08DF84DF3BD1A12A0E4ECB005","019cea6e-5844-7fd6-9dc4-eb9428bc6297","019cea5b-a1d2-7168-a211-b4d8162559a9","","1095","
                <div class=""stimulus-container"">
                    <img src=""images/semantic_sequence/redecorating_a_house_semantic/redecorating_a_house_semantic_3.png"" class=""exp-image"">
                    <div class=""question-area"">
                        <p style=""font-size: 20px; font-weight: bold; margin: 0;"">Is there a person in this image?</p>
                    </div>
                </div>","0","main_experiment_trial","3","redecorating_a_house_semantic","semantic_sequence","","","","","","","","",""
"","","","","","html-keyboard-response","106","433287","0.0-106.0","407393E08DF84DF3BD1A12A0E4ECB005","019cea6e-5844-7fd6-9dc4-eb9428bc6297","019cea5b-a1d2-7168-a211-b4d8162559a9","","null","
                <div class=""stimulus-container"">
                    <img src=""images/semantic_sequence/redecorating_a_house_semantic/redecorating_a_house_semantic_4.png"" class=""exp-image"">
                    <div class=""question-area""></div> 
                </div>","null","","","","","","","","","","","","",""
"","","","","","html-button-response","107","434216","0.0-107.0","407393E08DF84DF3BD1A12A0E4ECB005","019cea6e-5844-7fd6-9dc4-eb9428bc6297","019cea5b-a1d2-7168-a211-b4d8162559a9","","928","
                <div class=""stimulus-container"">
                    <img src=""images/semantic_sequence/redecorating_a_house_semantic/redecorating_a_house_semantic_4.png"" class=""exp-image"">
                    <div class=""question-area"">
                        <p style=""font-size: 20px; font-weight: bold; margin: 0;"">Is there a person in this image?</p>
                    </div>
                </div>","0","main_experiment_trial","4","redecorating_a_house_semantic","semantic_sequence","","","","","","","","",""
"","","","","","html-keyboard-response","108","439222","0.0-108.0","407393E08DF84DF3BD1A12A0E4ECB005","019cea6e-5844-7fd6-9dc4-eb9428bc6297","019cea5b-a1d2-7168-a211-b4d8162559a9","","null","
                <div class=""stimulus-container"">
                    <img src=""images/semantic_sequence/redecorating_a_house_semantic/redecorating_a_house_semantic_5.png"" class=""exp-image"">
                    <div class=""question-area""></div> 
                </div>","null","","","","","","","","","","","","",""
"","","","","","html-button-response","109","440133","0.0-109.0","407393E08DF84DF3BD1A12A0E4ECB005","019cea6e-5844-7fd6-9dc4-eb9428bc6297","019cea5b-a1d2-7168-a211-b4d8162559a9","","911","
                <div class=""stimulus-container"">
                    <img src=""images/semantic_sequence/redecorating_a_house_semantic/redecorating_a_house_semantic_5.png"" class=""exp-image"">
                    <div class=""question-area"">
                        <p style=""font-size: 20px; font-weight: bold; margin: 0;"">Is there a person in this image?</p>
                    </div>
                </div>","0","main_experiment_trial","5","redecorating_a_house_semantic","semantic_sequence","","","","","","","","",""
"","","","","","html-keyboard-response","110","445148","0.0-110.0","407393E08DF84DF3BD1A12A0E4ECB005","019cea6e-5844-7fd6-9dc4-eb9428bc6297","019cea5b-a1d2-7168-a211-b4d8162559a9","","null","
                <div class=""stimulus-container"">
                    <img src=""images/semantic_sequence/redecorating_a_house_semantic/redecorating_a_house_semantic_6.png"" class=""exp-image"">
                    <div class=""question-area""></div> 
                </div>","null","","","","","","","","","","","","",""
"","","","","","html-button-response","111","446039","0.0-111.0","407393E08DF84DF3BD1A12A0E4ECB005","019cea6e-5844-7fd6-9dc4-eb9428bc6297","019cea5b-a1d2-7168-a211-b4d8162559a9","","891","
                <div class=""stimulus-container"">
                    <img src=""images/semantic_sequence/redecorating_a_house_semantic/redecorating_a_house_semantic_6.png"" class=""exp-image"">
                    <div class=""question-area"">
                        <p style=""font-size: 20px; font-weight: bold; margin: 0;"">Is there a person in this image?</p>
                    </div>
                </div>","0","main_experiment_trial","6","redecorating_a_house_semantic","semantic_sequence","","","","","","","","",""
"","","","","","html-keyboard-response","112","451052","0.0-112.0","407393E08DF84DF3BD1A12A0E4ECB005","019cea6e-5844-7fd6-9dc4-eb9428bc6297","019cea5b-a1d2-7168-a211-b4d8162559a9","","null","
                <div class=""stimulus-container"">
                    <img src=""images/semantic_sequence/redecorating_a_house_semantic/redecorating_a_house_semantic_7.png"" class=""exp-image"">
                    <div class=""question-area""></div> 
                </div>","null","","","","","","","","","","","","",""
"","","","","","html-button-response","113","451810","0.0-113.0","407393E08DF84DF3BD1A12A0E4ECB005","019cea6e-5844-7fd6-9dc4-eb9428bc6297","019cea5b-a1d2-7168-a211-b4d8162559a9","","758","
                <div class=""stimulus-container"">
                    <img src=""images/semantic_sequence/redecorating_a_house_semantic/redecorating_a_house_semantic_7.png"" class=""exp-image"">
                    <div class=""question-area"">
                        <p style=""font-size: 20px; font-weight: bold; margin: 0;"">Is there a person in this image?</p>
                    </div>
                </div>","0","main_experiment_trial","7","redecorating_a_house_semantic","semantic_sequence","","","","","","","","",""
"","","","","","html-keyboard-response","114","456816","0.0-114.0","407393E08DF84DF3BD1A12A0E4ECB005","019cea6e-5844-7fd6-9dc4-eb9428bc6297","019cea5b-a1d2-7168-a211-b4d8162559a9","","null","
                <div class=""stimulus-container"">
                    <img src=""images/semantic_sequence/redecorating_a_house_semantic/redecorating_a_house_semantic_8.png"" class=""exp-image"">
                    <div class=""question-area""></div> 
                </div>","null","","","","","","","","","","","","",""
"","","","","","html-button-response","115","457928","0.0-115.0","407393E08DF84DF3BD1A12A0E4ECB005","019cea6e-5844-7fd6-9dc4-eb9428bc6297","019cea5b-a1d2-7168-a211-b4d8162559a9","","1112","
                <div class=""stimulus-container"">
                    <img src=""images/semantic_sequence/redecorating_a_house_semantic/redecorating_a_house_semantic_8.png"" class=""exp-image"">
                    <div class=""question-area"">
                        <p style=""font-size: 20px; font-weight: bold; margin: 0;"">Is there a person in this image?</p>
                    </div>
                </div>","0","main_experiment_trial","8","redecorating_a_house_semantic","semantic_sequence","","","","","","","","",""
"","","","","","html-keyboard-response","116","462930","0.0-116.0","407393E08DF84DF3BD1A12A0E4ECB005","019cea6e-5844-7fd6-9dc4-eb9428bc6297","019cea5b-a1d2-7168-a211-b4d8162559a9","","null","
                <div class=""stimulus-container"">
                    <img src=""images/semantic_sequence/redecorating_a_house_semantic/redecorating_a_house_semantic_9.png"" class=""exp-image"">
                    <div class=""question-area""></div> 
                </div>","null","","","","","","","","","","","","",""
"","","","","","html-button-response","117","464655","0.0-117.0","407393E08DF84DF3BD1A12A0E4ECB005","019cea6e-5844-7fd6-9dc4-eb9428bc6297","019cea5b-a1d2-7168-a211-b4d8162559a9","","1724","
                <div class=""stimulus-container"">
                    <img src=""images/semantic_sequence/redecorating_a_house_semantic/redecorating_a_house_semantic_9.png"" class=""exp-image"">
                    <div class=""question-area"">
                        <p style=""font-size: 20px; font-weight: bold; margin: 0;"">Is there a person in this image?</p>
                    </div>
                </div>","0","main_experiment_trial","9","redecorating_a_house_semantic","semantic_sequence","","","","","","","","",""
"","","","","","html-keyboard-response","118","469660","0.0-118.0","407393E08DF84DF3BD1A12A0E4ECB005","019cea6e-5844-7fd6-9dc4-eb9428bc6297","019cea5b-a1d2-7168-a211-b4d8162559a9","","null","
                <div class=""stimulus-container"">
                    <img src=""images/semantic_sequence/redecorating_a_house_semantic/redecorating_a_house_semantic_ten.png"" class=""exp-image"">
                    <div class=""question-area""></div> 
                </div>","null","","","","","","","","","","","","",""
"","","","","","html-button-response","119","470311","0.0-119.0","407393E08DF84DF3BD1A12A0E4ECB005","019cea6e-5844-7fd6-9dc4-eb9428bc6297","019cea5b-a1d2-7168-a211-b4d8162559a9","","651","
                <div class=""stimulus-container"">
                    <img src=""images/semantic_sequence/redecorating_a_house_semantic/redecorating_a_house_semantic_ten.png"" class=""exp-image"">
                    <div class=""question-area"">
                        <p style=""font-size: 20px; font-weight: bold; margin: 0;"">Is there a person in this image?</p>
                    </div>
                </div>","0","main_experiment_trial","ten","redecorating_a_house_semantic","semantic_sequence","","","","","","","","",""
"","","","","","html-keyboard-response","120","471320","0.0-120.0","407393E08DF84DF3BD1A12A0E4ECB005","019cea6e-5844-7fd6-9dc4-eb9428bc6297","019cea5b-a1d2-7168-a211-b4d8162559a9","","null","<div style=""background-color: white; width: 100vw; height: 100vh;""></div>","null","","","","","","","","","","","","",""
"","","","","","html-keyboard-response","121","476333","0.0-121.0","407393E08DF84DF3BD1A12A0E4ECB005","019cea6e-5844-7fd6-9dc4-eb9428bc6297","019cea5b-a1d2-7168-a211-b4d8162559a9","","null","
                <div class=""stimulus-container"">
                    <img src=""images/semantic_sequence/cat_care_semantic/cat_care_semantic_1.png"" class=""exp-image"">
                    <div class=""question-area""></div> 
                </div>","null","","","","","","","","","","","","",""
"","","","","","html-button-response","122","477076","0.0-122.0","407393E08DF84DF3BD1A12A0E4ECB005","019cea6e-5844-7fd6-9dc4-eb9428bc6297","019cea5b-a1d2-7168-a211-b4d8162559a9","","742","
                <div class=""stimulus-container"">
                    <img src=""images/semantic_sequence/cat_care_semantic/cat_care_semantic_1.png"" class=""exp-image"">
                    <div class=""question-area"">
                        <p style=""font-size: 20px; font-weight: bold; margin: 0;"">Is there a person in this image?</p>
                    </div>
                </div>","0","main_experiment_trial","1","cat_care_semantic","semantic_sequence","","","","","","","","",""
"","","","","","html-keyboard-response","123","482088","0.0-123.0","407393E08DF84DF3BD1A12A0E4ECB005","019cea6e-5844-7fd6-9dc4-eb9428bc6297","019cea5b-a1d2-7168-a211-b4d8162559a9","","null","
                <div class=""stimulus-container"">
                    <img src=""images/semantic_sequence/cat_care_semantic/cat_care_semantic_2.png"" class=""exp-image"">
                    <div class=""question-area""></div> 
                </div>","null","","","","","","","","","","","","",""
"","","","","","html-button-response","124","484849","0.0-124.0","407393E08DF84DF3BD1A12A0E4ECB005","019cea6e-5844-7fd6-9dc4-eb9428bc6297","019cea5b-a1d2-7168-a211-b4d8162559a9","","2761","
                <div class=""stimulus-container"">
                    <img src=""images/semantic_sequence/cat_care_semantic/cat_care_semantic_2.png"" class=""exp-image"">
                    <div class=""question-area"">
                        <p style=""font-size: 20px; font-weight: bold; margin: 0;"">Is there a person in this image?</p>
                    </div>
                </div>","0","main_experiment_trial","2","cat_care_semantic","semantic_sequence","","","","","","","","",""
"","","","","","html-keyboard-response","125","489852","0.0-125.0","407393E08DF84DF3BD1A12A0E4ECB005","019cea6e-5844-7fd6-9dc4-eb9428bc6297","019cea5b-a1d2-7168-a211-b4d8162559a9","","null","
                <div class=""stimulus-container"">
                    <img src=""images/semantic_sequence/cat_care_semantic/cat_care_semantic_3.png"" class=""exp-image"">
                    <div class=""question-area""></div> 
                </div>","null","","","","","","","","","","","","",""
"","","","","","html-button-response","126","492853","0.0-126.0","407393E08DF84DF3BD1A12A0E4ECB005","019cea6e-5844-7fd6-9dc4-eb9428bc6297","019cea5b-a1d2-7168-a211-b4d8162559a9","","null","
                <div class=""stimulus-container"">
                    <img src=""images/semantic_sequence/cat_care_semantic/cat_care_semantic_3.png"" class=""exp-image"">
                    <div class=""question-area"">
                        <p style=""font-size: 20px; font-weight: bold; margin: 0;"">Is there a person in this image?</p>
                    </div>
                </div>","null","main_experiment_trial","3","cat_care_semantic","semantic_sequence","","","","","","","","",""
"","","","","","html-keyboard-response","127","497854","0.0-127.0","407393E08DF84DF3BD1A12A0E4ECB005","019cea6e-5844-7fd6-9dc4-eb9428bc6297","019cea5b-a1d2-7168-a211-b4d8162559a9","","null","
                <div class=""stimulus-container"">
                    <img src=""images/semantic_sequence/cat_care_semantic/cat_care_semantic_4.png"" class=""exp-image"">
                    <div class=""question-area""></div> 
                </div>","null","","","","","","","","","","","","",""
"","","","","","html-button-response","128","500856","0.0-128.0","407393E08DF84DF3BD1A12A0E4ECB005","019cea6e-5844-7fd6-9dc4-eb9428bc6297","019cea5b-a1d2-7168-a211-b4d8162559a9","","null","
                <div class=""stimulus-container"">
                    <img src=""images/semantic_sequence/cat_care_semantic/cat_care_semantic_4.png"" class=""exp-image"">
                    <div class=""question-area"">
                        <p style=""font-size: 20px; font-weight: bold; margin: 0;"">Is there a person in this image?</p>
                    </div>
                </div>","null","main_experiment_trial","4","cat_care_semantic","semantic_sequence","","","","","","","","",""
"","","","","","html-keyboard-response","129","505864","0.0-129.0","407393E08DF84DF3BD1A12A0E4ECB005","019cea6e-5844-7fd6-9dc4-eb9428bc6297","019cea5b-a1d2-7168-a211-b4d8162559a9","","null","
                <div class=""stimulus-container"">
                    <img src=""images/semantic_sequence/cat_care_semantic/cat_care_semantic_5.png"" class=""exp-image"">
                    <div class=""question-area""></div> 
                </div>","null","","","","","","","","","","","","",""
"","","","","","html-button-response","130","506576","0.0-130.0","407393E08DF84DF3BD1A12A0E4ECB005","019cea6e-5844-7fd6-9dc4-eb9428bc6297","019cea5b-a1d2-7168-a211-b4d8162559a9","","711","
                <div class=""stimulus-container"">
                    <img src=""images/semantic_sequence/cat_care_semantic/cat_care_semantic_5.png"" class=""exp-image"">
                    <div class=""question-area"">
                        <p style=""font-size: 20px; font-weight: bold; margin: 0;"">Is there a person in this image?</p>
                    </div>
                </div>","0","main_experiment_trial","5","cat_care_semantic","semantic_sequence","","","","","","","","",""
"","","","","","html-keyboard-response","131","511585","0.0-131.0","407393E08DF84DF3BD1A12A0E4ECB005","019cea6e-5844-7fd6-9dc4-eb9428bc6297","019cea5b-a1d2-7168-a211-b4d8162559a9","","null","
                <div class=""stimulus-container"">
                    <img src=""images/semantic_sequence/cat_care_semantic/cat_care_semantic_6.png"" class=""exp-image"">
                    <div class=""question-area""></div> 
                </div>","null","","","","","","","","","","","","",""
"","","","","","html-button-response","132","512283","0.0-132.0","407393E08DF84DF3BD1A12A0E4ECB005","019cea6e-5844-7fd6-9dc4-eb9428bc6297","019cea5b-a1d2-7168-a211-b4d8162559a9","","698","
                <div class=""stimulus-container"">
                    <img src=""images/semantic_sequence/cat_care_semantic/cat_care_semantic_6.png"" class=""exp-image"">
                    <div class=""question-area"">
                        <p style=""font-size: 20px; font-weight: bold; margin: 0;"">Is there a person in this image?</p>
                    </div>
                </div>","0","main_experiment_trial","6","cat_care_semantic","semantic_sequence","","","","","","","","",""
"","","","","","html-keyboard-response","133","517286","0.0-133.0","407393E08DF84DF3BD1A12A0E4ECB005","019cea6e-5844-7fd6-9dc4-eb9428bc6297","019cea5b-a1d2-7168-a211-b4d8162559a9","","null","
                <div class=""stimulus-container"">
                    <img src=""images/semantic_sequence/cat_care_semantic/cat_care_semantic_7.png"" class=""exp-image"">
                    <div class=""question-area""></div> 
                </div>","null","","","","","","","","","","","","",""
"","","","","","html-button-response","134","517994","0.0-134.0","407393E08DF84DF3BD1A12A0E4ECB005","019cea6e-5844-7fd6-9dc4-eb9428bc6297","019cea5b-a1d2-7168-a211-b4d8162559a9","","707","
                <div class=""stimulus-container"">
                    <img src=""images/semantic_sequence/cat_care_semantic/cat_care_semantic_7.png"" class=""exp-image"">
                    <div class=""question-area"">
                        <p style=""font-size: 20px; font-weight: bold; margin: 0;"">Is there a person in this image?</p>
                    </div>
                </div>","0","main_experiment_trial","7","cat_care_semantic","semantic_sequence","","","","","","","","",""
"","","","","","html-keyboard-response","135","523005","0.0-135.0","407393E08DF84DF3BD1A12A0E4ECB005","019cea6e-5844-7fd6-9dc4-eb9428bc6297","019cea5b-a1d2-7168-a211-b4d8162559a9","","null","
                <div class=""stimulus-container"">
                    <img src=""images/semantic_sequence/cat_care_semantic/cat_care_semantic_8.png"" class=""exp-image"">
                    <div class=""question-area""></div> 
                </div>","null","","","","","","","","","","","","",""
"","","","","","html-button-response","136","523921","0.0-136.0","407393E08DF84DF3BD1A12A0E4ECB005","019cea6e-5844-7fd6-9dc4-eb9428bc6297","019cea5b-a1d2-7168-a211-b4d8162559a9","","916","
                <div class=""stimulus-container"">
                    <img src=""images/semantic_sequence/cat_care_semantic/cat_care_semantic_8.png"" class=""exp-image"">
                    <div class=""question-area"">
                        <p style=""font-size: 20px; font-weight: bold; margin: 0;"">Is there a person in this image?</p>
                    </div>
                </div>","0","main_experiment_trial","8","cat_care_semantic","semantic_sequence","","","","","","","","",""
"","","","","","html-keyboard-response","137","528928","0.0-137.0","407393E08DF84DF3BD1A12A0E4ECB005","019cea6e-5844-7fd6-9dc4-eb9428bc6297","019cea5b-a1d2-7168-a211-b4d8162559a9","","null","
                <div class=""stimulus-container"">
                    <img src=""images/semantic_sequence/cat_care_semantic/cat_care_semantic_9.png"" class=""exp-image"">
                    <div class=""question-area""></div> 
                </div>","null","","","","","","","","","","","","",""
"","","","","","html-button-response","138","530976","0.0-138.0","407393E08DF84DF3BD1A12A0E4ECB005","019cea6e-5844-7fd6-9dc4-eb9428bc6297","019cea5b-a1d2-7168-a211-b4d8162559a9","","2048","
                <div class=""stimulus-container"">
                    <img src=""images/semantic_sequence/cat_care_semantic/cat_care_semantic_9.png"" class=""exp-image"">
                    <div class=""question-area"">
                        <p style=""font-size: 20px; font-weight: bold; margin: 0;"">Is there a person in this image?</p>
                    </div>
                </div>","0","main_experiment_trial","9","cat_care_semantic","semantic_sequence","","","","","","","","",""
"","","","","","html-keyboard-response","139","535979","0.0-139.0","407393E08DF84DF3BD1A12A0E4ECB005","019cea6e-5844-7fd6-9dc4-eb9428bc6297","019cea5b-a1d2-7168-a211-b4d8162559a9","","null","
                <div class=""stimulus-container"">
                    <img src=""images/semantic_sequence/cat_care_semantic/cat_care_semantic_ten.png"" class=""exp-image"">
                    <div class=""question-area""></div> 
                </div>","null","","","","","","","","","","","","",""
"","","","","","html-button-response","140","536915","0.0-140.0","407393E08DF84DF3BD1A12A0E4ECB005","019cea6e-5844-7fd6-9dc4-eb9428bc6297","019cea5b-a1d2-7168-a211-b4d8162559a9","","936","
                <div class=""stimulus-container"">
                    <img src=""images/semantic_sequence/cat_care_semantic/cat_care_semantic_ten.png"" class=""exp-image"">
                    <div class=""question-area"">
                        <p style=""font-size: 20px; font-weight: bold; margin: 0;"">Is there a person in this image?</p>
                    </div>
                </div>","1","main_experiment_trial","ten","cat_care_semantic","semantic_sequence","","","","","","","","",""
"","","","","","html-keyboard-response","141","537916","0.0-141.0","407393E08DF84DF3BD1A12A0E4ECB005","019cea6e-5844-7fd6-9dc4-eb9428bc6297","019cea5b-a1d2-7168-a211-b4d8162559a9","","null","<div style=""background-color: white; width: 100vw; height: 100vh;""></div>","null","","","","","","","","","","","","",""
"","","","","","html-keyboard-response","142","542927","0.0-142.0","407393E08DF84DF3BD1A12A0E4ECB005","019cea6e-5844-7fd6-9dc4-eb9428bc6297","019cea5b-a1d2-7168-a211-b4d8162559a9","","null","
                <div class=""stimulus-container"">
                    <img src=""images/semantic_sequence/market_semantic/market_semantic_1.png"" class=""exp-image"">
                    <div class=""question-area""></div> 
                </div>","null","","","","","","","","","","","","",""
"","","","","","html-button-response","143","544346","0.0-143.0","407393E08DF84DF3BD1A12A0E4ECB005","019cea6e-5844-7fd6-9dc4-eb9428bc6297","019cea5b-a1d2-7168-a211-b4d8162559a9","","1418","
                <div class=""stimulus-container"">
                    <img src=""images/semantic_sequence/market_semantic/market_semantic_1.png"" class=""exp-image"">
                    <div class=""question-area"">
                        <p style=""font-size: 20px; font-weight: bold; margin: 0;"">Is there a person in this image?</p>
                    </div>
                </div>","0","main_experiment_trial","1","market_semantic","semantic_sequence","","","","","","","","",""
"","","","","","html-keyboard-response","144","549353","0.0-144.0","407393E08DF84DF3BD1A12A0E4ECB005","019cea6e-5844-7fd6-9dc4-eb9428bc6297","019cea5b-a1d2-7168-a211-b4d8162559a9","","null","
                <div class=""stimulus-container"">
                    <img src=""images/semantic_sequence/market_semantic/market_semantic_2.png"" class=""exp-image"">
                    <div class=""question-area""></div> 
                </div>","null","","","","","","","","","","","","",""
"","","","","","html-button-response","145","550985","0.0-145.0","407393E08DF84DF3BD1A12A0E4ECB005","019cea6e-5844-7fd6-9dc4-eb9428bc6297","019cea5b-a1d2-7168-a211-b4d8162559a9","","1631","
                <div class=""stimulus-container"">
                    <img src=""images/semantic_sequence/market_semantic/market_semantic_2.png"" class=""exp-image"">
                    <div class=""question-area"">
                        <p style=""font-size: 20px; font-weight: bold; margin: 0;"">Is there a person in this image?</p>
                    </div>
                </div>","1","main_experiment_trial","2","market_semantic","semantic_sequence","","","","","","","","",""
"","","","","","html-keyboard-response","146","555992","0.0-146.0","407393E08DF84DF3BD1A12A0E4ECB005","019cea6e-5844-7fd6-9dc4-eb9428bc6297","019cea5b-a1d2-7168-a211-b4d8162559a9","","null","
                <div class=""stimulus-container"">
                    <img src=""images/semantic_sequence/market_semantic/market_semantic_3.png"" class=""exp-image"">
                    <div class=""question-area""></div> 
                </div>","null","","","","","","","","","","","","",""
"","","","","","html-button-response","147","557299","0.0-147.0","407393E08DF84DF3BD1A12A0E4ECB005","019cea6e-5844-7fd6-9dc4-eb9428bc6297","019cea5b-a1d2-7168-a211-b4d8162559a9","","1307","
                <div class=""stimulus-container"">
                    <img src=""images/semantic_sequence/market_semantic/market_semantic_3.png"" class=""exp-image"">
                    <div class=""question-area"">
                        <p style=""font-size: 20px; font-weight: bold; margin: 0;"">Is there a person in this image?</p>
                    </div>
                </div>","1","main_experiment_trial","3","market_semantic","semantic_sequence","","","","","","","","",""
"","","","","","html-keyboard-response","148","562304","0.0-148.0","407393E08DF84DF3BD1A12A0E4ECB005","019cea6e-5844-7fd6-9dc4-eb9428bc6297","019cea5b-a1d2-7168-a211-b4d8162559a9","","null","
                <div class=""stimulus-container"">
                    <img src=""images/semantic_sequence/market_semantic/market_semantic_4.png"" class=""exp-image"">
                    <div class=""question-area""></div> 
                </div>","null","","","","","","","","","","","","",""
"","","","","","html-button-response","149","563550","0.0-149.0","407393E08DF84DF3BD1A12A0E4ECB005","019cea6e-5844-7fd6-9dc4-eb9428bc6297","019cea5b-a1d2-7168-a211-b4d8162559a9","","1246","
                <div class=""stimulus-container"">
                    <img src=""images/semantic_sequence/market_semantic/market_semantic_4.png"" class=""exp-image"">
                    <div class=""question-area"">
                        <p style=""font-size: 20px; font-weight: bold; margin: 0;"">Is there a person in this image?</p>
                    </div>
                </div>","0","main_experiment_trial","4","market_semantic","semantic_sequence","","","","","","","","",""
"","","","","","html-keyboard-response","150","568552","0.0-150.0","407393E08DF84DF3BD1A12A0E4ECB005","019cea6e-5844-7fd6-9dc4-eb9428bc6297","019cea5b-a1d2-7168-a211-b4d8162559a9","","null","
                <div class=""stimulus-container"">
                    <img src=""images/semantic_sequence/market_semantic/market_semantic_5.png"" class=""exp-image"">
                    <div class=""question-area""></div> 
                </div>","null","","","","","","","","","","","","",""
"","","","","","html-button-response","151","569656","0.0-151.0","407393E08DF84DF3BD1A12A0E4ECB005","019cea6e-5844-7fd6-9dc4-eb9428bc6297","019cea5b-a1d2-7168-a211-b4d8162559a9","","1103","
                <div class=""stimulus-container"">
                    <img src=""images/semantic_sequence/market_semantic/market_semantic_5.png"" class=""exp-image"">
                    <div class=""question-area"">
                        <p style=""font-size: 20px; font-weight: bold; margin: 0;"">Is there a person in this image?</p>
                    </div>
                </div>","1","main_experiment_trial","5","market_semantic","semantic_sequence","","","","","","","","",""
"","","","","","html-keyboard-response","152","574657","0.0-152.0","407393E08DF84DF3BD1A12A0E4ECB005","019cea6e-5844-7fd6-9dc4-eb9428bc6297","019cea5b-a1d2-7168-a211-b4d8162559a9","","null","
                <div class=""stimulus-container"">
                    <img src=""images/semantic_sequence/market_semantic/market_semantic_6.png"" class=""exp-image"">
                    <div class=""question-area""></div> 
                </div>","null","","","","","","","","","","","","",""
"","","","","","html-button-response","153","575666","0.0-153.0","407393E08DF84DF3BD1A12A0E4ECB005","019cea6e-5844-7fd6-9dc4-eb9428bc6297","019cea5b-a1d2-7168-a211-b4d8162559a9","","1008","
                <div class=""stimulus-container"">
                    <img src=""images/semantic_sequence/market_semantic/market_semantic_6.png"" class=""exp-image"">
                    <div class=""question-area"">
                        <p style=""font-size: 20px; font-weight: bold; margin: 0;"">Is there a person in this image?</p>
                    </div>
                </div>","0","main_experiment_trial","6","market_semantic","semantic_sequence","","","","","","","","",""
"","","","","","html-keyboard-response","154","580669","0.0-154.0","407393E08DF84DF3BD1A12A0E4ECB005","019cea6e-5844-7fd6-9dc4-eb9428bc6297","019cea5b-a1d2-7168-a211-b4d8162559a9","","null","
                <div class=""stimulus-container"">
                    <img src=""images/semantic_sequence/market_semantic/market_semantic_7.png"" class=""exp-image"">
                    <div class=""question-area""></div> 
                </div>","null","","","","","","","","","","","","",""
"","","","","","html-button-response","155","581385","0.0-155.0","407393E08DF84DF3BD1A12A0E4ECB005","019cea6e-5844-7fd6-9dc4-eb9428bc6297","019cea5b-a1d2-7168-a211-b4d8162559a9","","716","
                <div class=""stimulus-container"">
                    <img src=""images/semantic_sequence/market_semantic/market_semantic_7.png"" class=""exp-image"">
                    <div class=""question-area"">
                        <p style=""font-size: 20px; font-weight: bold; margin: 0;"">Is there a person in this image?</p>
                    </div>
                </div>","0","main_experiment_trial","7","market_semantic","semantic_sequence","","","","","","","","",""
"","","","","","html-keyboard-response","156","586395","0.0-156.0","407393E08DF84DF3BD1A12A0E4ECB005","019cea6e-5844-7fd6-9dc4-eb9428bc6297","019cea5b-a1d2-7168-a211-b4d8162559a9","","null","
                <div class=""stimulus-container"">
                    <img src=""images/semantic_sequence/market_semantic/market_semantic_8.png"" class=""exp-image"">
                    <div class=""question-area""></div> 
                </div>","null","","","","","","","","","","","","",""
"","","","","","html-button-response","157","587096","0.0-157.0","407393E08DF84DF3BD1A12A0E4ECB005","019cea6e-5844-7fd6-9dc4-eb9428bc6297","019cea5b-a1d2-7168-a211-b4d8162559a9","","701","
                <div class=""stimulus-container"">
                    <img src=""images/semantic_sequence/market_semantic/market_semantic_8.png"" class=""exp-image"">
                    <div class=""question-area"">
                        <p style=""font-size: 20px; font-weight: bold; margin: 0;"">Is there a person in this image?</p>
                    </div>
                </div>","1","main_experiment_trial","8","market_semantic","semantic_sequence","","","","","","","","",""
"","","","","","html-keyboard-response","158","592107","0.0-158.0","407393E08DF84DF3BD1A12A0E4ECB005","019cea6e-5844-7fd6-9dc4-eb9428bc6297","019cea5b-a1d2-7168-a211-b4d8162559a9","","null","
                <div class=""stimulus-container"">
                    <img src=""images/semantic_sequence/market_semantic/market_semantic_9.png"" class=""exp-image"">
                    <div class=""question-area""></div> 
                </div>","null","","","","","","","","","","","","",""
"","","","","","html-button-response","159","592660","0.0-159.0","407393E08DF84DF3BD1A12A0E4ECB005","019cea6e-5844-7fd6-9dc4-eb9428bc6297","019cea5b-a1d2-7168-a211-b4d8162559a9","","553","
                <div class=""stimulus-container"">
                    <img src=""images/semantic_sequence/market_semantic/market_semantic_9.png"" class=""exp-image"">
                    <div class=""question-area"">
                        <p style=""font-size: 20px; font-weight: bold; margin: 0;"">Is there a person in this image?</p>
                    </div>
                </div>","0","main_experiment_trial","9","market_semantic","semantic_sequence","","","","","","","","",""
"","","","","","html-keyboard-response","160","597663","0.0-160.0","407393E08DF84DF3BD1A12A0E4ECB005","019cea6e-5844-7fd6-9dc4-eb9428bc6297","019cea5b-a1d2-7168-a211-b4d8162559a9","","null","
                <div class=""stimulus-container"">
                    <img src=""images/semantic_sequence/market_semantic/market_semantic_ten.png"" class=""exp-image"">
                    <div class=""question-area""></div> 
                </div>","null","","","","","","","","","","","","",""
"","","","","","html-button-response","161","598584","0.0-161.0","407393E08DF84DF3BD1A12A0E4ECB005","019cea6e-5844-7fd6-9dc4-eb9428bc6297","019cea5b-a1d2-7168-a211-b4d8162559a9","","921","
                <div class=""stimulus-container"">
                    <img src=""images/semantic_sequence/market_semantic/market_semantic_ten.png"" class=""exp-image"">
                    <div class=""question-area"">
                        <p style=""font-size: 20px; font-weight: bold; margin: 0;"">Is there a person in this image?</p>
                    </div>
                </div>","0","main_experiment_trial","ten","market_semantic","semantic_sequence","","","","","","","","",""
"","","","","","html-keyboard-response","162","599585","0.0-162.0","407393E08DF84DF3BD1A12A0E4ECB005","019cea6e-5844-7fd6-9dc4-eb9428bc6297","019cea5b-a1d2-7168-a211-b4d8162559a9","","null","<div style=""background-color: white; width: 100vw; height: 100vh;""></div>","null","","","","","","","","","","","","",""
"","","","","","html-keyboard-response","163","604586","0.0-163.0","407393E08DF84DF3BD1A12A0E4ECB005","019cea6e-5844-7fd6-9dc4-eb9428bc6297","019cea5b-a1d2-7168-a211-b4d8162559a9","","null","
                <div class=""stimulus-container"">
                    <img src=""images/semantic_sequence/kitchen_operations_semantic/kitchen_operations_semantic_1.png"" class=""exp-image"">
                    <div class=""question-area""></div> 
                </div>","null","","","","","","","","","","","","",""
"","","","","","html-button-response","164","605409","0.0-164.0","407393E08DF84DF3BD1A12A0E4ECB005","019cea6e-5844-7fd6-9dc4-eb9428bc6297","019cea5b-a1d2-7168-a211-b4d8162559a9","","820","
                <div class=""stimulus-container"">
                    <img src=""images/semantic_sequence/kitchen_operations_semantic/kitchen_operations_semantic_1.png"" class=""exp-image"">
                    <div class=""question-area"">
                        <p style=""font-size: 20px; font-weight: bold; margin: 0;"">Is there a person in this image?</p>
                    </div>
                </div>","0","main_experiment_trial","1","kitchen_operations_semantic","semantic_sequence","","","","","","","","",""
"","","","","","html-keyboard-response","165","610419","0.0-165.0","407393E08DF84DF3BD1A12A0E4ECB005","019cea6e-5844-7fd6-9dc4-eb9428bc6297","019cea5b-a1d2-7168-a211-b4d8162559a9","","null","
                <div class=""stimulus-container"">
                    <img src=""images/semantic_sequence/kitchen_operations_semantic/kitchen_operations_semantic_2.png"" class=""exp-image"">
                    <div class=""question-area""></div> 
                </div>","null","","","","","","","","","","","","",""
"","","","","","html-button-response","166","611241","0.0-166.0","407393E08DF84DF3BD1A12A0E4ECB005","019cea6e-5844-7fd6-9dc4-eb9428bc6297","019cea5b-a1d2-7168-a211-b4d8162559a9","","822","
                <div class=""stimulus-container"">
                    <img src=""images/semantic_sequence/kitchen_operations_semantic/kitchen_operations_semantic_2.png"" class=""exp-image"">
                    <div class=""question-area"">
                        <p style=""font-size: 20px; font-weight: bold; margin: 0;"">Is there a person in this image?</p>
                    </div>
                </div>","0","main_experiment_trial","2","kitchen_operations_semantic","semantic_sequence","","","","","","","","",""
"","","","","","html-keyboard-response","167","616244","0.0-167.0","407393E08DF84DF3BD1A12A0E4ECB005","019cea6e-5844-7fd6-9dc4-eb9428bc6297","019cea5b-a1d2-7168-a211-b4d8162559a9","","null","
                <div class=""stimulus-container"">
                    <img src=""images/semantic_sequence/kitchen_operations_semantic/kitchen_operations_semantic_3.png"" class=""exp-image"">
                    <div class=""question-area""></div> 
                </div>","null","","","","","","","","","","","","",""
"","","","","","html-button-response","168","617035","0.0-168.0","407393E08DF84DF3BD1A12A0E4ECB005","019cea6e-5844-7fd6-9dc4-eb9428bc6297","019cea5b-a1d2-7168-a211-b4d8162559a9","","791","
                <div class=""stimulus-container"">
                    <img src=""images/semantic_sequence/kitchen_operations_semantic/kitchen_operations_semantic_3.png"" class=""exp-image"">
                    <div class=""question-area"">
                        <p style=""font-size: 20px; font-weight: bold; margin: 0;"">Is there a person in this image?</p>
                    </div>
                </div>","0","main_experiment_trial","3","kitchen_operations_semantic","semantic_sequence","","","","","","","","",""
"","","","","","html-keyboard-response","169","622042","0.0-169.0","407393E08DF84DF3BD1A12A0E4ECB005","019cea6e-5844-7fd6-9dc4-eb9428bc6297","019cea5b-a1d2-7168-a211-b4d8162559a9","","null","
                <div class=""stimulus-container"">
                    <img src=""images/semantic_sequence/kitchen_operations_semantic/kitchen_operations_semantic_4.png"" class=""exp-image"">
                    <div class=""question-area""></div> 
                </div>","null","","","","","","","","","","","","",""
"","","","","","html-button-response","170","622875","0.0-170.0","407393E08DF84DF3BD1A12A0E4ECB005","019cea6e-5844-7fd6-9dc4-eb9428bc6297","019cea5b-a1d2-7168-a211-b4d8162559a9","","833","
                <div class=""stimulus-container"">
                    <img src=""images/semantic_sequence/kitchen_operations_semantic/kitchen_operations_semantic_4.png"" class=""exp-image"">
                    <div class=""question-area"">
                        <p style=""font-size: 20px; font-weight: bold; margin: 0;"">Is there a person in this image?</p>
                    </div>
                </div>","0","main_experiment_trial","4","kitchen_operations_semantic","semantic_sequence","","","","","","","","",""
"","","","","","html-keyboard-response","171","627885","0.0-171.0","407393E08DF84DF3BD1A12A0E4ECB005","019cea6e-5844-7fd6-9dc4-eb9428bc6297","019cea5b-a1d2-7168-a211-b4d8162559a9","","null","
                <div class=""stimulus-container"">
                    <img src=""images/semantic_sequence/kitchen_operations_semantic/kitchen_operations_semantic_5.png"" class=""exp-image"">
                    <div class=""question-area""></div> 
                </div>","null","","","","","","","","","","","","",""
"","","","","","html-button-response","172","630888","0.0-172.0","407393E08DF84DF3BD1A12A0E4ECB005","019cea6e-5844-7fd6-9dc4-eb9428bc6297","019cea5b-a1d2-7168-a211-b4d8162559a9","","null","
                <div class=""stimulus-container"">
                    <img src=""images/semantic_sequence/kitchen_operations_semantic/kitchen_operations_semantic_5.png"" class=""exp-image"">
                    <div class=""question-area"">
                        <p style=""font-size: 20px; font-weight: bold; margin: 0;"">Is there a person in this image?</p>
                    </div>
                </div>","null","main_experiment_trial","5","kitchen_operations_semantic","semantic_sequence","","","","","","","","",""
"","","","","","html-keyboard-response","173","635900","0.0-173.0","407393E08DF84DF3BD1A12A0E4ECB005","019cea6e-5844-7fd6-9dc4-eb9428bc6297","019cea5b-a1d2-7168-a211-b4d8162559a9","","null","
                <div class=""stimulus-container"">
                    <img src=""images/semantic_sequence/kitchen_operations_semantic/kitchen_operations_semantic_6.png"" class=""exp-image"">
                    <div class=""question-area""></div> 
                </div>","null","","","","","","","","","","","","",""
"","","","","","html-button-response","174","638901","0.0-174.0","407393E08DF84DF3BD1A12A0E4ECB005","019cea6e-5844-7fd6-9dc4-eb9428bc6297","019cea5b-a1d2-7168-a211-b4d8162559a9","","null","
                <div class=""stimulus-container"">
                    <img src=""images/semantic_sequence/kitchen_operations_semantic/kitchen_operations_semantic_6.png"" class=""exp-image"">
                    <div class=""question-area"">
                        <p style=""font-size: 20px; font-weight: bold; margin: 0;"">Is there a person in this image?</p>
                    </div>
                </div>","null","main_experiment_trial","6","kitchen_operations_semantic","semantic_sequence","","","","","","","","",""
"","","","","","html-keyboard-response","175","643902","0.0-175.0","407393E08DF84DF3BD1A12A0E4ECB005","019cea6e-5844-7fd6-9dc4-eb9428bc6297","019cea5b-a1d2-7168-a211-b4d8162559a9","","null","
                <div class=""stimulus-container"">
                    <img src=""images/semantic_sequence/kitchen_operations_semantic/kitchen_operations_semantic_7.png"" class=""exp-image"">
                    <div class=""question-area""></div> 
                </div>","null","","","","","","","","","","","","",""
"","","","","","html-button-response","176","644648","0.0-176.0","407393E08DF84DF3BD1A12A0E4ECB005","019cea6e-5844-7fd6-9dc4-eb9428bc6297","019cea5b-a1d2-7168-a211-b4d8162559a9","","745","
                <div class=""stimulus-container"">
