"success","timeout","failed_images","failed_audio","failed_video","trial_type","trial_index","time_elapsed","internal_node_id","subject_id","study_id","session_id","view_history","rt","stimulus","response","task","image_index","folder","sequence_type","valuable_image_index","reward_type","chosen_image_index","target_X","correct_choice"
"true","false","[]","[]","[]","preload","0","3291","0.0-0.0","8C82D2AF29D249A6B94CA6CAC28B99AD","019cf4fb-941b-7d69-80fa-c5f1d10fd4c2","019cf498-06e0-702e-b525-9cde1ad77653","","","","","","","","","","","","",""
"","","","","","instructions","1","9525","0.0-1.0","8C82D2AF29D249A6B94CA6CAC28B99AD","019cf4fb-941b-7d69-80fa-c5f1d10fd4c2","019cf498-06e0-702e-b525-9cde1ad77653","[{""page_index"":0,""viewing_time"":6233}]","6233","","","","","","","","","","",""
"","","","","","instructions","2","13088","0.0-2.0","8C82D2AF29D249A6B94CA6CAC28B99AD","019cf4fb-941b-7d69-80fa-c5f1d10fd4c2","019cf498-06e0-702e-b525-9cde1ad77653","[{""page_index"":0,""viewing_time"":3563}]","3563","","","","","","","","","","",""
"true","","","","","fullscreen","3","15823","0.0-3.0","8C82D2AF29D249A6B94CA6CAC28B99AD","019cf4fb-941b-7d69-80fa-c5f1d10fd4c2","019cf498-06e0-702e-b525-9cde1ad77653","","1728","","","","","","","","","","",""
"","","","","","instructions","4","23670","0.0-4.0","8C82D2AF29D249A6B94CA6CAC28B99AD","019cf4fb-941b-7d69-80fa-c5f1d10fd4c2","019cf498-06e0-702e-b525-9cde1ad77653","[{""page_index"":0,""viewing_time"":7847}]","7847","","","","","","","","","","",""
"","","","","","instructions","5","30262","0.0-5.0","8C82D2AF29D249A6B94CA6CAC28B99AD","019cf4fb-941b-7d69-80fa-c5f1d10fd4c2","019cf498-06e0-702e-b525-9cde1ad77653","[{""page_index"":0,""viewing_time"":6590}]","6591","","","","","","","","","","",""
"","","","","","html-keyboard-response","6","34263","0.0-6.0","8C82D2AF29D249A6B94CA6CAC28B99AD","019cf4fb-941b-7d69-80fa-c5f1d10fd4c2","019cf498-06e0-702e-b525-9cde1ad77653","","null","
                <div class=""stimulus-container"">
                    <img src=""images/instructions/movie_1.png"" class=""exp-image"">
                    <div class=""question-area""></div> 
                </div>","null","","","","","","","","",""
"","","","","","html-button-response","7","37095","0.0-7.0","8C82D2AF29D249A6B94CA6CAC28B99AD","019cf4fb-941b-7d69-80fa-c5f1d10fd4c2","019cf498-06e0-702e-b525-9cde1ad77653","","2830","
                <div class=""stimulus-container"">
                    <img src=""images/instructions/movie_1.png"" class=""exp-image"">
                    <div class=""question-area"">
                        <p style=""font-size: 20px; font-weight: bold; margin: 0;"">Was there a person in this image?</p>
                    </div>
                </div>","0","example_question","1","","","","","","",""
"","","","","","html-keyboard-response","8","22881","0.0-8.0","8C82D2AF29D249A6B94CA6CAC28B99AD","019cf4fb-941b-7d69-80fa-c5f1d10fd4c2","019cf498-06e0-702e-b525-9cde1ad77653","","null","
                <div class=""stimulus-container"">
                    <img src=""images/instructions/movie_2.png"" class=""exp-image"">
                    <div class=""question-area""></div> 
                </div>","null","","","","","","","","",""
"","","","","","html-button-response","9","24095","0.0-9.0","8C82D2AF29D249A6B94CA6CAC28B99AD","019cf4fb-941b-7d69-80fa-c5f1d10fd4c2","019cf498-06e0-702e-b525-9cde1ad77653","","1213","
                <div class=""stimulus-container"">
                    <img src=""images/instructions/movie_2.png"" class=""exp-image"">
                    <div class=""question-area"">
                        <p style=""font-size: 20px; font-weight: bold; margin: 0;"">Was there a person in this image?</p>
                    </div>
                </div>","0","example_question","2","","","","","","",""
"","","","","","html-keyboard-response","10","28106","0.0-10.0","8C82D2AF29D249A6B94CA6CAC28B99AD","019cf4fb-941b-7d69-80fa-c5f1d10fd4c2","019cf498-06e0-702e-b525-9cde1ad77653","","null","
                <div class=""stimulus-container"">
                    <img src=""images/instructions/movie_3.png"" class=""exp-image"">
                    <div class=""question-area""></div> 
                </div>","null","","","","","","","","",""
"","","","","","html-button-response","11","28865","0.0-11.0","8C82D2AF29D249A6B94CA6CAC28B99AD","019cf4fb-941b-7d69-80fa-c5f1d10fd4c2","019cf498-06e0-702e-b525-9cde1ad77653","","758","
                <div class=""stimulus-container"">
                    <img src=""images/instructions/movie_3.png"" class=""exp-image"">
                    <div class=""question-area"">
                        <p style=""font-size: 20px; font-weight: bold; margin: 0;"">Was there a person in this image?</p>
                    </div>
                </div>","0","example_question","3","","","","","","",""
"","","","","","html-keyboard-response","12","32869","0.0-12.0","8C82D2AF29D249A6B94CA6CAC28B99AD","019cf4fb-941b-7d69-80fa-c5f1d10fd4c2","019cf498-06e0-702e-b525-9cde1ad77653","","null","
                <div class=""stimulus-container"">
                    <img src=""images/instructions/movie_4.png"" class=""exp-image"">
                    <div class=""question-area""></div> 
                </div>","null","","","","","","","","",""
"","","","","","html-button-response","13","33676","0.0-13.0","8C82D2AF29D249A6B94CA6CAC28B99AD","019cf4fb-941b-7d69-80fa-c5f1d10fd4c2","019cf498-06e0-702e-b525-9cde1ad77653","","806","
                <div class=""stimulus-container"">
                    <img src=""images/instructions/movie_4.png"" class=""exp-image"">
                    <div class=""question-area"">
                        <p style=""font-size: 20px; font-weight: bold; margin: 0;"">Was there a person in this image?</p>
                    </div>
                </div>","0","example_question","4","","","","","","",""
"","","","","","instructions","14","35891","0.0-14.0","8C82D2AF29D249A6B94CA6CAC28B99AD","019cf4fb-941b-7d69-80fa-c5f1d10fd4c2","019cf498-06e0-702e-b525-9cde1ad77653","[{""page_index"":0,""viewing_time"":2214}]","2215","","","","","","","","","","",""
"","","","","","instructions","15","52758","0.0-15.0","8C82D2AF29D249A6B94CA6CAC28B99AD","019cf4fb-941b-7d69-80fa-c5f1d10fd4c2","019cf498-06e0-702e-b525-9cde1ad77653","[{""page_index"":0,""viewing_time"":16865}]","16866","","","","","","","","","","",""
"","","","","","html-keyboard-response","16","53761","0.0-16.0","8C82D2AF29D249A6B94CA6CAC28B99AD","019cf4fb-941b-7d69-80fa-c5f1d10fd4c2","019cf498-06e0-702e-b525-9cde1ad77653","","null","<div style=""background-color: white; width: 100vw; height: 100vh;""></div>","null","","","","","","","","",""
"","","","","","html-keyboard-response","17","58774","0.0-17.0","8C82D2AF29D249A6B94CA6CAC28B99AD","019cf4fb-941b-7d69-80fa-c5f1d10fd4c2","019cf498-06e0-702e-b525-9cde1ad77653","","null","
                <div class=""stimulus-container"">
                    <img src=""images/causal_sequence/saving_a_cat_causal/saving_a_cat_causal_1.png"" class=""exp-image"">
                    <div class=""question-area""></div> 
                </div>","null","","","","","","","","",""
"","","","","","html-button-response","18","59844","0.0-18.0","8C82D2AF29D249A6B94CA6CAC28B99AD","019cf4fb-941b-7d69-80fa-c5f1d10fd4c2","019cf498-06e0-702e-b525-9cde1ad77653","","1069","
                <div class=""stimulus-container"">
                    <img src=""images/causal_sequence/saving_a_cat_causal/saving_a_cat_causal_1.png"" class=""exp-image"">
                    <div class=""question-area"">
                        <p style=""font-size: 20px; font-weight: bold; margin: 0;"">Is there a person in this image?</p>
                    </div>
                </div>","0","main_experiment_trial","1","saving_a_cat_causal","causal_sequence","","","","",""
"","","","","","html-keyboard-response","19","64849","0.0-19.0","8C82D2AF29D249A6B94CA6CAC28B99AD","019cf4fb-941b-7d69-80fa-c5f1d10fd4c2","019cf498-06e0-702e-b525-9cde1ad77653","","null","
                <div class=""stimulus-container"">
                    <img src=""images/causal_sequence/saving_a_cat_causal/saving_a_cat_causal_2.png"" class=""exp-image"">
                    <div class=""question-area""></div> 
                </div>","null","","","","","","","","",""
"","","","","","html-button-response","20","65563","0.0-20.0","8C82D2AF29D249A6B94CA6CAC28B99AD","019cf4fb-941b-7d69-80fa-c5f1d10fd4c2","019cf498-06e0-702e-b525-9cde1ad77653","","713","
                <div class=""stimulus-container"">
                    <img src=""images/causal_sequence/saving_a_cat_causal/saving_a_cat_causal_2.png"" class=""exp-image"">
                    <div class=""question-area"">
                        <p style=""font-size: 20px; font-weight: bold; margin: 0;"">Is there a person in this image?</p>
                    </div>
                </div>","1","main_experiment_trial","2","saving_a_cat_causal","causal_sequence","","","","",""
"","","","","","html-keyboard-response","21","70569","0.0-21.0","8C82D2AF29D249A6B94CA6CAC28B99AD","019cf4fb-941b-7d69-80fa-c5f1d10fd4c2","019cf498-06e0-702e-b525-9cde1ad77653","","null","
                <div class=""stimulus-container"">
                    <img src=""images/causal_sequence/saving_a_cat_causal/saving_a_cat_causal_3.png"" class=""exp-image"">
                    <div class=""question-area""></div> 
                </div>","null","","","","","","","","",""
"","","","","","html-button-response","22","71598","0.0-22.0","8C82D2AF29D249A6B94CA6CAC28B99AD","019cf4fb-941b-7d69-80fa-c5f1d10fd4c2","019cf498-06e0-702e-b525-9cde1ad77653","","1028","
                <div class=""stimulus-container"">
                    <img src=""images/causal_sequence/saving_a_cat_causal/saving_a_cat_causal_3.png"" class=""exp-image"">
                    <div class=""question-area"">
                        <p style=""font-size: 20px; font-weight: bold; margin: 0;"">Is there a person in this image?</p>
                    </div>
                </div>","1","main_experiment_trial","3","saving_a_cat_causal","causal_sequence","","","","",""
"","","","","","html-keyboard-response","23","76609","0.0-23.0","8C82D2AF29D249A6B94CA6CAC28B99AD","019cf4fb-941b-7d69-80fa-c5f1d10fd4c2","019cf498-06e0-702e-b525-9cde1ad77653","","null","
                <div class=""stimulus-container"">
                    <img src=""images/causal_sequence/saving_a_cat_causal/saving_a_cat_causal_4.png"" class=""exp-image"">
                    <div class=""question-area""></div> 
                </div>","null","","","","","","","","",""
"","","","","","html-button-response","24","77447","0.0-24.0","8C82D2AF29D249A6B94CA6CAC28B99AD","019cf4fb-941b-7d69-80fa-c5f1d10fd4c2","019cf498-06e0-702e-b525-9cde1ad77653","","836","
                <div class=""stimulus-container"">
                    <img src=""images/causal_sequence/saving_a_cat_causal/saving_a_cat_causal_4.png"" class=""exp-image"">
                    <div class=""question-area"">
                        <p style=""font-size: 20px; font-weight: bold; margin: 0;"">Is there a person in this image?</p>
                    </div>
                </div>","0","main_experiment_trial","4","saving_a_cat_causal","causal_sequence","","","","",""
"","","","","","html-keyboard-response","25","82456","0.0-25.0","8C82D2AF29D249A6B94CA6CAC28B99AD","019cf4fb-941b-7d69-80fa-c5f1d10fd4c2","019cf498-06e0-702e-b525-9cde1ad77653","","null","
                <div class=""stimulus-container"">
                    <img src=""images/causal_sequence/saving_a_cat_causal/saving_a_cat_causal_5.png"" class=""exp-image"">
                    <div class=""question-area""></div> 
                </div>","null","","","","","","","","",""
"","","","","","html-button-response","26","83155","0.0-26.0","8C82D2AF29D249A6B94CA6CAC28B99AD","019cf4fb-941b-7d69-80fa-c5f1d10fd4c2","019cf498-06e0-702e-b525-9cde1ad77653","","697","
                <div class=""stimulus-container"">
                    <img src=""images/causal_sequence/saving_a_cat_causal/saving_a_cat_causal_5.png"" class=""exp-image"">
                    <div class=""question-area"">
                        <p style=""font-size: 20px; font-weight: bold; margin: 0;"">Is there a person in this image?</p>
                    </div>
                </div>","0","main_experiment_trial","5","saving_a_cat_causal","causal_sequence","","","","",""
"","","","","","html-keyboard-response","27","88170","0.0-27.0","8C82D2AF29D249A6B94CA6CAC28B99AD","019cf4fb-941b-7d69-80fa-c5f1d10fd4c2","019cf498-06e0-702e-b525-9cde1ad77653","","null","
                <div class=""stimulus-container"">
                    <img src=""images/causal_sequence/saving_a_cat_causal/saving_a_cat_causal_6.png"" class=""exp-image"">
                    <div class=""question-area""></div> 
                </div>","null","","","","","","","","",""
"","","","","","html-button-response","28","88902","0.0-28.0","8C82D2AF29D249A6B94CA6CAC28B99AD","019cf4fb-941b-7d69-80fa-c5f1d10fd4c2","019cf498-06e0-702e-b525-9cde1ad77653","","730","
                <div class=""stimulus-container"">
                    <img src=""images/causal_sequence/saving_a_cat_causal/saving_a_cat_causal_6.png"" class=""exp-image"">
                    <div class=""question-area"">
                        <p style=""font-size: 20px; font-weight: bold; margin: 0;"">Is there a person in this image?</p>
                    </div>
                </div>","0","main_experiment_trial","6","saving_a_cat_causal","causal_sequence","","","","",""
"","","","","","html-keyboard-response","29","93912","0.0-29.0","8C82D2AF29D249A6B94CA6CAC28B99AD","019cf4fb-941b-7d69-80fa-c5f1d10fd4c2","019cf498-06e0-702e-b525-9cde1ad77653","","null","
                <div class=""stimulus-container"">
                    <img src=""images/causal_sequence/saving_a_cat_causal/saving_a_cat_causal_7.png"" class=""exp-image"">
                    <div class=""question-area""></div> 
                </div>","null","","","","","","","","",""
"","","","","","html-button-response","30","94598","0.0-30.0","8C82D2AF29D249A6B94CA6CAC28B99AD","019cf4fb-941b-7d69-80fa-c5f1d10fd4c2","019cf498-06e0-702e-b525-9cde1ad77653","","684","
                <div class=""stimulus-container"">
                    <img src=""images/causal_sequence/saving_a_cat_causal/saving_a_cat_causal_7.png"" class=""exp-image"">
                    <div class=""question-area"">
                        <p style=""font-size: 20px; font-weight: bold; margin: 0;"">Is there a person in this image?</p>
                    </div>
                </div>","0","main_experiment_trial","7","saving_a_cat_causal","causal_sequence","","","","",""
"","","","","","html-keyboard-response","31","99615","0.0-31.0","8C82D2AF29D249A6B94CA6CAC28B99AD","019cf4fb-941b-7d69-80fa-c5f1d10fd4c2","019cf498-06e0-702e-b525-9cde1ad77653","","null","
                <div class=""stimulus-container"">
                    <img src=""images/causal_sequence/saving_a_cat_causal/saving_a_cat_causal_8.png"" class=""exp-image"">
                    <div class=""question-area""></div> 
                </div>","null","","","","","","","","",""
"","","","","","html-button-response","32","102249","0.0-32.0","8C82D2AF29D249A6B94CA6CAC28B99AD","019cf4fb-941b-7d69-80fa-c5f1d10fd4c2","019cf498-06e0-702e-b525-9cde1ad77653","","2632","
                <div class=""stimulus-container"">
                    <img src=""images/causal_sequence/saving_a_cat_causal/saving_a_cat_causal_8.png"" class=""exp-image"">
                    <div class=""question-area"">
                        <p style=""font-size: 20px; font-weight: bold; margin: 0;"">Is there a person in this image?</p>
                    </div>
                </div>","0","main_experiment_trial","8","saving_a_cat_causal","causal_sequence","","","","",""
"","","","","","html-keyboard-response","33","107253","0.0-33.0","8C82D2AF29D249A6B94CA6CAC28B99AD","019cf4fb-941b-7d69-80fa-c5f1d10fd4c2","019cf498-06e0-702e-b525-9cde1ad77653","","null","
                <div class=""stimulus-container"">
                    <img src=""images/causal_sequence/saving_a_cat_causal/saving_a_cat_causal_9.png"" class=""exp-image"">
                    <div class=""question-area""></div> 
                </div>","null","","","","","","","","",""
"","","","","","html-button-response","34","108792","0.0-34.0","8C82D2AF29D249A6B94CA6CAC28B99AD","019cf4fb-941b-7d69-80fa-c5f1d10fd4c2","019cf498-06e0-702e-b525-9cde1ad77653","","1538","
                <div class=""stimulus-container"">
                    <img src=""images/causal_sequence/saving_a_cat_causal/saving_a_cat_causal_9.png"" class=""exp-image"">
                    <div class=""question-area"">
                        <p style=""font-size: 20px; font-weight: bold; margin: 0;"">Is there a person in this image?</p>
                    </div>
                </div>","0","main_experiment_trial","9","saving_a_cat_causal","causal_sequence","","","","",""
"","","","","","html-keyboard-response","35","113795","0.0-35.0","8C82D2AF29D249A6B94CA6CAC28B99AD","019cf4fb-941b-7d69-80fa-c5f1d10fd4c2","019cf498-06e0-702e-b525-9cde1ad77653","","null","
                <div class=""stimulus-container"">
                    <img src=""images/causal_sequence/saving_a_cat_causal/saving_a_cat_causal_ten.png"" class=""exp-image"">
                    <div class=""question-area""></div> 
                </div>","null","","","","","","","","",""
"","","","","","html-button-response","36","114528","0.0-36.0","8C82D2AF29D249A6B94CA6CAC28B99AD","019cf4fb-941b-7d69-80fa-c5f1d10fd4c2","019cf498-06e0-702e-b525-9cde1ad77653","","732","
                <div class=""stimulus-container"">
                    <img src=""images/causal_sequence/saving_a_cat_causal/saving_a_cat_causal_ten.png"" class=""exp-image"">
                    <div class=""question-area"">
                        <p style=""font-size: 20px; font-weight: bold; margin: 0;"">Is there a person in this image?</p>
                    </div>
                </div>","0","main_experiment_trial","ten","saving_a_cat_causal","causal_sequence","","","","",""
"","","","","","html-keyboard-response","37","115533","0.0-37.0","8C82D2AF29D249A6B94CA6CAC28B99AD","019cf4fb-941b-7d69-80fa-c5f1d10fd4c2","019cf498-06e0-702e-b525-9cde1ad77653","","null","<div style=""background-color: white; width: 100vw; height: 100vh;""></div>","null","","","","","","","","",""
"","","","","","html-keyboard-response","38","120539","0.0-38.0","8C82D2AF29D249A6B94CA6CAC28B99AD","019cf4fb-941b-7d69-80fa-c5f1d10fd4c2","019cf498-06e0-702e-b525-9cde1ad77653","","null","
                <div class=""stimulus-container"">
                    <img src=""images/schematic_sequence/supermarket_scheme/supermarket_scheme_1.png"" class=""exp-image"">
                    <div class=""question-area""></div> 
                </div>","null","","","","","","","","",""
"","","","","","html-button-response","39","123549","0.0-39.0","8C82D2AF29D249A6B94CA6CAC28B99AD","019cf4fb-941b-7d69-80fa-c5f1d10fd4c2","019cf498-06e0-702e-b525-9cde1ad77653","","null","
                <div class=""stimulus-container"">
                    <img src=""images/schematic_sequence/supermarket_scheme/supermarket_scheme_1.png"" class=""exp-image"">
                    <div class=""question-area"">
                        <p style=""font-size: 20px; font-weight: bold; margin: 0;"">Is there a person in this image?</p>
                    </div>
                </div>","null","main_experiment_trial","1","supermarket_scheme","schematic_sequence","","","","",""
"","","","","","html-keyboard-response","40","128557","0.0-40.0","8C82D2AF29D249A6B94CA6CAC28B99AD","019cf4fb-941b-7d69-80fa-c5f1d10fd4c2","019cf498-06e0-702e-b525-9cde1ad77653","","null","
                <div class=""stimulus-container"">
                    <img src=""images/schematic_sequence/supermarket_scheme/supermarket_scheme_2.png"" class=""exp-image"">
                    <div class=""question-area""></div> 
                </div>","null","","","","","","","","",""
"","","","","","html-button-response","41","131566","0.0-41.0","8C82D2AF29D249A6B94CA6CAC28B99AD","019cf4fb-941b-7d69-80fa-c5f1d10fd4c2","019cf498-06e0-702e-b525-9cde1ad77653","","null","
                <div class=""stimulus-container"">
                    <img src=""images/schematic_sequence/supermarket_scheme/supermarket_scheme_2.png"" class=""exp-image"">
                    <div class=""question-area"">
                        <p style=""font-size: 20px; font-weight: bold; margin: 0;"">Is there a person in this image?</p>
                    </div>
                </div>","null","main_experiment_trial","2","supermarket_scheme","schematic_sequence","","","","",""
"","","","","","html-keyboard-response","42","136578","0.0-42.0","8C82D2AF29D249A6B94CA6CAC28B99AD","019cf4fb-941b-7d69-80fa-c5f1d10fd4c2","019cf498-06e0-702e-b525-9cde1ad77653","","null","
                <div class=""stimulus-container"">
                    <img src=""images/schematic_sequence/supermarket_scheme/supermarket_scheme_3.png"" class=""exp-image"">
                    <div class=""question-area""></div> 
                </div>","null","","","","","","","","",""
"","","","","","html-button-response","43","139593","0.0-43.0","8C82D2AF29D249A6B94CA6CAC28B99AD","019cf4fb-941b-7d69-80fa-c5f1d10fd4c2","019cf498-06e0-702e-b525-9cde1ad77653","","null","
                <div class=""stimulus-container"">
                    <img src=""images/schematic_sequence/supermarket_scheme/supermarket_scheme_3.png"" class=""exp-image"">
                    <div class=""question-area"">
                        <p style=""font-size: 20px; font-weight: bold; margin: 0;"">Is there a person in this image?</p>
                    </div>
                </div>","null","main_experiment_trial","3","supermarket_scheme","schematic_sequence","","","","",""
"","","","","","html-keyboard-response","44","144604","0.0-44.0","8C82D2AF29D249A6B94CA6CAC28B99AD","019cf4fb-941b-7d69-80fa-c5f1d10fd4c2","019cf498-06e0-702e-b525-9cde1ad77653","","null","
                <div class=""stimulus-container"">
                    <img src=""images/schematic_sequence/supermarket_scheme/supermarket_scheme_4.png"" class=""exp-image"">
                    <div class=""question-area""></div> 
                </div>","null","","","","","","","","",""
"","","","","","html-button-response","45","146086","0.0-45.0","8C82D2AF29D249A6B94CA6CAC28B99AD","019cf4fb-941b-7d69-80fa-c5f1d10fd4c2","019cf498-06e0-702e-b525-9cde1ad77653","","1480","
                <div class=""stimulus-container"">
                    <img src=""images/schematic_sequence/supermarket_scheme/supermarket_scheme_4.png"" class=""exp-image"">
                    <div class=""question-area"">
                        <p style=""font-size: 20px; font-weight: bold; margin: 0;"">Is there a person in this image?</p>
                    </div>
                </div>","0","main_experiment_trial","4","supermarket_scheme","schematic_sequence","","","","",""
"","","","","","html-keyboard-response","46","151096","0.0-46.0","8C82D2AF29D249A6B94CA6CAC28B99AD","019cf4fb-941b-7d69-80fa-c5f1d10fd4c2","019cf498-06e0-702e-b525-9cde1ad77653","","null","
                <div class=""stimulus-container"">
                    <img src=""images/schematic_sequence/supermarket_scheme/supermarket_scheme_5.png"" class=""exp-image"">
                    <div class=""question-area""></div> 
                </div>","null","","","","","","","","",""
"","","","","","html-button-response","47","152430","0.0-47.0","8C82D2AF29D249A6B94CA6CAC28B99AD","019cf4fb-941b-7d69-80fa-c5f1d10fd4c2","019cf498-06e0-702e-b525-9cde1ad77653","","1333","
                <div class=""stimulus-container"">
                    <img src=""images/schematic_sequence/supermarket_scheme/supermarket_scheme_5.png"" class=""exp-image"">
                    <div class=""question-area"">
                        <p style=""font-size: 20px; font-weight: bold; margin: 0;"">Is there a person in this image?</p>
                    </div>
                </div>","1","main_experiment_trial","5","supermarket_scheme","schematic_sequence","","","","",""
"","","","","","html-keyboard-response","48","157435","0.0-48.0","8C82D2AF29D249A6B94CA6CAC28B99AD","019cf4fb-941b-7d69-80fa-c5f1d10fd4c2","019cf498-06e0-702e-b525-9cde1ad77653","","null","
                <div class=""stimulus-container"">
                    <img src=""images/schematic_sequence/supermarket_scheme/supermarket_scheme_6.png"" class=""exp-image"">
                    <div class=""question-area""></div> 
                </div>","null","","","","","","","","",""
"","","","","","html-button-response","49","158774","0.0-49.0","8C82D2AF29D249A6B94CA6CAC28B99AD","019cf4fb-941b-7d69-80fa-c5f1d10fd4c2","019cf498-06e0-702e-b525-9cde1ad77653","","1337","
                <div class=""stimulus-container"">
                    <img src=""images/schematic_sequence/supermarket_scheme/supermarket_scheme_6.png"" class=""exp-image"">
                    <div class=""question-area"">
                        <p style=""font-size: 20px; font-weight: bold; margin: 0;"">Is there a person in this image?</p>
                    </div>
                </div>","0","main_experiment_trial","6","supermarket_scheme","schematic_sequence","","","","",""
"","","","","","html-keyboard-response","50","163787","0.0-50.0","8C82D2AF29D249A6B94CA6CAC28B99AD","019cf4fb-941b-7d69-80fa-c5f1d10fd4c2","019cf498-06e0-702e-b525-9cde1ad77653","","null","
                <div class=""stimulus-container"">
                    <img src=""images/schematic_sequence/supermarket_scheme/supermarket_scheme_7.png"" class=""exp-image"">
                    <div class=""question-area""></div> 
                </div>","null","","","","","","","","",""
"","","","","","html-button-response","51","165598","0.0-51.0","8C82D2AF29D249A6B94CA6CAC28B99AD","019cf4fb-941b-7d69-80fa-c5f1d10fd4c2","019cf498-06e0-702e-b525-9cde1ad77653","","1809","
                <div class=""stimulus-container"">
                    <img src=""images/schematic_sequence/supermarket_scheme/supermarket_scheme_7.png"" class=""exp-image"">
                    <div class=""question-area"">
                        <p style=""font-size: 20px; font-weight: bold; margin: 0;"">Is there a person in this image?</p>
                    </div>
                </div>","0","main_experiment_trial","7","supermarket_scheme","schematic_sequence","","","","",""
"","","","","","html-keyboard-response","52","170611","0.0-52.0","8C82D2AF29D249A6B94CA6CAC28B99AD","019cf4fb-941b-7d69-80fa-c5f1d10fd4c2","019cf498-06e0-702e-b525-9cde1ad77653","","null","
                <div class=""stimulus-container"">
                    <img src=""images/schematic_sequence/supermarket_scheme/supermarket_scheme_8.png"" class=""exp-image"">
                    <div class=""question-area""></div> 
                </div>","null","","","","","","","","",""
"","","","","","html-button-response","53","171499","0.0-53.0","8C82D2AF29D249A6B94CA6CAC28B99AD","019cf4fb-941b-7d69-80fa-c5f1d10fd4c2","019cf498-06e0-702e-b525-9cde1ad77653","","887","
                <div class=""stimulus-container"">
                    <img src=""images/schematic_sequence/supermarket_scheme/supermarket_scheme_8.png"" class=""exp-image"">
                    <div class=""question-area"">
                        <p style=""font-size: 20px; font-weight: bold; margin: 0;"">Is there a person in this image?</p>
                    </div>
                </div>","0","main_experiment_trial","8","supermarket_scheme","schematic_sequence","","","","",""
"","","","","","html-keyboard-response","54","176510","0.0-54.0","8C82D2AF29D249A6B94CA6CAC28B99AD","019cf4fb-941b-7d69-80fa-c5f1d10fd4c2","019cf498-06e0-702e-b525-9cde1ad77653","","null","
                <div class=""stimulus-container"">
                    <img src=""images/schematic_sequence/supermarket_scheme/supermarket_scheme_9.png"" class=""exp-image"">
                    <div class=""question-area""></div> 
                </div>","null","","","","","","","","",""
"","","","","","html-button-response","55","177752","0.0-55.0","8C82D2AF29D249A6B94CA6CAC28B99AD","019cf4fb-941b-7d69-80fa-c5f1d10fd4c2","019cf498-06e0-702e-b525-9cde1ad77653","","1241","
                <div class=""stimulus-container"">
                    <img src=""images/schematic_sequence/supermarket_scheme/supermarket_scheme_9.png"" class=""exp-image"">
                    <div class=""question-area"">
                        <p style=""font-size: 20px; font-weight: bold; margin: 0;"">Is there a person in this image?</p>
                    </div>
                </div>","0","main_experiment_trial","9","supermarket_scheme","schematic_sequence","","","","",""
"","","","","","html-keyboard-response","56","182761","0.0-56.0","8C82D2AF29D249A6B94CA6CAC28B99AD","019cf4fb-941b-7d69-80fa-c5f1d10fd4c2","019cf498-06e0-702e-b525-9cde1ad77653","","null","
                <div class=""stimulus-container"">
                    <img src=""images/schematic_sequence/supermarket_scheme/supermarket_scheme_ten.png"" class=""exp-image"">
                    <div class=""question-area""></div> 
                </div>","null","","","","","","","","",""
"","","","","","html-button-response","57","183460","0.0-57.0","8C82D2AF29D249A6B94CA6CAC28B99AD","019cf4fb-941b-7d69-80fa-c5f1d10fd4c2","019cf498-06e0-702e-b525-9cde1ad77653","","698","
                <div class=""stimulus-container"">
                    <img src=""images/schematic_sequence/supermarket_scheme/supermarket_scheme_ten.png"" class=""exp-image"">
                    <div class=""question-area"">
                        <p style=""font-size: 20px; font-weight: bold; margin: 0;"">Is there a person in this image?</p>
                    </div>
                </div>","1","main_experiment_trial","ten","supermarket_scheme","schematic_sequence","","","","",""
"","","","","","html-keyboard-response","58","184469","0.0-58.0","8C82D2AF29D249A6B94CA6CAC28B99AD","019cf4fb-941b-7d69-80fa-c5f1d10fd4c2","019cf498-06e0-702e-b525-9cde1ad77653","","null","<div style=""background-color: white; width: 100vw; height: 100vh;""></div>","null","","","","","","","","",""
"","","","","","html-keyboard-response","59","189470","0.0-59.0","8C82D2AF29D249A6B94CA6CAC28B99AD","019cf4fb-941b-7d69-80fa-c5f1d10fd4c2","019cf498-06e0-702e-b525-9cde1ad77653","","null","
                <div class=""stimulus-container"">
                    <img src=""images/schematic_sequence/restaurant_scheme/restaurant_scheme_1.png"" class=""exp-image"">
                    <div class=""question-area""></div> 
                </div>","null","","","","","","","","",""
"","","","","","html-button-response","60","190729","0.0-60.0","8C82D2AF29D249A6B94CA6CAC28B99AD","019cf4fb-941b-7d69-80fa-c5f1d10fd4c2","019cf498-06e0-702e-b525-9cde1ad77653","","1257","
                <div class=""stimulus-container"">
                    <img src=""images/schematic_sequence/restaurant_scheme/restaurant_scheme_1.png"" class=""exp-image"">
                    <div class=""question-area"">
                        <p style=""font-size: 20px; font-weight: bold; margin: 0;"">Is there a person in this image?</p>
                    </div>
                </div>","0","main_experiment_trial","1","restaurant_scheme","schematic_sequence","","","","",""
"","","","","","html-keyboard-response","61","195731","0.0-61.0","8C82D2AF29D249A6B94CA6CAC28B99AD","019cf4fb-941b-7d69-80fa-c5f1d10fd4c2","019cf498-06e0-702e-b525-9cde1ad77653","","null","
                <div class=""stimulus-container"">
                    <img src=""images/schematic_sequence/restaurant_scheme/restaurant_scheme_2.png"" class=""exp-image"">
                    <div class=""question-area""></div> 
                </div>","null","","","","","","","","",""
"","","","","","html-button-response","62","196046","0.0-62.0","8C82D2AF29D249A6B94CA6CAC28B99AD","019cf4fb-941b-7d69-80fa-c5f1d10fd4c2","019cf498-06e0-702e-b525-9cde1ad77653","","314","
                <div class=""stimulus-container"">
                    <img src=""images/schematic_sequence/restaurant_scheme/restaurant_scheme_2.png"" class=""exp-image"">
                    <div class=""question-area"">
                        <p style=""font-size: 20px; font-weight: bold; margin: 0;"">Is there a person in this image?</p>
                    </div>
                </div>","1","main_experiment_trial","2","restaurant_scheme","schematic_sequence","","","","",""
"","","","","","html-keyboard-response","63","201055","0.0-63.0","8C82D2AF29D249A6B94CA6CAC28B99AD","019cf4fb-941b-7d69-80fa-c5f1d10fd4c2","019cf498-06e0-702e-b525-9cde1ad77653","","null","
                <div class=""stimulus-container"">
                    <img src=""images/schematic_sequence/restaurant_scheme/restaurant_scheme_3.png"" class=""exp-image"">
                    <div class=""question-area""></div> 
                </div>","null","","","","","","","","",""
"","","","","","html-button-response","64","201679","0.0-64.0","8C82D2AF29D249A6B94CA6CAC28B99AD","019cf4fb-941b-7d69-80fa-c5f1d10fd4c2","019cf498-06e0-702e-b525-9cde1ad77653","","623","
                <div class=""stimulus-container"">
                    <img src=""images/schematic_sequence/restaurant_scheme/restaurant_scheme_3.png"" class=""exp-image"">
                    <div class=""question-area"">
                        <p style=""font-size: 20px; font-weight: bold; margin: 0;"">Is there a person in this image?</p>
                    </div>
                </div>","1","main_experiment_trial","3","restaurant_scheme","schematic_sequence","","","","",""
"","","","","","html-keyboard-response","65","206684","0.0-65.0","8C82D2AF29D249A6B94CA6CAC28B99AD","019cf4fb-941b-7d69-80fa-c5f1d10fd4c2","019cf498-06e0-702e-b525-9cde1ad77653","","null","
                <div class=""stimulus-container"">
                    <img src=""images/schematic_sequence/restaurant_scheme/restaurant_scheme_4.png"" class=""exp-image"">
                    <div class=""question-area""></div> 
                </div>","null","","","","","","","","",""
"","","","","","html-button-response","66","207554","0.0-66.0","8C82D2AF29D249A6B94CA6CAC28B99AD","019cf4fb-941b-7d69-80fa-c5f1d10fd4c2","019cf498-06e0-702e-b525-9cde1ad77653","","869","
                <div class=""stimulus-container"">
                    <img src=""images/schematic_sequence/restaurant_scheme/restaurant_scheme_4.png"" class=""exp-image"">
                    <div class=""question-area"">
                        <p style=""font-size: 20px; font-weight: bold; margin: 0;"">Is there a person in this image?</p>
                    </div>
                </div>","0","main_experiment_trial","4","restaurant_scheme","schematic_sequence","","","","",""
"","","","","","html-keyboard-response","67","212556","0.0-67.0","8C82D2AF29D249A6B94CA6CAC28B99AD","019cf4fb-941b-7d69-80fa-c5f1d10fd4c2","019cf498-06e0-702e-b525-9cde1ad77653","","null","
                <div class=""stimulus-container"">
                    <img src=""images/schematic_sequence/restaurant_scheme/restaurant_scheme_5.png"" class=""exp-image"">
                    <div class=""question-area""></div> 
                </div>","null","","","","","","","","",""
"","","","","","html-button-response","68","213273","0.0-68.0","8C82D2AF29D249A6B94CA6CAC28B99AD","019cf4fb-941b-7d69-80fa-c5f1d10fd4c2","019cf498-06e0-702e-b525-9cde1ad77653","","716","
                <div class=""stimulus-container"">
                    <img src=""images/schematic_sequence/restaurant_scheme/restaurant_scheme_5.png"" class=""exp-image"">
                    <div class=""question-area"">
                        <p style=""font-size: 20px; font-weight: bold; margin: 0;"">Is there a person in this image?</p>
                    </div>
                </div>","0","main_experiment_trial","5","restaurant_scheme","schematic_sequence","","","","",""
"","","","","","html-keyboard-response","69","218281","0.0-69.0","8C82D2AF29D249A6B94CA6CAC28B99AD","019cf4fb-941b-7d69-80fa-c5f1d10fd4c2","019cf498-06e0-702e-b525-9cde1ad77653","","null","
                <div class=""stimulus-container"">
                    <img src=""images/schematic_sequence/restaurant_scheme/restaurant_scheme_6.png"" class=""exp-image"">
                    <div class=""question-area""></div> 
                </div>","null","","","","","","","","",""
"","","","","","html-button-response","70","218811","0.0-70.0","8C82D2AF29D249A6B94CA6CAC28B99AD","019cf4fb-941b-7d69-80fa-c5f1d10fd4c2","019cf498-06e0-702e-b525-9cde1ad77653","","528","
                <div class=""stimulus-container"">
                    <img src=""images/schematic_sequence/restaurant_scheme/restaurant_scheme_6.png"" class=""exp-image"">
                    <div class=""question-area"">
                        <p style=""font-size: 20px; font-weight: bold; margin: 0;"">Is there a person in this image?</p>
                    </div>
                </div>","1","main_experiment_trial","6","restaurant_scheme","schematic_sequence","","","","",""
"","","","","","html-keyboard-response","71","223826","0.0-71.0","8C82D2AF29D249A6B94CA6CAC28B99AD","019cf4fb-941b-7d69-80fa-c5f1d10fd4c2","019cf498-06e0-702e-b525-9cde1ad77653","","null","
                <div class=""stimulus-container"">
                    <img src=""images/schematic_sequence/restaurant_scheme/restaurant_scheme_7.png"" class=""exp-image"">
                    <div class=""question-area""></div> 
                </div>","null","","","","","","","","",""
"","","","","","html-button-response","72","224538","0.0-72.0","8C82D2AF29D249A6B94CA6CAC28B99AD","019cf4fb-941b-7d69-80fa-c5f1d10fd4c2","019cf498-06e0-702e-b525-9cde1ad77653","","711","
                <div class=""stimulus-container"">
                    <img src=""images/schematic_sequence/restaurant_scheme/restaurant_scheme_7.png"" class=""exp-image"">
                    <div class=""question-area"">
                        <p style=""font-size: 20px; font-weight: bold; margin: 0;"">Is there a person in this image?</p>
                    </div>
                </div>","1","main_experiment_trial","7","restaurant_scheme","schematic_sequence","","","","",""
"","","","","","html-keyboard-response","73","229541","0.0-73.0","8C82D2AF29D249A6B94CA6CAC28B99AD","019cf4fb-941b-7d69-80fa-c5f1d10fd4c2","019cf498-06e0-702e-b525-9cde1ad77653","","null","
                <div class=""stimulus-container"">
                    <img src=""images/schematic_sequence/restaurant_scheme/restaurant_scheme_8.png"" class=""exp-image"">
                    <div class=""question-area""></div> 
                </div>","null","","","","","","","","",""
"","","","","","html-button-response","74","230100","0.0-74.0","8C82D2AF29D249A6B94CA6CAC28B99AD","019cf4fb-941b-7d69-80fa-c5f1d10fd4c2","019cf498-06e0-702e-b525-9cde1ad77653","","558","
                <div class=""stimulus-container"">
                    <img src=""images/schematic_sequence/restaurant_scheme/restaurant_scheme_8.png"" class=""exp-image"">
                    <div class=""question-area"">
                        <p style=""font-size: 20px; font-weight: bold; margin: 0;"">Is there a person in this image?</p>
                    </div>
                </div>","1","main_experiment_trial","8","restaurant_scheme","schematic_sequence","","","","",""
"","","","","","html-keyboard-response","75","235106","0.0-75.0","8C82D2AF29D249A6B94CA6CAC28B99AD","019cf4fb-941b-7d69-80fa-c5f1d10fd4c2","019cf498-06e0-702e-b525-9cde1ad77653","","null","
                <div class=""stimulus-container"">
                    <img src=""images/schematic_sequence/restaurant_scheme/restaurant_scheme_9.png"" class=""exp-image"">
                    <div class=""question-area""></div> 
                </div>","null","","","","","","","","",""
"","","","","","html-button-response","76","235794","0.0-76.0","8C82D2AF29D249A6B94CA6CAC28B99AD","019cf4fb-941b-7d69-80fa-c5f1d10fd4c2","019cf498-06e0-702e-b525-9cde1ad77653","","687","
                <div class=""stimulus-container"">
                    <img src=""images/schematic_sequence/restaurant_scheme/restaurant_scheme_9.png"" class=""exp-image"">
                    <div class=""question-area"">
                        <p style=""font-size: 20px; font-weight: bold; margin: 0;"">Is there a person in this image?</p>
                    </div>
                </div>","0","main_experiment_trial","9","restaurant_scheme","schematic_sequence","","","","",""
"","","","","","html-keyboard-response","77","240799","0.0-77.0","8C82D2AF29D249A6B94CA6CAC28B99AD","019cf4fb-941b-7d69-80fa-c5f1d10fd4c2","019cf498-06e0-702e-b525-9cde1ad77653","","null","
                <div class=""stimulus-container"">
                    <img src=""images/schematic_sequence/restaurant_scheme/restaurant_scheme_ten.png"" class=""exp-image"">
                    <div class=""question-area""></div> 
                </div>","null","","","","","","","","",""
"","","","","","html-button-response","78","241472","0.0-78.0","8C82D2AF29D249A6B94CA6CAC28B99AD","019cf4fb-941b-7d69-80fa-c5f1d10fd4c2","019cf498-06e0-702e-b525-9cde1ad77653","","671","
                <div class=""stimulus-container"">
                    <img src=""images/schematic_sequence/restaurant_scheme/restaurant_scheme_ten.png"" class=""exp-image"">
                    <div class=""question-area"">
                        <p style=""font-size: 20px; font-weight: bold; margin: 0;"">Is there a person in this image?</p>
                    </div>
                </div>","0","main_experiment_trial","ten","restaurant_scheme","schematic_sequence","","","","",""
"","","","","","html-keyboard-response","79","242487","0.0-79.0","8C82D2AF29D249A6B94CA6CAC28B99AD","019cf4fb-941b-7d69-80fa-c5f1d10fd4c2","019cf498-06e0-702e-b525-9cde1ad77653","","null","<div style=""background-color: white; width: 100vw; height: 100vh;""></div>","null","","","","","","","","",""
"","","","","","html-keyboard-response","80","247503","0.0-80.0","8C82D2AF29D249A6B94CA6CAC28B99AD","019cf4fb-941b-7d69-80fa-c5f1d10fd4c2","019cf498-06e0-702e-b525-9cde1ad77653","","null","
                <div class=""stimulus-container"">
                    <img src=""images/causal_sequence/dog_causal/dog_causal_1.png"" class=""exp-image"">
                    <div class=""question-area""></div> 
                </div>","null","","","","","","","","",""
"","","","","","html-button-response","81","248390","0.0-81.0","8C82D2AF29D249A6B94CA6CAC28B99AD","019cf4fb-941b-7d69-80fa-c5f1d10fd4c2","019cf498-06e0-702e-b525-9cde1ad77653","","886","
                <div class=""stimulus-container"">
                    <img src=""images/causal_sequence/dog_causal/dog_causal_1.png"" class=""exp-image"">
                    <div class=""question-area"">
                        <p style=""font-size: 20px; font-weight: bold; margin: 0;"">Is there a person in this image?</p>
                    </div>
                </div>","0","main_experiment_trial","1","dog_causal","causal_sequence","","","","",""
"","","","","","html-keyboard-response","82","253395","0.0-82.0","8C82D2AF29D249A6B94CA6CAC28B99AD","019cf4fb-941b-7d69-80fa-c5f1d10fd4c2","019cf498-06e0-702e-b525-9cde1ad77653","","null","
                <div class=""stimulus-container"">
                    <img src=""images/causal_sequence/dog_causal/dog_causal_2.png"" class=""exp-image"">
                    <div class=""question-area""></div> 
                </div>","null","","","","","","","","",""
"","","","","","html-button-response","83","254221","0.0-83.0","8C82D2AF29D249A6B94CA6CAC28B99AD","019cf4fb-941b-7d69-80fa-c5f1d10fd4c2","019cf498-06e0-702e-b525-9cde1ad77653","","825","
                <div class=""stimulus-container"">
                    <img src=""images/causal_sequence/dog_causal/dog_causal_2.png"" class=""exp-image"">
                    <div class=""question-area"">
                        <p style=""font-size: 20px; font-weight: bold; margin: 0;"">Is there a person in this image?</p>
                    </div>
                </div>","0","main_experiment_trial","2","dog_causal","causal_sequence","","","","",""
"","","","","","html-keyboard-response","84","259235","0.0-84.0","8C82D2AF29D249A6B94CA6CAC28B99AD","019cf4fb-941b-7d69-80fa-c5f1d10fd4c2","019cf498-06e0-702e-b525-9cde1ad77653","","null","
                <div class=""stimulus-container"">
                    <img src=""images/causal_sequence/dog_causal/dog_causal_3.png"" class=""exp-image"">
                    <div class=""question-area""></div> 
                </div>","null","","","","","","","","",""
"","","","","","html-button-response","85","260126","0.0-85.0","8C82D2AF29D249A6B94CA6CAC28B99AD","019cf4fb-941b-7d69-80fa-c5f1d10fd4c2","019cf498-06e0-702e-b525-9cde1ad77653","","889","
                <div class=""stimulus-container"">
                    <img src=""images/causal_sequence/dog_causal/dog_causal_3.png"" class=""exp-image"">
                    <div class=""question-area"">
                        <p style=""font-size: 20px; font-weight: bold; margin: 0;"">Is there a person in this image?</p>
                    </div>
                </div>","0","main_experiment_trial","3","dog_causal","causal_sequence","","","","",""
"","","","","","html-keyboard-response","86","265141","0.0-86.0","8C82D2AF29D249A6B94CA6CAC28B99AD","019cf4fb-941b-7d69-80fa-c5f1d10fd4c2","019cf498-06e0-702e-b525-9cde1ad77653","","null","
                <div class=""stimulus-container"">
                    <img src=""images/causal_sequence/dog_causal/dog_causal_4.png"" class=""exp-image"">
                    <div class=""question-area""></div> 
                </div>","null","","","","","","","","",""
"","","","","","html-button-response","87","265778","0.0-87.0","8C82D2AF29D249A6B94CA6CAC28B99AD","019cf4fb-941b-7d69-80fa-c5f1d10fd4c2","019cf498-06e0-702e-b525-9cde1ad77653","","635","
                <div class=""stimulus-container"">
                    <img src=""images/causal_sequence/dog_causal/dog_causal_4.png"" class=""exp-image"">
                    <div class=""question-area"">
                        <p style=""font-size: 20px; font-weight: bold; margin: 0;"">Is there a person in this image?</p>
                    </div>
                </div>","0","main_experiment_trial","4","dog_causal","causal_sequence","","","","",""
"","","","","","html-keyboard-response","88","270788","0.0-88.0","8C82D2AF29D249A6B94CA6CAC28B99AD","019cf4fb-941b-7d69-80fa-c5f1d10fd4c2","019cf498-06e0-702e-b525-9cde1ad77653","","null","
                <div class=""stimulus-container"">
                    <img src=""images/causal_sequence/dog_causal/dog_causal_5.png"" class=""exp-image"">
                    <div class=""question-area""></div> 
                </div>","null","","","","","","","","",""
"","","","","","html-button-response","89","271553","0.0-89.0","8C82D2AF29D249A6B94CA6CAC28B99AD","019cf4fb-941b-7d69-80fa-c5f1d10fd4c2","019cf498-06e0-702e-b525-9cde1ad77653","","765","
                <div class=""stimulus-container"">
                    <img src=""images/causal_sequence/dog_causal/dog_causal_5.png"" class=""exp-image"">
                    <div class=""question-area"">
                        <p style=""font-size: 20px; font-weight: bold; margin: 0;"">Is there a person in this image?</p>
                    </div>
                </div>","0","main_experiment_trial","5","dog_causal","causal_sequence","","","","",""
"","","","","","html-keyboard-response","90","276556","0.0-90.0","8C82D2AF29D249A6B94CA6CAC28B99AD","019cf4fb-941b-7d69-80fa-c5f1d10fd4c2","019cf498-06e0-702e-b525-9cde1ad77653","","null","
                <div class=""stimulus-container"">
                    <img src=""images/causal_sequence/dog_causal/dog_causal_6.png"" class=""exp-image"">
                    <div class=""question-area""></div> 
                </div>","null","","","","","","","","",""
"","","","","","html-button-response","91","277427","0.0-91.0","8C82D2AF29D249A6B94CA6CAC28B99AD","019cf4fb-941b-7d69-80fa-c5f1d10fd4c2","019cf498-06e0-702e-b525-9cde1ad77653","","870","
                <div class=""stimulus-container"">
                    <img src=""images/causal_sequence/dog_causal/dog_causal_6.png"" class=""exp-image"">
                    <div class=""question-area"">
                        <p style=""font-size: 20px; font-weight: bold; margin: 0;"">Is there a person in this image?</p>
                    </div>
                </div>","0","main_experiment_trial","6","dog_causal","causal_sequence","","","","",""
"","","","","","html-keyboard-response","92","282429","0.0-92.0","8C82D2AF29D249A6B94CA6CAC28B99AD","019cf4fb-941b-7d69-80fa-c5f1d10fd4c2","019cf498-06e0-702e-b525-9cde1ad77653","","null","
                <div class=""stimulus-container"">
                    <img src=""images/causal_sequence/dog_causal/dog_causal_7.png"" class=""exp-image"">
                    <div class=""question-area""></div> 
                </div>","null","","","","","","","","",""
"","","","","","html-button-response","93","283147","0.0-93.0","8C82D2AF29D249A6B94CA6CAC28B99AD","019cf4fb-941b-7d69-80fa-c5f1d10fd4c2","019cf498-06e0-702e-b525-9cde1ad77653","","716","
                <div class=""stimulus-container"">
                    <img src=""images/causal_sequence/dog_causal/dog_causal_7.png"" class=""exp-image"">
                    <div class=""question-area"">
                        <p style=""font-size: 20px; font-weight: bold; margin: 0;"">Is there a person in this image?</p>
                    </div>
                </div>","0","main_experiment_trial","7","dog_causal","causal_sequence","","","","",""
"","","","","","html-keyboard-response","94","288162","0.0-94.0","8C82D2AF29D249A6B94CA6CAC28B99AD","019cf4fb-941b-7d69-80fa-c5f1d10fd4c2","019cf498-06e0-702e-b525-9cde1ad77653","","null","
                <div class=""stimulus-container"">
                    <img src=""images/causal_sequence/dog_causal/dog_causal_8.png"" class=""exp-image"">
                    <div class=""question-area""></div> 
                </div>","null","","","","","","","","",""
"","","","","","html-button-response","95","288990","0.0-95.0","8C82D2AF29D249A6B94CA6CAC28B99AD","019cf4fb-941b-7d69-80fa-c5f1d10fd4c2","019cf498-06e0-702e-b525-9cde1ad77653","","826","
                <div class=""stimulus-container"">
                    <img src=""images/causal_sequence/dog_causal/dog_causal_8.png"" class=""exp-image"">
                    <div class=""question-area"">
                        <p style=""font-size: 20px; font-weight: bold; margin: 0;"">Is there a person in this image?</p>
                    </div>
                </div>","0","main_experiment_trial","8","dog_causal","causal_sequence","","","","",""
"","","","","","html-keyboard-response","96","293995","0.0-96.0","8C82D2AF29D249A6B94CA6CAC28B99AD","019cf4fb-941b-7d69-80fa-c5f1d10fd4c2","019cf498-06e0-702e-b525-9cde1ad77653","","null","
                <div class=""stimulus-container"">
                    <img src=""images/causal_sequence/dog_causal/dog_causal_9.png"" class=""exp-image"">
                    <div class=""question-area""></div> 
                </div>","null","","","","","","","","",""
"","","","","","html-button-response","97","294354","0.0-97.0","8C82D2AF29D249A6B94CA6CAC28B99AD","019cf4fb-941b-7d69-80fa-c5f1d10fd4c2","019cf498-06e0-702e-b525-9cde1ad77653","","358","
                <div class=""stimulus-container"">
                    <img src=""images/causal_sequence/dog_causal/dog_causal_9.png"" class=""exp-image"">
                    <div class=""question-area"">
                        <p style=""font-size: 20px; font-weight: bold; margin: 0;"">Is there a person in this image?</p>
                    </div>
                </div>","0","main_experiment_trial","9","dog_causal","causal_sequence","","","","",""
"","","","","","html-keyboard-response","98","299371","0.0-98.0","8C82D2AF29D249A6B94CA6CAC28B99AD","019cf4fb-941b-7d69-80fa-c5f1d10fd4c2","019cf498-06e0-702e-b525-9cde1ad77653","","null","
                <div class=""stimulus-container"">
                    <img src=""images/causal_sequence/dog_causal/dog_causal_ten.png"" class=""exp-image"">
                    <div class=""question-area""></div> 
                </div>","null","","","","","","","","",""
"","","","","","html-button-response","99","302383","0.0-99.0","8C82D2AF29D249A6B94CA6CAC28B99AD","019cf4fb-941b-7d69-80fa-c5f1d10fd4c2","019cf498-06e0-702e-b525-9cde1ad77653","","null","
                <div class=""stimulus-container"">
                    <img src=""images/causal_sequence/dog_causal/dog_causal_ten.png"" class=""exp-image"">
                    <div class=""question-area"">
                        <p style=""font-size: 20px; font-weight: bold; margin: 0;"">Is there a person in this image?</p>
                    </div>
                </div>","null","main_experiment_trial","ten","dog_causal","causal_sequence","","","","",""
"","","","","","html-keyboard-response","100","303390","0.0-100.0","8C82D2AF29D249A6B94CA6CAC28B99AD","019cf4fb-941b-7d69-80fa-c5f1d10fd4c2","019cf498-06e0-702e-b525-9cde1ad77653","","null","<div style=""background-color: white; width: 100vw; height: 100vh;""></div>","null","","","","","","","","",""
"","","","","","html-keyboard-response","101","308403","0.0-101.0","8C82D2AF29D249A6B94CA6CAC28B99AD","019cf4fb-941b-7d69-80fa-c5f1d10fd4c2","019cf498-06e0-702e-b525-9cde1ad77653","","null","
                <div class=""stimulus-container"">
                    <img src=""images/causal_sequence/coin_causal/coin_causal_1.png"" class=""exp-image"">
                    <div class=""question-area""></div> 
                </div>","null","","","","","","","","",""
"","","","","","html-button-response","102","309009","0.0-102.0","8C82D2AF29D249A6B94CA6CAC28B99AD","019cf4fb-941b-7d69-80fa-c5f1d10fd4c2","019cf498-06e0-702e-b525-9cde1ad77653","","605","
                <div class=""stimulus-container"">
                    <img src=""images/causal_sequence/coin_causal/coin_causal_1.png"" class=""exp-image"">
                    <div class=""question-area"">
                        <p style=""font-size: 20px; font-weight: bold; margin: 0;"">Is there a person in this image?</p>
                    </div>
                </div>","0","main_experiment_trial","1","coin_causal","causal_sequence","","","","",""
"","","","","","html-keyboard-response","103","314016","0.0-103.0","8C82D2AF29D249A6B94CA6CAC28B99AD","019cf4fb-941b-7d69-80fa-c5f1d10fd4c2","019cf498-06e0-702e-b525-9cde1ad77653","","null","
                <div class=""stimulus-container"">
                    <img src=""images/causal_sequence/coin_causal/coin_causal_2.png"" class=""exp-image"">
                    <div class=""question-area""></div> 
                </div>","null","","","","","","","","",""
"","","","","","html-button-response","104","315103","0.0-104.0","8C82D2AF29D249A6B94CA6CAC28B99AD","019cf4fb-941b-7d69-80fa-c5f1d10fd4c2","019cf498-06e0-702e-b525-9cde1ad77653","","1087","
                <div class=""stimulus-container"">
                    <img src=""images/causal_sequence/coin_causal/coin_causal_2.png"" class=""exp-image"">
                    <div class=""question-area"">
                        <p style=""font-size: 20px; font-weight: bold; margin: 0;"">Is there a person in this image?</p>
                    </div>
                </div>","0","main_experiment_trial","2","coin_causal","causal_sequence","","","","",""
"","","","","","html-keyboard-response","105","320115","0.0-105.0","8C82D2AF29D249A6B94CA6CAC28B99AD","019cf4fb-941b-7d69-80fa-c5f1d10fd4c2","019cf498-06e0-702e-b525-9cde1ad77653","","null","
                <div class=""stimulus-container"">
                    <img src=""images/causal_sequence/coin_causal/coin_causal_3.png"" class=""exp-image"">
                    <div class=""question-area""></div> 
                </div>","null","","","","","","","","",""
"","","","","","html-button-response","106","321065","0.0-106.0","8C82D2AF29D249A6B94CA6CAC28B99AD","019cf4fb-941b-7d69-80fa-c5f1d10fd4c2","019cf498-06e0-702e-b525-9cde1ad77653","","949","
                <div class=""stimulus-container"">
                    <img src=""images/causal_sequence/coin_causal/coin_causal_3.png"" class=""exp-image"">
                    <div class=""question-area"">
                        <p style=""font-size: 20px; font-weight: bold; margin: 0;"">Is there a person in this image?</p>
                    </div>
                </div>","0","main_experiment_trial","3","coin_causal","causal_sequence","","","","",""
"","","","","","html-keyboard-response","107","326077","0.0-107.0","8C82D2AF29D249A6B94CA6CAC28B99AD","019cf4fb-941b-7d69-80fa-c5f1d10fd4c2","019cf498-06e0-702e-b525-9cde1ad77653","","null","
                <div class=""stimulus-container"">
                    <img src=""images/causal_sequence/coin_causal/coin_causal_4.png"" class=""exp-image"">
                    <div class=""question-area""></div> 
                </div>","null","","","","","","","","",""
"","","","","","html-button-response","108","326793","0.0-108.0","8C82D2AF29D249A6B94CA6CAC28B99AD","019cf4fb-941b-7d69-80fa-c5f1d10fd4c2","019cf498-06e0-702e-b525-9cde1ad77653","","715","
                <div class=""stimulus-container"">
                    <img src=""images/causal_sequence/coin_causal/coin_causal_4.png"" class=""exp-image"">
                    <div class=""question-area"">
                        <p style=""font-size: 20px; font-weight: bold; margin: 0;"">Is there a person in this image?</p>
                    </div>
                </div>","0","main_experiment_trial","4","coin_causal","causal_sequence","","","","",""
"","","","","","html-keyboard-response","109","331799","0.0-109.0","8C82D2AF29D249A6B94CA6CAC28B99AD","019cf4fb-941b-7d69-80fa-c5f1d10fd4c2","019cf498-06e0-702e-b525-9cde1ad77653","","null","
                <div class=""stimulus-container"">
                    <img src=""images/causal_sequence/coin_causal/coin_causal_5.png"" class=""exp-image"">
                    <div class=""question-area""></div> 
                </div>","null","","","","","","","","",""
"","","","","","html-button-response","110","332423","0.0-110.0","8C82D2AF29D249A6B94CA6CAC28B99AD","019cf4fb-941b-7d69-80fa-c5f1d10fd4c2","019cf498-06e0-702e-b525-9cde1ad77653","","623","
                <div class=""stimulus-container"">
                    <img src=""images/causal_sequence/coin_causal/coin_causal_5.png"" class=""exp-image"">
                    <div class=""question-area"">
                        <p style=""font-size: 20px; font-weight: bold; margin: 0;"">Is there a person in this image?</p>
                    </div>
                </div>","0","main_experiment_trial","5","coin_causal","causal_sequence","","","","",""
"","","","","","html-keyboard-response","111","337425","0.0-111.0","8C82D2AF29D249A6B94CA6CAC28B99AD","019cf4fb-941b-7d69-80fa-c5f1d10fd4c2","019cf498-06e0-702e-b525-9cde1ad77653","","null","
                <div class=""stimulus-container"">
                    <img src=""images/causal_sequence/coin_causal/coin_causal_6.png"" class=""exp-image"">
                    <div class=""question-area""></div> 
                </div>","null","","","","","","","","",""
"","","","","","html-button-response","112","338234","0.0-112.0","8C82D2AF29D249A6B94CA6CAC28B99AD","019cf4fb-941b-7d69-80fa-c5f1d10fd4c2","019cf498-06e0-702e-b525-9cde1ad77653","","808","
                <div class=""stimulus-container"">
                    <img src=""images/causal_sequence/coin_causal/coin_causal_6.png"" class=""exp-image"">
                    <div class=""question-area"">
                        <p style=""font-size: 20px; font-weight: bold; margin: 0;"">Is there a person in this image?</p>
                    </div>
                </div>","0","main_experiment_trial","6","coin_causal","causal_sequence","","","","",""
"","","","","","html-keyboard-response","113","343235","0.0-113.0","8C82D2AF29D249A6B94CA6CAC28B99AD","019cf4fb-941b-7d69-80fa-c5f1d10fd4c2","019cf498-06e0-702e-b525-9cde1ad77653","","null","
                <div class=""stimulus-container"">
                    <img src=""images/causal_sequence/coin_causal/coin_causal_7.png"" class=""exp-image"">
                    <div class=""question-area""></div> 
                </div>","null","","","","","","","","",""
"","","","","","html-button-response","114","343875","0.0-114.0","8C82D2AF29D249A6B94CA6CAC28B99AD","019cf4fb-941b-7d69-80fa-c5f1d10fd4c2","019cf498-06e0-702e-b525-9cde1ad77653","","639","
                <div class=""stimulus-container"">
                    <img src=""images/causal_sequence/coin_causal/coin_causal_7.png"" class=""exp-image"">
                    <div class=""question-area"">
                        <p style=""font-size: 20px; font-weight: bold; margin: 0;"">Is there a person in this image?</p>
                    </div>
                </div>","1","main_experiment_trial","7","coin_causal","causal_sequence","","","","",""
"","","","","","html-keyboard-response","115","348885","0.0-115.0","8C82D2AF29D249A6B94CA6CAC28B99AD","019cf4fb-941b-7d69-80fa-c5f1d10fd4c2","019cf498-06e0-702e-b525-9cde1ad77653","","null","
                <div class=""stimulus-container"">
                    <img src=""images/causal_sequence/coin_causal/coin_causal_8.png"" class=""exp-image"">
                    <div class=""question-area""></div> 
                </div>","null","","","","","","","","",""
"","","","","","html-button-response","116","349785","0.0-116.0","8C82D2AF29D249A6B94CA6CAC28B99AD","019cf4fb-941b-7d69-80fa-c5f1d10fd4c2","019cf498-06e0-702e-b525-9cde1ad77653","","899","
                <div class=""stimulus-container"">
                    <img src=""images/causal_sequence/coin_causal/coin_causal_8.png"" class=""exp-image"">
                    <div class=""question-area"">
                        <p style=""font-size: 20px; font-weight: bold; margin: 0;"">Is there a person in this image?</p>
                    </div>
                </div>","0","main_experiment_trial","8","coin_causal","causal_sequence","","","","",""
"","","","","","html-keyboard-response","117","354801","0.0-117.0","8C82D2AF29D249A6B94CA6CAC28B99AD","019cf4fb-941b-7d69-80fa-c5f1d10fd4c2","019cf498-06e0-702e-b525-9cde1ad77653","","null","
                <div class=""stimulus-container"">
                    <img src=""images/causal_sequence/coin_causal/coin_causal_9.png"" class=""exp-image"">
                    <div class=""question-area""></div> 
                </div>","null","","","","","","","","",""
"","","","","","html-button-response","118","355363","0.0-118.0","8C82D2AF29D249A6B94CA6CAC28B99AD","019cf4fb-941b-7d69-80fa-c5f1d10fd4c2","019cf498-06e0-702e-b525-9cde1ad77653","","560","
                <div class=""stimulus-container"">
                    <img src=""images/causal_sequence/coin_causal/coin_causal_9.png"" class=""exp-image"">
                    <div class=""question-area"">
                        <p style=""font-size: 20px; font-weight: bold; margin: 0;"">Is there a person in this image?</p>
                    </div>
                </div>","0","main_experiment_trial","9","coin_causal","causal_sequence","","","","",""
"","","","","","html-keyboard-response","119","360379","0.0-119.0","8C82D2AF29D249A6B94CA6CAC28B99AD","019cf4fb-941b-7d69-80fa-c5f1d10fd4c2","019cf498-06e0-702e-b525-9cde1ad77653","","null","
                <div class=""stimulus-container"">
                    <img src=""images/causal_sequence/coin_causal/coin_causal_ten.png"" class=""exp-image"">
                    <div class=""question-area""></div> 
                </div>","null","","","","","","","","",""
"","","","","","html-button-response","120","361206","0.0-120.0","8C82D2AF29D249A6B94CA6CAC28B99AD","019cf4fb-941b-7d69-80fa-c5f1d10fd4c2","019cf498-06e0-702e-b525-9cde1ad77653","","825","
                <div class=""stimulus-container"">
                    <img src=""images/causal_sequence/coin_causal/coin_causal_ten.png"" class=""exp-image"">
                    <div class=""question-area"">
                        <p style=""font-size: 20px; font-weight: bold; margin: 0;"">Is there a person in this image?</p>
                    </div>
                </div>","0","main_experiment_trial","ten","coin_causal","causal_sequence","","","","",""
"","","","","","html-keyboard-response","121","362209","0.0-121.0","8C82D2AF29D249A6B94CA6CAC28B99AD","019cf4fb-941b-7d69-80fa-c5f1d10fd4c2","019cf498-06e0-702e-b525-9cde1ad77653","","null","<div style=""background-color: white; width: 100vw; height: 100vh;""></div>","null","","","","","","","","",""
"","","","","","html-keyboard-response","122","367213","0.0-122.0","8C82D2AF29D249A6B94CA6CAC28B99AD","019cf4fb-941b-7d69-80fa-c5f1d10fd4c2","019cf498-06e0-702e-b525-9cde1ad77653","","null","
                <div class=""stimulus-container"">
                    <img src=""images/causal_sequence/package_causal/package_causal_1.png"" class=""exp-image"">
                    <div class=""question-area""></div> 
                </div>","null","","","","","","","","",""
"","","","","","html-button-response","123","368187","0.0-123.0","8C82D2AF29D249A6B94CA6CAC28B99AD","019cf4fb-941b-7d69-80fa-c5f1d10fd4c2","019cf498-06e0-702e-b525-9cde1ad77653","","972","
                <div class=""stimulus-container"">
                    <img src=""images/causal_sequence/package_causal/package_causal_1.png"" class=""exp-image"">
                    <div class=""question-area"">
                        <p style=""font-size: 20px; font-weight: bold; margin: 0;"">Is there a person in this image?</p>
                    </div>
                </div>","0","main_experiment_trial","1","package_causal","causal_sequence","","","","",""
"","","","","","html-keyboard-response","124","373200","0.0-124.0","8C82D2AF29D249A6B94CA6CAC28B99AD","019cf4fb-941b-7d69-80fa-c5f1d10fd4c2","019cf498-06e0-702e-b525-9cde1ad77653","","null","
                <div class=""stimulus-container"">
                    <img src=""images/causal_sequence/package_causal/package_causal_2.png"" class=""exp-image"">
                    <div class=""question-area""></div> 
                </div>","null","","","","","","","","",""
"","","","","","html-button-response","125","373900","0.0-125.0","8C82D2AF29D249A6B94CA6CAC28B99AD","019cf4fb-941b-7d69-80fa-c5f1d10fd4c2","019cf498-06e0-702e-b525-9cde1ad77653","","699","
                <div class=""stimulus-container"">
                    <img src=""images/causal_sequence/package_causal/package_causal_2.png"" class=""exp-image"">
                    <div class=""question-area"">
                        <p style=""font-size: 20px; font-weight: bold; margin: 0;"">Is there a person in this image?</p>
                    </div>
                </div>","0","main_experiment_trial","2","package_causal","causal_sequence","","","","",""
"","","","","","html-keyboard-response","126","378916","0.0-126.0","8C82D2AF29D249A6B94CA6CAC28B99AD","019cf4fb-941b-7d69-80fa-c5f1d10fd4c2","019cf498-06e0-702e-b525-9cde1ad77653","","null","
                <div class=""stimulus-container"">
                    <img src=""images/causal_sequence/package_causal/package_causal_3.png"" class=""exp-image"">
                    <div class=""question-area""></div> 
                </div>","null","","","","","","","","",""
"","","","","","html-button-response","127","379761","0.0-127.0","8C82D2AF29D249A6B94CA6CAC28B99AD","019cf4fb-941b-7d69-80fa-c5f1d10fd4c2","019cf498-06e0-702e-b525-9cde1ad77653","","844","
                <div class=""stimulus-container"">
                    <img src=""images/causal_sequence/package_causal/package_causal_3.png"" class=""exp-image"">
                    <div class=""question-area"">
                        <p style=""font-size: 20px; font-weight: bold; margin: 0;"">Is there a person in this image?</p>
                    </div>
                </div>","0","main_experiment_trial","3","package_causal","causal_sequence","","","","",""
"","","","","","html-keyboard-response","128","384777","0.0-128.0","8C82D2AF29D249A6B94CA6CAC28B99AD","019cf4fb-941b-7d69-80fa-c5f1d10fd4c2","019cf498-06e0-702e-b525-9cde1ad77653","","null","
                <div class=""stimulus-container"">
                    <img src=""images/causal_sequence/package_causal/package_causal_4.png"" class=""exp-image"">
                    <div class=""question-area""></div> 
                </div>","null","","","","","","","","",""
"","","","","","html-button-response","129","385894","0.0-129.0","8C82D2AF29D249A6B94CA6CAC28B99AD","019cf4fb-941b-7d69-80fa-c5f1d10fd4c2","019cf498-06e0-702e-b525-9cde1ad77653","","1116","
                <div class=""stimulus-container"">
                    <img src=""images/causal_sequence/package_causal/package_causal_4.png"" class=""exp-image"">
                    <div class=""question-area"">
                        <p style=""font-size: 20px; font-weight: bold; margin: 0;"">Is there a person in this image?</p>
                    </div>
                </div>","1","main_experiment_trial","4","package_causal","causal_sequence","","","","",""
"","","","","","html-keyboard-response","130","390897","0.0-130.0","8C82D2AF29D249A6B94CA6CAC28B99AD","019cf4fb-941b-7d69-80fa-c5f1d10fd4c2","019cf498-06e0-702e-b525-9cde1ad77653","","null","
                <div class=""stimulus-container"">
                    <img src=""images/causal_sequence/package_causal/package_causal_5.png"" class=""exp-image"">
                    <div class=""question-area""></div> 
                </div>","null","","","","","","","","",""
"","","","","","html-button-response","131","392027","0.0-131.0","8C82D2AF29D249A6B94CA6CAC28B99AD","019cf4fb-941b-7d69-80fa-c5f1d10fd4c2","019cf498-06e0-702e-b525-9cde1ad77653","","1129","
                <div class=""stimulus-container"">
                    <img src=""images/causal_sequence/package_causal/package_causal_5.png"" class=""exp-image"">
                    <div class=""question-area"">
                        <p style=""font-size: 20px; font-weight: bold; margin: 0;"">Is there a person in this image?</p>
                    </div>
                </div>","0","main_experiment_trial","5","package_causal","causal_sequence","","","","",""
"","","","","","html-keyboard-response","132","397030","0.0-132.0","8C82D2AF29D249A6B94CA6CAC28B99AD","019cf4fb-941b-7d69-80fa-c5f1d10fd4c2","019cf498-06e0-702e-b525-9cde1ad77653","","null","
                <div class=""stimulus-container"">
                    <img src=""images/causal_sequence/package_causal/package_causal_6.png"" class=""exp-image"">
                    <div class=""question-area""></div> 
                </div>","null","","","","","","","","",""
"","","","","","html-button-response","133","397833","0.0-133.0","8C82D2AF29D249A6B94CA6CAC28B99AD","019cf4fb-941b-7d69-80fa-c5f1d10fd4c2","019cf498-06e0-702e-b525-9cde1ad77653","","802","
                <div class=""stimulus-container"">
                    <img src=""images/causal_sequence/package_causal/package_causal_6.png"" class=""exp-image"">
                    <div class=""question-area"">
                        <p style=""font-size: 20px; font-weight: bold; margin: 0;"">Is there a person in this image?</p>
                    </div>
                </div>","0","main_experiment_trial","6","package_causal","causal_sequence","","","","",""
"","","","","","html-keyboard-response","134","402847","0.0-134.0","8C82D2AF29D249A6B94CA6CAC28B99AD","019cf4fb-941b-7d69-80fa-c5f1d10fd4c2","019cf498-06e0-702e-b525-9cde1ad77653","","null","
                <div class=""stimulus-container"">
                    <img src=""images/causal_sequence/package_causal/package_causal_7.png"" class=""exp-image"">
                    <div class=""question-area""></div> 
                </div>","null","","","","","","","","",""
"","","","","","html-button-response","135","403816","0.0-135.0","8C82D2AF29D249A6B94CA6CAC28B99AD","019cf4fb-941b-7d69-80fa-c5f1d10fd4c2","019cf498-06e0-702e-b525-9cde1ad77653","","968","
                <div class=""stimulus-container"">
                    <img src=""images/causal_sequence/package_causal/package_causal_7.png"" class=""exp-image"">
                    <div class=""question-area"">
                        <p style=""font-size: 20px; font-weight: bold; margin: 0;"">Is there a person in this image?</p>
                    </div>
                </div>","0","main_experiment_trial","7","package_causal","causal_sequence","","","","",""
"","","","","","html-keyboard-response","136","408817","0.0-136.0","8C82D2AF29D249A6B94CA6CAC28B99AD","019cf4fb-941b-7d69-80fa-c5f1d10fd4c2","019cf498-06e0-702e-b525-9cde1ad77653","","null","
                <div class=""stimulus-container"">
                    <img src=""images/causal_sequence/package_causal/package_causal_8.png"" class=""exp-image"">
                    <div class=""question-area""></div> 
                </div>","null","","","","","","","","",""
"","","","","","html-button-response","137","409454","0.0-137.0","8C82D2AF29D249A6B94CA6CAC28B99AD","019cf4fb-941b-7d69-80fa-c5f1d10fd4c2","019cf498-06e0-702e-b525-9cde1ad77653","","635","
                <div class=""stimulus-container"">
                    <img src=""images/causal_sequence/package_causal/package_causal_8.png"" class=""exp-image"">
                    <div class=""question-area"">
                        <p style=""font-size: 20px; font-weight: bold; margin: 0;"">Is there a person in this image?</p>
                    </div>
                </div>","0","main_experiment_trial","8","package_causal","causal_sequence","","","","",""
"","","","","","html-keyboard-response","138","414470","0.0-138.0","8C82D2AF29D249A6B94CA6CAC28B99AD","019cf4fb-941b-7d69-80fa-c5f1d10fd4c2","019cf498-06e0-702e-b525-9cde1ad77653","","null","
                <div class=""stimulus-container"">
                    <img src=""images/causal_sequence/package_causal/package_causal_9.png"" class=""exp-image"">
                    <div class=""question-area""></div> 
                </div>","null","","","","","","","","",""
"","","","","","html-button-response","139","415374","0.0-139.0","8C82D2AF29D249A6B94CA6CAC28B99AD","019cf4fb-941b-7d69-80fa-c5f1d10fd4c2","019cf498-06e0-702e-b525-9cde1ad77653","","902","
                <div class=""stimulus-container"">
                    <img src=""images/causal_sequence/package_causal/package_causal_9.png"" class=""exp-image"">
                    <div class=""question-area"">
                        <p style=""font-size: 20px; font-weight: bold; margin: 0;"">Is there a person in this image?</p>
                    </div>
                </div>","0","main_experiment_trial","9","package_causal","causal_sequence","","","","",""
"","","","","","html-keyboard-response","140","420391","0.0-140.0","8C82D2AF29D249A6B94CA6CAC28B99AD","019cf4fb-941b-7d69-80fa-c5f1d10fd4c2","019cf498-06e0-702e-b525-9cde1ad77653","","null","
                <div class=""stimulus-container"">
                    <img src=""images/causal_sequence/package_causal/package_causal_ten.png"" class=""exp-image"">
                    <div class=""question-area""></div> 
                </div>","null","","","","","","","","",""
"","","","","","html-button-response","141","421218","0.0-141.0","8C82D2AF29D249A6B94CA6CAC28B99AD","019cf4fb-941b-7d69-80fa-c5f1d10fd4c2","019cf498-06e0-702e-b525-9cde1ad77653","","826","
                <div class=""stimulus-container"">
                    <img src=""images/causal_sequence/package_causal/package_causal_ten.png"" class=""exp-image"">
                    <div class=""question-area"">
                        <p style=""font-size: 20px; font-weight: bold; margin: 0;"">Is there a person in this image?</p>
                    </div>
                </div>","0","main_experiment_trial","ten","package_causal","causal_sequence","","","","",""
"","","","","","html-keyboard-response","142","422220","0.0-142.0","8C82D2AF29D249A6B94CA6CAC28B99AD","019cf4fb-941b-7d69-80fa-c5f1d10fd4c2","019cf498-06e0-702e-b525-9cde1ad77653","","null","<div style=""background-color: white; width: 100vw; height: 100vh;""></div>","null","","","","","","","","",""
"","","","","","html-keyboard-response","143","427223","0.0-143.0","8C82D2AF29D249A6B94CA6CAC28B99AD","019cf4fb-941b-7d69-80fa-c5f1d10fd4c2","019cf498-06e0-702e-b525-9cde1ad77653","","null","
                <div class=""stimulus-container"">
                    <img src=""images/schematic_sequence/flight_scheme/flight_scheme_1.png"" class=""exp-image"">
                    <div class=""question-area""></div> 
                </div>","null","","","","","","","","",""
"","","","","","html-button-response","144","428604","0.0-144.0","8C82D2AF29D249A6B94CA6CAC28B99AD","019cf4fb-941b-7d69-80fa-c5f1d10fd4c2","019cf498-06e0-702e-b525-9cde1ad77653","","1380","
                <div class=""stimulus-container"">
                    <img src=""images/schematic_sequence/flight_scheme/flight_scheme_1.png"" class=""exp-image"">
                    <div class=""question-area"">
                        <p style=""font-size: 20px; font-weight: bold; margin: 0;"">Is there a person in this image?</p>
                    </div>
                </div>","1","main_experiment_trial","1","flight_scheme","schematic_sequence","","","","",""
"","","","","","html-keyboard-response","145","433606","0.0-145.0","8C82D2AF29D249A6B94CA6CAC28B99AD","019cf4fb-941b-7d69-80fa-c5f1d10fd4c2","019cf498-06e0-702e-b525-9cde1ad77653","","null","
                <div class=""stimulus-container"">
                    <img src=""images/schematic_sequence/flight_scheme/flight_scheme_2.png"" class=""exp-image"">
                    <div class=""question-area""></div> 
                </div>","null","","","","","","","","",""
"","","","","","html-button-response","146","434338","0.0-146.0","8C82D2AF29D249A6B94CA6CAC28B99AD","019cf4fb-941b-7d69-80fa-c5f1d10fd4c2","019cf498-06e0-702e-b525-9cde1ad77653","","731","
                <div class=""stimulus-container"">
                    <img src=""images/schematic_sequence/flight_scheme/flight_scheme_2.png"" class=""exp-image"">
                    <div class=""question-area"">
                        <p style=""font-size: 20px; font-weight: bold; margin: 0;"">Is there a person in this image?</p>
                    </div>
                </div>","1","main_experiment_trial","2","flight_scheme","schematic_sequence","","","","",""
"","","","","","html-keyboard-response","147","439348","0.0-147.0","8C82D2AF29D249A6B94CA6CAC28B99AD","019cf4fb-941b-7d69-80fa-c5f1d10fd4c2","019cf498-06e0-702e-b525-9cde1ad77653","","null","
                <div class=""stimulus-container"">
                    <img src=""images/schematic_sequence/flight_scheme/flight_scheme_3.png"" class=""exp-image"">
                    <div class=""question-area""></div> 
                </div>","null","","","","","","","","",""
"","","","","","html-button-response","148","440140","0.0-148.0","8C82D2AF29D249A6B94CA6CAC28B99AD","019cf4fb-941b-7d69-80fa-c5f1d10fd4c2","019cf498-06e0-702e-b525-9cde1ad77653","","791","
                <div class=""stimulus-container"">
                    <img src=""images/schematic_sequence/flight_scheme/flight_scheme_3.png"" class=""exp-image"">
                    <div class=""question-area"">
                        <p style=""font-size: 20px; font-weight: bold; margin: 0;"">Is there a person in this image?</p>
                    </div>
                </div>","0","main_experiment_trial","3","flight_scheme","schematic_sequence","","","","",""
"","","","","","html-keyboard-response","149","445155","0.0-149.0","8C82D2AF29D249A6B94CA6CAC28B99AD","019cf4fb-941b-7d69-80fa-c5f1d10fd4c2","019cf498-06e0-702e-b525-9cde1ad77653","","null","
                <div class=""stimulus-container"">
                    <img src=""images/schematic_sequence/flight_scheme/flight_scheme_4.png"" class=""exp-image"">
                    <div class=""question-area""></div> 
                </div>","null","","","","","","","","",""
"","","","","","html-button-response","150","446056","0.0-150.0","8C82D2AF29D249A6B94CA6CAC28B99AD","019cf4fb-941b-7d69-80fa-c5f1d10fd4c2","019cf498-06e0-702e-b525-9cde1ad77653","","900","
                <div class=""stimulus-container"">
                    <img src=""images/schematic_sequence/flight_scheme/flight_scheme_4.png"" class=""exp-image"">
                    <div class=""question-area"">
                        <p style=""font-size: 20px; font-weight: bold; margin: 0;"">Is there a person in this image?</p>
                    </div>
                </div>","0","main_experiment_trial","4","flight_scheme","schematic_sequence","","","","",""
"","","","","","html-keyboard-response","151","451063","0.0-151.0","8C82D2AF29D249A6B94CA6CAC28B99AD","019cf4fb-941b-7d69-80fa-c5f1d10fd4c2","019cf498-06e0-702e-b525-9cde1ad77653","","null","
                <div class=""stimulus-container"">
                    <img src=""images/schematic_sequence/flight_scheme/flight_scheme_5.png"" class=""exp-image"">
                    <div class=""question-area""></div> 
                </div>","null","","","","","","","","",""
"","","","","","html-button-response","152","452103","0.0-152.0","8C82D2AF29D249A6B94CA6CAC28B99AD","019cf4fb-941b-7d69-80fa-c5f1d10fd4c2","019cf498-06e0-702e-b525-9cde1ad77653","","1039","
                <div class=""stimulus-container"">
                    <img src=""images/schematic_sequence/flight_scheme/flight_scheme_5.png"" class=""exp-image"">
                    <div class=""question-area"">
                        <p style=""font-size: 20px; font-weight: bold; margin: 0;"">Is there a person in this image?</p>
                    </div>
                </div>","0","main_experiment_trial","5","flight_scheme","schematic_sequence","","","","",""
"","","","","","html-keyboard-response","153","457114","0.0-153.0","8C82D2AF29D249A6B94CA6CAC28B99AD","019cf4fb-941b-7d69-80fa-c5f1d10fd4c2","019cf498-06e0-702e-b525-9cde1ad77653","","null","
                <div class=""stimulus-container"">
                    <img src=""images/schematic_sequence/flight_scheme/flight_scheme_6.png"" class=""exp-image"">
                    <div class=""question-area""></div> 
                </div>","null","","","","","","","","",""
"","","","","","html-button-response","154","458077","0.0-154.0","8C82D2AF29D249A6B94CA6CAC28B99AD","019cf4fb-941b-7d69-80fa-c5f1d10fd4c2","019cf498-06e0-702e-b525-9cde1ad77653","","962","
                <div class=""stimulus-container"">
                    <img src=""images/schematic_sequence/flight_scheme/flight_scheme_6.png"" class=""exp-image"">
                    <div class=""question-area"">
                        <p style=""font-size: 20px; font-weight: bold; margin: 0;"">Is there a person in this image?</p>
                    </div>
                </div>","1","main_experiment_trial","6","flight_scheme","schematic_sequence","","","","",""
"","","","","","html-keyboard-response","155","463081","0.0-155.0","8C82D2AF29D249A6B94CA6CAC28B99AD","019cf4fb-941b-7d69-80fa-c5f1d10fd4c2","019cf498-06e0-702e-b525-9cde1ad77653","","null","
                <div class=""stimulus-container"">
                    <img src=""images/schematic_sequence/flight_scheme/flight_scheme_7.png"" class=""exp-image"">
                    <div class=""question-area""></div> 
                </div>","null","","","","","","","","",""
"","","","","","html-button-response","156","463874","0.0-156.0","8C82D2AF29D249A6B94CA6CAC28B99AD","019cf4fb-941b-7d69-80fa-c5f1d10fd4c2","019cf498-06e0-702e-b525-9cde1ad77653","","792","
                <div class=""stimulus-container"">
                    <img src=""images/schematic_sequence/flight_scheme/flight_scheme_7.png"" class=""exp-image"">
                    <div class=""question-area"">
                        <p style=""font-size: 20px; font-weight: bold; margin: 0;"">Is there a person in this image?</p>
                    </div>
                </div>","1","main_experiment_trial","7","flight_scheme","schematic_sequence","","","","",""
"","","","","","html-keyboard-response","157","468875","0.0-157.0","8C82D2AF29D249A6B94CA6CAC28B99AD","019cf4fb-941b-7d69-80fa-c5f1d10fd4c2","019cf498-06e0-702e-b525-9cde1ad77653","","null","
                <div class=""stimulus-container"">
                    <img src=""images/schematic_sequence/flight_scheme/flight_scheme_8.png"" class=""exp-image"">
                    <div class=""question-area""></div> 
                </div>","null","","","","","","","","",""
"","","","","","html-button-response","158","469658","0.0-158.0","8C82D2AF29D249A6B94CA6CAC28B99AD","019cf4fb-941b-7d69-80fa-c5f1d10fd4c2","019cf498-06e0-702e-b525-9cde1ad77653","","781","
                <div class=""stimulus-container"">
                    <img src=""images/schematic_sequence/flight_scheme/flight_scheme_8.png"" class=""exp-image"">
                    <div class=""question-area"">
                        <p style=""font-size: 20px; font-weight: bold; margin: 0;"">Is there a person in this image?</p>
                    </div>
                </div>","1","main_experiment_trial","8","flight_scheme","schematic_sequence","","","","",""
"","","","","","html-keyboard-response","159","474668","0.0-159.0","8C82D2AF29D249A6B94CA6CAC28B99AD","019cf4fb-941b-7d69-80fa-c5f1d10fd4c2","019cf498-06e0-702e-b525-9cde1ad77653","","null","
                <div class=""stimulus-container"">
                    <img src=""images/schematic_sequence/flight_scheme/flight_scheme_9.png"" class=""exp-image"">
                    <div class=""question-area""></div> 
                </div>","null","","","","","","","","",""
"","","","","","html-button-response","160","475320","0.0-160.0","8C82D2AF29D249A6B94CA6CAC28B99AD","019cf4fb-941b-7d69-80fa-c5f1d10fd4c2","019cf498-06e0-702e-b525-9cde1ad77653","","650","
                <div class=""stimulus-container"">
                    <img src=""images/schematic_sequence/flight_scheme/flight_scheme_9.png"" class=""exp-image"">
                    <div class=""question-area"">
                        <p style=""font-size: 20px; font-weight: bold; margin: 0;"">Is there a person in this image?</p>
                    </div>
                </div>","0","main_experiment_trial","9","flight_scheme","schematic_sequence","","","","",""
"","","","","","html-keyboard-response","161","480329","0.0-161.0","8C82D2AF29D249A6B94CA6CAC28B99AD","019cf4fb-941b-7d69-80fa-c5f1d10fd4c2","019cf498-06e0-702e-b525-9cde1ad77653","","null","
                <div class=""stimulus-container"">
                    <img src=""images/schematic_sequence/flight_scheme/flight_scheme_ten.png"" class=""exp-image"">
                    <div class=""question-area""></div> 
                </div>","null","","","","","","","","",""
"","","","","","html-button-response","162","481741","0.0-162.0","8C82D2AF29D249A6B94CA6CAC28B99AD","019cf4fb-941b-7d69-80fa-c5f1d10fd4c2","019cf498-06e0-702e-b525-9cde1ad77653","","1411","
                <div class=""stimulus-container"">
                    <img src=""images/schematic_sequence/flight_scheme/flight_scheme_ten.png"" class=""exp-image"">
                    <div class=""question-area"">
                        <p style=""font-size: 20px; font-weight: bold; margin: 0;"">Is there a person in this image?</p>
                    </div>
                </div>","0","main_experiment_trial","ten","flight_scheme","schematic_sequence","","","","",""
"","","","","","html-keyboard-response","163","482747","0.0-163.0","8C82D2AF29D249A6B94CA6CAC28B99AD","019cf4fb-941b-7d69-80fa-c5f1d10fd4c2","019cf498-06e0-702e-b525-9cde1ad77653","","null","<div style=""background-color: white; width: 100vw; height: 100vh;""></div>","null","","","","","","","","",""
"","","","","","html-keyboard-response","164","487753","0.0-164.0","8C82D2AF29D249A6B94CA6CAC28B99AD","019cf4fb-941b-7d69-80fa-c5f1d10fd4c2","019cf498-06e0-702e-b525-9cde1ad77653","","null","
                <div class=""stimulus-container"">
                    <img src=""images/causal_sequence/museum_causal/museum_causal_1.png"" class=""exp-image"">
                    <div class=""question-area""></div> 
                </div>","null","","","","","","","","",""
"","","","","","html-button-response","165","488543","0.0-165.0","8C82D2AF29D249A6B94CA6CAC28B99AD","019cf4fb-941b-7d69-80fa-c5f1d10fd4c2","019cf498-06e0-702e-b525-9cde1ad77653","","789","
                <div class=""stimulus-container"">
                    <img src=""images/causal_sequence/museum_causal/museum_causal_1.png"" class=""exp-image"">
                    <div class=""question-area"">
                        <p style=""font-size: 20px; font-weight: bold; margin: 0;"">Is there a person in this image?</p>
                    </div>
                </div>","0","main_experiment_trial","1","museum_causal","causal_sequence","","","","",""
"","","","","","html-keyboard-response","166","493553","0.0-166.0","8C82D2AF29D249A6B94CA6CAC28B99AD","019cf4fb-941b-7d69-80fa-c5f1d10fd4c2","019cf498-06e0-702e-b525-9cde1ad77653","","null","
                <div class=""stimulus-container"">
                    <img src=""images/causal_sequence/museum_causal/museum_causal_2.png"" class=""exp-image"">
                    <div class=""question-area""></div> 
                </div>","null","","","","","","","","",""
"","","","","","html-button-response","167","494021","0.0-167.0","8C82D2AF29D249A6B94CA6CAC28B99AD","019cf4fb-941b-7d69-80fa-c5f1d10fd4c2","019cf498-06e0-702e-b525-9cde1ad77653","","467","
                <div class=""stimulus-container"">
                    <img src=""images/causal_sequence/museum_causal/museum_causal_2.png"" class=""exp-image"">
                    <div class=""question-area"">
                        <p style=""font-size: 20px; font-weight: bold; margin: 0;"">Is there a person in this image?</p>
                    </div>
                </div>","1","main_experiment_trial","2","museum_causal","causal_sequence","","","","",""
"","","","","","html-keyboard-response","168","499028","0.0-168.0","8C82D2AF29D249A6B94CA6CAC28B99AD","019cf4fb-941b-7d69-80fa-c5f1d10fd4c2","019cf498-06e0-702e-b525-9cde1ad77653","","null","
                <div class=""stimulus-container"">
                    <img src=""images/causal_sequence/museum_causal/museum_causal_3.png"" class=""exp-image"">
                    <div class=""question-area""></div> 
                </div>","null","","","","","","","","",""
"","","","","","html-button-response","169","499851","0.0-169.0","8C82D2AF29D249A6B94CA6CAC28B99AD","019cf4fb-941b-7d69-80fa-c5f1d10fd4c2","019cf498-06e0-702e-b525-9cde1ad77653","","822","
                <div class=""stimulus-container"">
                    <img src=""images/causal_sequence/museum_causal/museum_causal_3.png"" class=""exp-image"">
                    <div class=""question-area"">
                        <p style=""font-size: 20px; font-weight: bold; margin: 0;"">Is there a person in this image?</p>
                    </div>
                </div>","0","main_experiment_trial","3","museum_causal","causal_sequence","","","","",""
"","","","","","html-keyboard-response","170","504863","0.0-170.0","8C82D2AF29D249A6B94CA6CAC28B99AD","019cf4fb-941b-7d69-80fa-c5f1d10fd4c2","019cf498-06e0-702e-b525-9cde1ad77653","","null","
                <div class=""stimulus-container"">
                    <img src=""images/causal_sequence/museum_causal/museum_causal_4.png"" class=""exp-image"">
                    <div class=""question-area""></div> 
                </div>","null","","","","","","","","",""
"","","","","","html-button-response","171","505471","0.0-171.0","8C82D2AF29D249A6B94CA6CAC28B99AD","019cf4fb-941b-7d69-80fa-c5f1d10fd4c2","019cf498-06e0-702e-b525-9cde1ad77653","","606","
                <div class=""stimulus-container"">
                    <img src=""images/causal_sequence/museum_causal/museum_causal_4.png"" class=""exp-image"">
                    <div class=""question-area"">
                        <p style=""font-size: 20px; font-weight: bold; margin: 0;"">Is there a person in this image?</p>
                    </div>
                </div>","1","main_experiment_trial","4","museum_causal","causal_sequence","","","","",""
"","","","","","html-keyboard-response","172","510482","0.0-172.0","8C82D2AF29D249A6B94CA6CAC28B99AD","019cf4fb-941b-7d69-80fa-c5f1d10fd4c2","019cf498-06e0-702e-b525-9cde1ad77653","","null","
                <div class=""stimulus-container"">
                    <img src=""images/causal_sequence/museum_causal/museum_causal_5.png"" class=""exp-image"">
                    <div class=""question-area""></div> 
                </div>","null","","","","","","","","",""
"","","","","","html-button-response","173","511135","0.0-173.0","8C82D2AF29D249A6B94CA6CAC28B99AD","019cf4fb-941b-7d69-80fa-c5f1d10fd4c2","019cf498-06e0-702e-b525-9cde1ad77653","","652","
                <div class=""stimulus-container"">
                    <img src=""images/causal_sequence/museum_causal/museum_causal_5.png"" class=""exp-image"">
                    <div class=""question-area"">
                        <p style=""font-size: 20px; font-weight: bold; margin: 0;"">Is there a person in this image?</p>
                    </div>
                </div>","0","main_experiment_trial","5","museum_causal","causal_sequence","","","","",""
"","","","","","html-keyboard-response","174","516137","0.0-174.0","8C82D2AF29D249A6B94CA6CAC28B99AD","019cf4fb-941b-7d69-80fa-c5f1d10fd4c2","019cf498-06e0-702e-b525-9cde1ad77653","","null","
                <div class=""stimulus-container"">
                    <img src=""images/causal_sequence/museum_causal/museum_causal_6.png"" class=""exp-image"">
                    <div class=""question-area""></div> 
                </div>","null","","","","","","","","",""
"","","","","","html-button-response","175","516850","0.0-175.0","8C82D2AF29D249A6B94CA6CAC28B99AD","019cf4fb-941b-7d69-80fa-c5f1d10fd4c2","019cf498-06e0-702e-b525-9cde1ad77653","","711","
                <div class=""stimulus-container"">
                    <img src=""images/causal_sequence/museum_causal/museum_causal_6.png"" class=""exp-image"">
                    <div class=""question-area"">
                        <p style=""font-size: 20px; font-weight: bold; margin: 0;"">Is there a person in this image?</p>
                    </div>
                </div>","0","main_experiment_trial","6","museum_causal","causal_sequence","","","","",""
"","","","","","html-keyboard-response","176","521856","0.0-176.0","8C82D2AF29D249A6B94CA6CAC28B99AD","019cf4fb-941b-7d69-80fa-c5f1d10fd4c2","019cf498-06e0-702e-b525-9cde1ad77653","","null","
                <div class=""stimulus-container"">
                    <img src=""images/causal_sequence/museum_causal/museum_causal_7.png"" class=""exp-image"">
                    <div class=""question-area""></div> 
                </div>","null","","","","","","","","",""
"","","","","","html-button-response","177","522496","0.0-177.0","8C82D2AF29D249A6B94CA6CAC28B99AD","019cf4fb-941b-7d69-80fa-c5f1d10fd4c2","019cf498-06e0-702e-b525-9cde1ad77653","","639","
                <div class=""stimulus-container"">
                    <img src=""images/causal_sequence/museum_causal/museum_causal_7.png"" class=""exp-image"">
                    <div class=""question-area"">
                        <p style=""font-size: 20px; font-weight: bold; margin: 0;"">Is there a person in this image?</p>
                    </div>
                </div>","1","main_experiment_trial","7","museum_causal","causal_sequence","","","","",""
"","","","","","html-keyboard-response","178","527511","0.0-178.0","8C82D2AF29D249A6B94CA6CAC28B99AD","019cf4fb-941b-7d69-80fa-c5f1d10fd4c2","019cf498-06e0-702e-b525-9cde1ad77653","","null","
                <div class=""stimulus-container"">
                    <img src=""images/causal_sequence/museum_causal/museum_causal_8.png"" class=""exp-image"">
                    <div class=""question-area""></div> 
                </div>","null","","","","","","","","",""
"","","","","","html-button-response","179","528132","0.0-179.0","8C82D2AF29D249A6B94CA6CAC28B99AD","019cf4fb-941b-7d69-80fa-c5f1d10fd4c2","019cf498-06e0-702e-b525-9cde1ad77653","","619","
                <div class=""stimulus-container"">
                    <img src=""images/causal_sequence/museum_causal/museum_causal_8.png"" class=""exp-image"">
                    <div class=""question-area"">
                        <p style=""font-size: 20px; font-weight: bold; margin: 0;"">Is there a person in this image?</p>
                    </div>
                </div>","0","main_experiment_trial","8","museum_causal","causal_sequence","","","","",""
"","","","","","html-keyboard-response","180","533142","0.0-180.0","8C82D2AF29D249A6B94CA6CAC28B99AD","019cf4fb-941b-7d69-80fa-c5f1d10fd4c2","019cf498-06e0-702e-b525-9cde1ad77653","","null","
                <div class=""stimulus-container"">
                    <img src=""images/causal_sequence/museum_causal/museum_causal_9.png"" class=""exp-image"">
                    <div class=""question-area""></div> 
                </div>","null","","","","","","","","",""
"","","","","","html-button-response","181","534677","0.0-181.0","8C82D2AF29D249A6B94CA6CAC28B99AD","019cf4fb-941b-7d69-80fa-c5f1d10fd4c2","019cf498-06e0-702e-b525-9cde1ad77653","","1534","
                <div class=""stimulus-container"">
                    <img src=""images/causal_sequence/museum_causal/museum_causal_9.png"" class=""exp-image"">
                    <div class=""question-area"">
                        <p style=""font-size: 20px; font-weight: bold; margin: 0;"">Is there a person in this image?</p>
                    </div>
                </div>","1","main_experiment_trial","9","museum_causal","causal_sequence","","","","",""
"","","","","","html-keyboard-response","182","539693","0.0-182.0","8C82D2AF29D249A6B94CA6CAC28B99AD","019cf4fb-941b-7d69-80fa-c5f1d10fd4c2","019cf498-06e0-702e-b525-9cde1ad77653","","null","
                <div class=""stimulus-container"">
                    <img src=""images/causal_sequence/museum_causal/museum_causal_ten.png"" class=""exp-image"">
                    <div class=""question-area""></div> 
                </div>","null","","","","","","","","",""
"","","","","","html-button-response","183","540579","0.0-183.0","8C82D2AF29D249A6B94CA6CAC28B99AD","019cf4fb-941b-7d69-80fa-c5f1d10fd4c2","019cf498-06e0-702e-b525-9cde1ad77653","","885","
                <div class=""stimulus-container"">
                    <img src=""images/causal_sequence/museum_causal/museum_causal_ten.png"" class=""exp-image"">
                    <div class=""question-area"">
                        <p style=""font-size: 20px; font-weight: bold; margin: 0;"">Is there a person in this image?</p>
                    </div>
                </div>","0","main_experiment_trial","ten","museum_causal","causal_sequence","","","","",""
"","","","","","html-keyboard-response","184","541582","0.0-184.0","8C82D2AF29D249A6B94CA6CAC28B99AD","019cf4fb-941b-7d69-80fa-c5f1d10fd4c2","019cf498-06e0-702e-b525-9cde1ad77653","","null","<div style=""background-color: white; width: 100vw; height: 100vh;""></div>","null","","","","","","","","",""
