"success","timeout","failed_images","failed_audio","failed_video","trial_type","trial_index","time_elapsed","internal_node_id","subject_id","study_id","session_id","view_history","rt","stimulus","response","task","image_index","folder","valuable_image_index","valuable_X","chosen_image_index","distance_from_X"
"false","false","[]","[]","[]","preload","0","6876","0.0-0.0","1CA1795648564357812D28ADC8053E41","019ce7a7-35c3-76af-b330-7c7c00b3c968","019ce7a0-0965-7aa7-a556-174d32a8e773","","","","","","","","","","",""
"","","","","","instructions","1","14138","0.0-1.0","1CA1795648564357812D28ADC8053E41","019ce7a7-35c3-76af-b330-7c7c00b3c968","019ce7a0-0965-7aa7-a556-174d32a8e773","[{""page_index"":0,""viewing_time"":7244}]","7245","","","","","","","","",""
"","","","","","instructions","2","17937","0.0-2.0","1CA1795648564357812D28ADC8053E41","019ce7a7-35c3-76af-b330-7c7c00b3c968","019ce7a0-0965-7aa7-a556-174d32a8e773","[{""page_index"":0,""viewing_time"":3793}]","3794","","","","","","","","",""
"true","","","","","fullscreen","3","21975","0.0-3.0","1CA1795648564357812D28ADC8053E41","019ce7a7-35c3-76af-b330-7c7c00b3c968","019ce7a0-0965-7aa7-a556-174d32a8e773","","2941","","","","","","","","",""
"","","","","","instructions","4","787894","0.0-4.0","1CA1795648564357812D28ADC8053E41","019ce7a7-35c3-76af-b330-7c7c00b3c968","019ce7a0-0965-7aa7-a556-174d32a8e773","[{""page_index"":0,""viewing_time"":765891}]","765919","","","","","","","","",""
"","","","","","instructions","5","801246","0.0-5.0","1CA1795648564357812D28ADC8053E41","019ce7a7-35c3-76af-b330-7c7c00b3c968","019ce7a0-0965-7aa7-a556-174d32a8e773","[{""page_index"":0,""viewing_time"":13350}]","13351","","","","","","","","",""
"","","","","","html-keyboard-response","6","805251","0.0-6.0","1CA1795648564357812D28ADC8053E41","019ce7a7-35c3-76af-b330-7c7c00b3c968","019ce7a0-0965-7aa7-a556-174d32a8e773","","null","
                <div class=""stimulus-container"">
                    <img src=""images/instructions/movie_1.png"" class=""exp-image"">
                    <div class=""question-area""></div> 
                </div>","null","","","","","","",""
"","","","","","html-button-response","7","808259","0.0-7.0","1CA1795648564357812D28ADC8053E41","019ce7a7-35c3-76af-b330-7c7c00b3c968","019ce7a0-0965-7aa7-a556-174d32a8e773","","null","
                <div class=""stimulus-container"">
                    <img src=""images/instructions/movie_1.png"" class=""exp-image"">
                    <div class=""question-area"">
                        <p style=""font-size: 20px; font-weight: bold; margin: 0;"">Was there a person in this image?</p>
                    </div>
                </div>","null","example_question","1","","","","",""
"","","","","","html-keyboard-response","8","812276","0.0-8.0","1CA1795648564357812D28ADC8053E41","019ce7a7-35c3-76af-b330-7c7c00b3c968","019ce7a0-0965-7aa7-a556-174d32a8e773","","null","
                <div class=""stimulus-container"">
                    <img src=""images/instructions/movie_2.png"" class=""exp-image"">
                    <div class=""question-area""></div> 
                </div>","null","","","","","","",""
"","","","","","html-button-response","9","814831","0.0-9.0","1CA1795648564357812D28ADC8053E41","019ce7a7-35c3-76af-b330-7c7c00b3c968","019ce7a0-0965-7aa7-a556-174d32a8e773","","2544","
                <div class=""stimulus-container"">
                    <img src=""images/instructions/movie_2.png"" class=""exp-image"">
                    <div class=""question-area"">
                        <p style=""font-size: 20px; font-weight: bold; margin: 0;"">Was there a person in this image?</p>
                    </div>
                </div>","1","example_question","2","","","","",""
"","","","","","html-keyboard-response","10","818833","0.0-10.0","1CA1795648564357812D28ADC8053E41","019ce7a7-35c3-76af-b330-7c7c00b3c968","019ce7a0-0965-7aa7-a556-174d32a8e773","","null","
                <div class=""stimulus-container"">
                    <img src=""images/instructions/movie_3.png"" class=""exp-image"">
                    <div class=""question-area""></div> 
                </div>","null","","","","","","",""
"","","","","","html-button-response","11","820114","0.0-11.0","1CA1795648564357812D28ADC8053E41","019ce7a7-35c3-76af-b330-7c7c00b3c968","019ce7a0-0965-7aa7-a556-174d32a8e773","","1275","
                <div class=""stimulus-container"">
                    <img src=""images/instructions/movie_3.png"" class=""exp-image"">
                    <div class=""question-area"">
                        <p style=""font-size: 20px; font-weight: bold; margin: 0;"">Was there a person in this image?</p>
                    </div>
                </div>","0","example_question","3","","","","",""
"","","","","","html-keyboard-response","12","824115","0.0-12.0","1CA1795648564357812D28ADC8053E41","019ce7a7-35c3-76af-b330-7c7c00b3c968","019ce7a0-0965-7aa7-a556-174d32a8e773","","null","
                <div class=""stimulus-container"">
                    <img src=""images/instructions/movie_4.png"" class=""exp-image"">
                    <div class=""question-area""></div> 
                </div>","null","","","","","","",""
"","","","","","html-button-response","13","825430","0.0-13.0","1CA1795648564357812D28ADC8053E41","019ce7a7-35c3-76af-b330-7c7c00b3c968","019ce7a0-0965-7aa7-a556-174d32a8e773","","1312","
                <div class=""stimulus-container"">
                    <img src=""images/instructions/movie_4.png"" class=""exp-image"">
                    <div class=""question-area"">
                        <p style=""font-size: 20px; font-weight: bold; margin: 0;"">Was there a person in this image?</p>
                    </div>
                </div>","0","example_question","4","","","","",""
"","","","","","instructions","14","827213","0.0-14.0","1CA1795648564357812D28ADC8053E41","019ce7a7-35c3-76af-b330-7c7c00b3c968","019ce7a0-0965-7aa7-a556-174d32a8e773","[{""page_index"":0,""viewing_time"":1782}]","1782","","","","","","","","",""
"","","","","","html-keyboard-response","15","828218","0.0-15.0","1CA1795648564357812D28ADC8053E41","019ce7a7-35c3-76af-b330-7c7c00b3c968","019ce7a0-0965-7aa7-a556-174d32a8e773","","null","<div style=""background-color: gray; width: 100vw; height: 100vh;""></div>","null","","","","","","",""
"","","","","","html-keyboard-response","16","833223","0.0-16.0","1CA1795648564357812D28ADC8053E41","019ce7a7-35c3-76af-b330-7c7c00b3c968","019ce7a0-0965-7aa7-a556-174d32a8e773","","null","
                    <div class=""stimulus-container"">
                        <img src=""images/causal_sequence/museum_causal/museum_causal_1.png"" class=""exp-image"">
                        <div class=""question-area""></div> 
                    </div>","null","","","","","","",""
"","","","","","html-button-response","17","834774","0.0-17.0","1CA1795648564357812D28ADC8053E41","019ce7a7-35c3-76af-b330-7c7c00b3c968","019ce7a0-0965-7aa7-a556-174d32a8e773","","1539","
                    <div class=""stimulus-container"">
                        <img src=""images/causal_sequence/museum_causal/museum_causal_1.png"" class=""exp-image"">
                        <div class=""question-area"">
                            <p style=""font-size: 20px; font-weight: bold; margin: 0;"">Is there a person in this image?</p>
                        </div>
                    </div>","0","main_causal_task","1","museum_causal","","","",""
"","","","","","html-keyboard-response","18","839780","0.0-18.0","1CA1795648564357812D28ADC8053E41","019ce7a7-35c3-76af-b330-7c7c00b3c968","019ce7a0-0965-7aa7-a556-174d32a8e773","","null","
                    <div class=""stimulus-container"">
                        <img src=""images/causal_sequence/museum_causal/museum_causal_2.png"" class=""exp-image"">
                        <div class=""question-area""></div> 
                    </div>","null","","","","","","",""
"","","","","","html-button-response","19","841144","0.0-19.0","1CA1795648564357812D28ADC8053E41","019ce7a7-35c3-76af-b330-7c7c00b3c968","019ce7a0-0965-7aa7-a556-174d32a8e773","","1360","
                    <div class=""stimulus-container"">
                        <img src=""images/causal_sequence/museum_causal/museum_causal_2.png"" class=""exp-image"">
                        <div class=""question-area"">
                            <p style=""font-size: 20px; font-weight: bold; margin: 0;"">Is there a person in this image?</p>
                        </div>
                    </div>","1","main_causal_task","2","museum_causal","","","",""
"","","","","","html-keyboard-response","20","846148","0.0-20.0","1CA1795648564357812D28ADC8053E41","019ce7a7-35c3-76af-b330-7c7c00b3c968","019ce7a0-0965-7aa7-a556-174d32a8e773","","null","
                    <div class=""stimulus-container"">
                        <img src=""images/causal_sequence/museum_causal/museum_causal_3.png"" class=""exp-image"">
                        <div class=""question-area""></div> 
                    </div>","null","","","","","","",""
"","","","","","html-button-response","21","847078","0.0-21.0","1CA1795648564357812D28ADC8053E41","019ce7a7-35c3-76af-b330-7c7c00b3c968","019ce7a0-0965-7aa7-a556-174d32a8e773","","925","
                    <div class=""stimulus-container"">
                        <img src=""images/causal_sequence/museum_causal/museum_causal_3.png"" class=""exp-image"">
                        <div class=""question-area"">
                            <p style=""font-size: 20px; font-weight: bold; margin: 0;"">Is there a person in this image?</p>
                        </div>
                    </div>","0","main_causal_task","3","museum_causal","","","",""
"","","","","","html-keyboard-response","22","852080","0.0-22.0","1CA1795648564357812D28ADC8053E41","019ce7a7-35c3-76af-b330-7c7c00b3c968","019ce7a0-0965-7aa7-a556-174d32a8e773","","null","
                    <div class=""stimulus-container"">
                        <img src=""images/causal_sequence/museum_causal/museum_causal_4.png"" class=""exp-image"">
                        <div class=""question-area""></div> 
                    </div>","null","","","","","","",""
"","","","","","html-button-response","23","853353","0.0-23.0","1CA1795648564357812D28ADC8053E41","019ce7a7-35c3-76af-b330-7c7c00b3c968","019ce7a0-0965-7aa7-a556-174d32a8e773","","1267","
                    <div class=""stimulus-container"">
                        <img src=""images/causal_sequence/museum_causal/museum_causal_4.png"" class=""exp-image"">
                        <div class=""question-area"">
                            <p style=""font-size: 20px; font-weight: bold; margin: 0;"">Is there a person in this image?</p>
                        </div>
                    </div>","1","main_causal_task","4","museum_causal","","","",""
"","","","","","html-keyboard-response","24","858354","0.0-24.0","1CA1795648564357812D28ADC8053E41","019ce7a7-35c3-76af-b330-7c7c00b3c968","019ce7a0-0965-7aa7-a556-174d32a8e773","","null","
                    <div class=""stimulus-container"">
                        <img src=""images/causal_sequence/museum_causal/museum_causal_5.png"" class=""exp-image"">
                        <div class=""question-area""></div> 
                    </div>","null","","","","","","",""
"","","","","","html-button-response","25","859312","0.0-25.0","1CA1795648564357812D28ADC8053E41","019ce7a7-35c3-76af-b330-7c7c00b3c968","019ce7a0-0965-7aa7-a556-174d32a8e773","","955","
                    <div class=""stimulus-container"">
                        <img src=""images/causal_sequence/museum_causal/museum_causal_5.png"" class=""exp-image"">
                        <div class=""question-area"">
                            <p style=""font-size: 20px; font-weight: bold; margin: 0;"">Is there a person in this image?</p>
                        </div>
                    </div>","0","main_causal_task","5","museum_causal","","","",""
"","","","","","html-keyboard-response","26","864322","0.0-26.0","1CA1795648564357812D28ADC8053E41","019ce7a7-35c3-76af-b330-7c7c00b3c968","019ce7a0-0965-7aa7-a556-174d32a8e773","","null","
                    <div class=""stimulus-container"">
                        <img src=""images/causal_sequence/museum_causal/museum_causal_6.png"" class=""exp-image"">
                        <div class=""question-area""></div> 
                    </div>","null","","","","","","",""
"","","","","","html-button-response","27","865512","0.0-27.0","1CA1795648564357812D28ADC8053E41","019ce7a7-35c3-76af-b330-7c7c00b3c968","019ce7a0-0965-7aa7-a556-174d32a8e773","","1186","
                    <div class=""stimulus-container"">
                        <img src=""images/causal_sequence/museum_causal/museum_causal_6.png"" class=""exp-image"">
                        <div class=""question-area"">
                            <p style=""font-size: 20px; font-weight: bold; margin: 0;"">Is there a person in this image?</p>
                        </div>
                    </div>","0","main_causal_task","6","museum_causal","","","",""
"","","","","","html-keyboard-response","28","870529","0.0-28.0","1CA1795648564357812D28ADC8053E41","019ce7a7-35c3-76af-b330-7c7c00b3c968","019ce7a0-0965-7aa7-a556-174d32a8e773","","null","
                    <div class=""stimulus-container"">
                        <img src=""images/causal_sequence/museum_causal/museum_causal_7.png"" class=""exp-image"">
                        <div class=""question-area""></div> 
                    </div>","null","","","","","","",""
"","","","","","html-button-response","29","871803","0.0-29.0","1CA1795648564357812D28ADC8053E41","019ce7a7-35c3-76af-b330-7c7c00b3c968","019ce7a0-0965-7aa7-a556-174d32a8e773","","1272","
                    <div class=""stimulus-container"">
                        <img src=""images/causal_sequence/museum_causal/museum_causal_7.png"" class=""exp-image"">
                        <div class=""question-area"">
                            <p style=""font-size: 20px; font-weight: bold; margin: 0;"">Is there a person in this image?</p>
                        </div>
                    </div>","1","main_causal_task","7","museum_causal","","","",""
"","","","","","html-keyboard-response","30","876812","0.0-30.0","1CA1795648564357812D28ADC8053E41","019ce7a7-35c3-76af-b330-7c7c00b3c968","019ce7a0-0965-7aa7-a556-174d32a8e773","","null","
                    <div class=""stimulus-container"">
                        <img src=""images/causal_sequence/museum_causal/museum_causal_8.png"" class=""exp-image"">
                        <div class=""question-area""></div> 
                    </div>","null","","","","","","",""
"","","","","","html-button-response","31","878955","0.0-31.0","1CA1795648564357812D28ADC8053E41","019ce7a7-35c3-76af-b330-7c7c00b3c968","019ce7a0-0965-7aa7-a556-174d32a8e773","","2137","
                    <div class=""stimulus-container"">
                        <img src=""images/causal_sequence/museum_causal/museum_causal_8.png"" class=""exp-image"">
                        <div class=""question-area"">
                            <p style=""font-size: 20px; font-weight: bold; margin: 0;"">Is there a person in this image?</p>
                        </div>
                    </div>","0","main_causal_task","8","museum_causal","","","",""
"","","","","","html-keyboard-response","32","883964","0.0-32.0","1CA1795648564357812D28ADC8053E41","019ce7a7-35c3-76af-b330-7c7c00b3c968","019ce7a0-0965-7aa7-a556-174d32a8e773","","null","
                    <div class=""stimulus-container"">
                        <img src=""images/causal_sequence/museum_causal/museum_causal_9.png"" class=""exp-image"">
                        <div class=""question-area""></div> 
                    </div>","null","","","","","","",""
"","","","","","html-button-response","33","885250","0.0-33.0","1CA1795648564357812D28ADC8053E41","019ce7a7-35c3-76af-b330-7c7c00b3c968","019ce7a0-0965-7aa7-a556-174d32a8e773","","1280","
                    <div class=""stimulus-container"">
                        <img src=""images/causal_sequence/museum_causal/museum_causal_9.png"" class=""exp-image"">
                        <div class=""question-area"">
                            <p style=""font-size: 20px; font-weight: bold; margin: 0;"">Is there a person in this image?</p>
                        </div>
                    </div>","1","main_causal_task","9","museum_causal","","","",""
"","","","","","html-keyboard-response","34","886252","0.0-34.0","1CA1795648564357812D28ADC8053E41","019ce7a7-35c3-76af-b330-7c7c00b3c968","019ce7a0-0965-7aa7-a556-174d32a8e773","","null","<div style=""background-color: gray; width: 100vw; height: 100vh;""></div>","null","","","","","","",""
"","","","","","html-keyboard-response","35","891255","0.0-35.0","1CA1795648564357812D28ADC8053E41","019ce7a7-35c3-76af-b330-7c7c00b3c968","019ce7a0-0965-7aa7-a556-174d32a8e773","","null","
                    <div class=""stimulus-container"">
                        <img src=""images/causal_sequence/dog_causal/dog_causal_1.png"" class=""exp-image"">
                        <div class=""question-area""></div> 
                    </div>","null","","","","","","",""
"","","","","","html-button-response","36","892982","0.0-36.0","1CA1795648564357812D28ADC8053E41","019ce7a7-35c3-76af-b330-7c7c00b3c968","019ce7a0-0965-7aa7-a556-174d32a8e773","","1722","
                    <div class=""stimulus-container"">
                        <img src=""images/causal_sequence/dog_causal/dog_causal_1.png"" class=""exp-image"">
                        <div class=""question-area"">
                            <p style=""font-size: 20px; font-weight: bold; margin: 0;"">Is there a person in this image?</p>
                        </div>
                    </div>","0","main_causal_task","1","dog_causal","","","",""
"","","","","","html-keyboard-response","37","897989","0.0-37.0","1CA1795648564357812D28ADC8053E41","019ce7a7-35c3-76af-b330-7c7c00b3c968","019ce7a0-0965-7aa7-a556-174d32a8e773","","null","
                    <div class=""stimulus-container"">
                        <img src=""images/causal_sequence/dog_causal/dog_causal_2.png"" class=""exp-image"">
                        <div class=""question-area""></div> 
                    </div>","null","","","","","","",""
"","","","","","html-button-response","38","899186","0.0-38.0","1CA1795648564357812D28ADC8053E41","019ce7a7-35c3-76af-b330-7c7c00b3c968","019ce7a0-0965-7aa7-a556-174d32a8e773","","1195","
                    <div class=""stimulus-container"">
                        <img src=""images/causal_sequence/dog_causal/dog_causal_2.png"" class=""exp-image"">
                        <div class=""question-area"">
                            <p style=""font-size: 20px; font-weight: bold; margin: 0;"">Is there a person in this image?</p>
                        </div>
                    </div>","0","main_causal_task","2","dog_causal","","","",""
"","","","","","html-keyboard-response","39","904197","0.0-39.0","1CA1795648564357812D28ADC8053E41","019ce7a7-35c3-76af-b330-7c7c00b3c968","019ce7a0-0965-7aa7-a556-174d32a8e773","","null","
                    <div class=""stimulus-container"">
                        <img src=""images/causal_sequence/dog_causal/dog_causal_3.png"" class=""exp-image"">
                        <div class=""question-area""></div> 
                    </div>","null","","","","","","",""
"","","","","","html-button-response","40","905669","0.0-40.0","1CA1795648564357812D28ADC8053E41","019ce7a7-35c3-76af-b330-7c7c00b3c968","019ce7a0-0965-7aa7-a556-174d32a8e773","","1471","
                    <div class=""stimulus-container"">
                        <img src=""images/causal_sequence/dog_causal/dog_causal_3.png"" class=""exp-image"">
                        <div class=""question-area"">
                            <p style=""font-size: 20px; font-weight: bold; margin: 0;"">Is there a person in this image?</p>
                        </div>
                    </div>","0","main_causal_task","3","dog_causal","","","",""
"","","","","","html-keyboard-response","41","910673","0.0-41.0","1CA1795648564357812D28ADC8053E41","019ce7a7-35c3-76af-b330-7c7c00b3c968","019ce7a0-0965-7aa7-a556-174d32a8e773","","null","
                    <div class=""stimulus-container"">
                        <img src=""images/causal_sequence/dog_causal/dog_causal_4.png"" class=""exp-image"">
                        <div class=""question-area""></div> 
                    </div>","null","","","","","","",""
"","","","","","html-button-response","42","912946","0.0-42.0","1CA1795648564357812D28ADC8053E41","019ce7a7-35c3-76af-b330-7c7c00b3c968","019ce7a0-0965-7aa7-a556-174d32a8e773","","2270","
                    <div class=""stimulus-container"">
                        <img src=""images/causal_sequence/dog_causal/dog_causal_4.png"" class=""exp-image"">
                        <div class=""question-area"">
                            <p style=""font-size: 20px; font-weight: bold; margin: 0;"">Is there a person in this image?</p>
                        </div>
                    </div>","0","main_causal_task","4","dog_causal","","","",""
"","","","","","html-keyboard-response","43","917953","0.0-43.0","1CA1795648564357812D28ADC8053E41","019ce7a7-35c3-76af-b330-7c7c00b3c968","019ce7a0-0965-7aa7-a556-174d32a8e773","","null","
                    <div class=""stimulus-container"">
                        <img src=""images/causal_sequence/dog_causal/dog_causal_5.png"" class=""exp-image"">
                        <div class=""question-area""></div> 
                    </div>","null","","","","","","",""
"","","","","","html-button-response","44","919141","0.0-44.0","1CA1795648564357812D28ADC8053E41","019ce7a7-35c3-76af-b330-7c7c00b3c968","019ce7a0-0965-7aa7-a556-174d32a8e773","","1181","
                    <div class=""stimulus-container"">
                        <img src=""images/causal_sequence/dog_causal/dog_causal_5.png"" class=""exp-image"">
                        <div class=""question-area"">
                            <p style=""font-size: 20px; font-weight: bold; margin: 0;"">Is there a person in this image?</p>
                        </div>
                    </div>","0","main_causal_task","5","dog_causal","","","",""
"","","","","","html-keyboard-response","45","924152","0.0-45.0","1CA1795648564357812D28ADC8053E41","019ce7a7-35c3-76af-b330-7c7c00b3c968","019ce7a0-0965-7aa7-a556-174d32a8e773","","null","
                    <div class=""stimulus-container"">
                        <img src=""images/causal_sequence/dog_causal/dog_causal_6.png"" class=""exp-image"">
                        <div class=""question-area""></div> 
                    </div>","null","","","","","","",""
"","","","","","html-button-response","46","925313","0.0-46.0","1CA1795648564357812D28ADC8053E41","019ce7a7-35c3-76af-b330-7c7c00b3c968","019ce7a0-0965-7aa7-a556-174d32a8e773","","1159","
                    <div class=""stimulus-container"">
                        <img src=""images/causal_sequence/dog_causal/dog_causal_6.png"" class=""exp-image"">
                        <div class=""question-area"">
                            <p style=""font-size: 20px; font-weight: bold; margin: 0;"">Is there a person in this image?</p>
                        </div>
                    </div>","0","main_causal_task","6","dog_causal","","","",""
"","","","","","html-keyboard-response","47","930324","0.0-47.0","1CA1795648564357812D28ADC8053E41","019ce7a7-35c3-76af-b330-7c7c00b3c968","019ce7a0-0965-7aa7-a556-174d32a8e773","","null","
                    <div class=""stimulus-container"">
                        <img src=""images/causal_sequence/dog_causal/dog_causal_7.png"" class=""exp-image"">
                        <div class=""question-area""></div> 
                    </div>","null","","","","","","",""
"","","","","","html-button-response","48","931609","0.0-48.0","1CA1795648564357812D28ADC8053E41","019ce7a7-35c3-76af-b330-7c7c00b3c968","019ce7a0-0965-7aa7-a556-174d32a8e773","","1284","
                    <div class=""stimulus-container"">
                        <img src=""images/causal_sequence/dog_causal/dog_causal_7.png"" class=""exp-image"">
                        <div class=""question-area"">
                            <p style=""font-size: 20px; font-weight: bold; margin: 0;"">Is there a person in this image?</p>
                        </div>
                    </div>","0","main_causal_task","7","dog_causal","","","",""
"","","","","","html-keyboard-response","49","936619","0.0-49.0","1CA1795648564357812D28ADC8053E41","019ce7a7-35c3-76af-b330-7c7c00b3c968","019ce7a0-0965-7aa7-a556-174d32a8e773","","null","
                    <div class=""stimulus-container"">
                        <img src=""images/causal_sequence/dog_causal/dog_causal_8.png"" class=""exp-image"">
                        <div class=""question-area""></div> 
                    </div>","null","","","","","","",""
"","","","","","html-button-response","50","938274","0.0-50.0","1CA1795648564357812D28ADC8053E41","019ce7a7-35c3-76af-b330-7c7c00b3c968","019ce7a0-0965-7aa7-a556-174d32a8e773","","1648","
                    <div class=""stimulus-container"">
                        <img src=""images/causal_sequence/dog_causal/dog_causal_8.png"" class=""exp-image"">
                        <div class=""question-area"">
                            <p style=""font-size: 20px; font-weight: bold; margin: 0;"">Is there a person in this image?</p>
                        </div>
                    </div>","0","main_causal_task","8","dog_causal","","","",""
"","","","","","html-keyboard-response","51","943290","0.0-51.0","1CA1795648564357812D28ADC8053E41","019ce7a7-35c3-76af-b330-7c7c00b3c968","019ce7a0-0965-7aa7-a556-174d32a8e773","","null","
                    <div class=""stimulus-container"">
                        <img src=""images/causal_sequence/dog_causal/dog_causal_9.png"" class=""exp-image"">
                        <div class=""question-area""></div> 
                    </div>","null","","","","","","",""
"","","","","","html-button-response","52","944515","0.0-52.0","1CA1795648564357812D28ADC8053E41","019ce7a7-35c3-76af-b330-7c7c00b3c968","019ce7a0-0965-7aa7-a556-174d32a8e773","","1223","
                    <div class=""stimulus-container"">
                        <img src=""images/causal_sequence/dog_causal/dog_causal_9.png"" class=""exp-image"">
                        <div class=""question-area"">
                            <p style=""font-size: 20px; font-weight: bold; margin: 0;"">Is there a person in this image?</p>
                        </div>
                    </div>","0","main_causal_task","9","dog_causal","","","",""
"","","","","","html-keyboard-response","53","945530","0.0-53.0","1CA1795648564357812D28ADC8053E41","019ce7a7-35c3-76af-b330-7c7c00b3c968","019ce7a0-0965-7aa7-a556-174d32a8e773","","null","<div style=""background-color: gray; width: 100vw; height: 100vh;""></div>","null","","","","","","",""
"","","","","","html-keyboard-response","54","950536","0.0-54.0","1CA1795648564357812D28ADC8053E41","019ce7a7-35c3-76af-b330-7c7c00b3c968","019ce7a0-0965-7aa7-a556-174d32a8e773","","null","
                    <div class=""stimulus-container"">
                        <img src=""images/causal_sequence/coin_causal/coin_causal_1.png"" class=""exp-image"">
                        <div class=""question-area""></div> 
                    </div>","null","","","","","","",""
"","","","","","html-button-response","55","951898","0.0-55.0","1CA1795648564357812D28ADC8053E41","019ce7a7-35c3-76af-b330-7c7c00b3c968","019ce7a0-0965-7aa7-a556-174d32a8e773","","1360","
                    <div class=""stimulus-container"">
                        <img src=""images/causal_sequence/coin_causal/coin_causal_1.png"" class=""exp-image"">
                        <div class=""question-area"">
                            <p style=""font-size: 20px; font-weight: bold; margin: 0;"">Is there a person in this image?</p>
                        </div>
                    </div>","0","main_causal_task","1","coin_causal","","","",""
"","","","","","html-keyboard-response","56","956913","0.0-56.0","1CA1795648564357812D28ADC8053E41","019ce7a7-35c3-76af-b330-7c7c00b3c968","019ce7a0-0965-7aa7-a556-174d32a8e773","","null","
                    <div class=""stimulus-container"">
                        <img src=""images/causal_sequence/coin_causal/coin_causal_2.png"" class=""exp-image"">
                        <div class=""question-area""></div> 
                    </div>","null","","","","","","",""
"","","","","","html-button-response","57","957812","0.0-57.0","1CA1795648564357812D28ADC8053E41","019ce7a7-35c3-76af-b330-7c7c00b3c968","019ce7a0-0965-7aa7-a556-174d32a8e773","","889","
                    <div class=""stimulus-container"">
                        <img src=""images/causal_sequence/coin_causal/coin_causal_2.png"" class=""exp-image"">
                        <div class=""question-area"">
                            <p style=""font-size: 20px; font-weight: bold; margin: 0;"">Is there a person in this image?</p>
                        </div>
                    </div>","0","main_causal_task","2","coin_causal","","","",""
"","","","","","html-keyboard-response","58","962815","0.0-58.0","1CA1795648564357812D28ADC8053E41","019ce7a7-35c3-76af-b330-7c7c00b3c968","019ce7a0-0965-7aa7-a556-174d32a8e773","","null","
                    <div class=""stimulus-container"">
                        <img src=""images/causal_sequence/coin_causal/coin_causal_3.png"" class=""exp-image"">
                        <div class=""question-area""></div> 
                    </div>","null","","","","","","",""
"","","","","","html-button-response","59","964124","0.0-59.0","1CA1795648564357812D28ADC8053E41","019ce7a7-35c3-76af-b330-7c7c00b3c968","019ce7a0-0965-7aa7-a556-174d32a8e773","","1303","
                    <div class=""stimulus-container"">
                        <img src=""images/causal_sequence/coin_causal/coin_causal_3.png"" class=""exp-image"">
                        <div class=""question-area"">
                            <p style=""font-size: 20px; font-weight: bold; margin: 0;"">Is there a person in this image?</p>
                        </div>
                    </div>","0","main_causal_task","3","coin_causal","","","",""
"","","","","","html-keyboard-response","60","969131","0.0-60.0","1CA1795648564357812D28ADC8053E41","019ce7a7-35c3-76af-b330-7c7c00b3c968","019ce7a0-0965-7aa7-a556-174d32a8e773","","null","
                    <div class=""stimulus-container"">
                        <img src=""images/causal_sequence/coin_causal/coin_causal_4.png"" class=""exp-image"">
                        <div class=""question-area""></div> 
                    </div>","null","","","","","","",""
"","","","","","html-button-response","61","970368","0.0-61.0","1CA1795648564357812D28ADC8053E41","019ce7a7-35c3-76af-b330-7c7c00b3c968","019ce7a0-0965-7aa7-a556-174d32a8e773","","1233","
                    <div class=""stimulus-container"">
                        <img src=""images/causal_sequence/coin_causal/coin_causal_4.png"" class=""exp-image"">
                        <div class=""question-area"">
                            <p style=""font-size: 20px; font-weight: bold; margin: 0;"">Is there a person in this image?</p>
                        </div>
                    </div>","0","main_causal_task","4","coin_causal","","","",""
"","","","","","html-keyboard-response","62","975371","0.0-62.0","1CA1795648564357812D28ADC8053E41","019ce7a7-35c3-76af-b330-7c7c00b3c968","019ce7a0-0965-7aa7-a556-174d32a8e773","","null","
                    <div class=""stimulus-container"">
                        <img src=""images/causal_sequence/coin_causal/coin_causal_5.png"" class=""exp-image"">
                        <div class=""question-area""></div> 
                    </div>","null","","","","","","",""
"","","","","","html-button-response","63","976376","0.0-63.0","1CA1795648564357812D28ADC8053E41","019ce7a7-35c3-76af-b330-7c7c00b3c968","019ce7a0-0965-7aa7-a556-174d32a8e773","","1002","
                    <div class=""stimulus-container"">
                        <img src=""images/causal_sequence/coin_causal/coin_causal_5.png"" class=""exp-image"">
                        <div class=""question-area"">
                            <p style=""font-size: 20px; font-weight: bold; margin: 0;"">Is there a person in this image?</p>
                        </div>
                    </div>","0","main_causal_task","5","coin_causal","","","",""
"","","","","","html-keyboard-response","64","981383","0.0-64.0","1CA1795648564357812D28ADC8053E41","019ce7a7-35c3-76af-b330-7c7c00b3c968","019ce7a0-0965-7aa7-a556-174d32a8e773","","null","
                    <div class=""stimulus-container"">
                        <img src=""images/causal_sequence/coin_causal/coin_causal_6.png"" class=""exp-image"">
                        <div class=""question-area""></div> 
                    </div>","null","","","","","","",""
"","","","","","html-button-response","65","982506","0.0-65.0","1CA1795648564357812D28ADC8053E41","019ce7a7-35c3-76af-b330-7c7c00b3c968","019ce7a0-0965-7aa7-a556-174d32a8e773","","1121","
                    <div class=""stimulus-container"">
                        <img src=""images/causal_sequence/coin_causal/coin_causal_6.png"" class=""exp-image"">
                        <div class=""question-area"">
                            <p style=""font-size: 20px; font-weight: bold; margin: 0;"">Is there a person in this image?</p>
                        </div>
                    </div>","0","main_causal_task","6","coin_causal","","","",""
"","","","","","html-keyboard-response","66","987513","0.0-66.0","1CA1795648564357812D28ADC8053E41","019ce7a7-35c3-76af-b330-7c7c00b3c968","019ce7a0-0965-7aa7-a556-174d32a8e773","","null","
                    <div class=""stimulus-container"">
                        <img src=""images/causal_sequence/coin_causal/coin_causal_7.png"" class=""exp-image"">
                        <div class=""question-area""></div> 
                    </div>","null","","","","","","",""
"","","","","","html-button-response","67","989046","0.0-67.0","1CA1795648564357812D28ADC8053E41","019ce7a7-35c3-76af-b330-7c7c00b3c968","019ce7a0-0965-7aa7-a556-174d32a8e773","","1527","
                    <div class=""stimulus-container"">
                        <img src=""images/causal_sequence/coin_causal/coin_causal_7.png"" class=""exp-image"">
                        <div class=""question-area"">
                            <p style=""font-size: 20px; font-weight: bold; margin: 0;"">Is there a person in this image?</p>
                        </div>
                    </div>","1","main_causal_task","7","coin_causal","","","",""
"","","","","","html-keyboard-response","68","994048","0.0-68.0","1CA1795648564357812D28ADC8053E41","019ce7a7-35c3-76af-b330-7c7c00b3c968","019ce7a0-0965-7aa7-a556-174d32a8e773","","null","
                    <div class=""stimulus-container"">
                        <img src=""images/causal_sequence/coin_causal/coin_causal_8.png"" class=""exp-image"">
                        <div class=""question-area""></div> 
                    </div>","null","","","","","","",""
"","","","","","html-button-response","69","995433","0.0-69.0","1CA1795648564357812D28ADC8053E41","019ce7a7-35c3-76af-b330-7c7c00b3c968","019ce7a0-0965-7aa7-a556-174d32a8e773","","1381","
                    <div class=""stimulus-container"">
                        <img src=""images/causal_sequence/coin_causal/coin_causal_8.png"" class=""exp-image"">
                        <div class=""question-area"">
                            <p style=""font-size: 20px; font-weight: bold; margin: 0;"">Is there a person in this image?</p>
                        </div>
                    </div>","1","main_causal_task","8","coin_causal","","","",""
"","","","","","html-keyboard-response","70","1000442","0.0-70.0","1CA1795648564357812D28ADC8053E41","019ce7a7-35c3-76af-b330-7c7c00b3c968","019ce7a0-0965-7aa7-a556-174d32a8e773","","null","
                    <div class=""stimulus-container"">
                        <img src=""images/causal_sequence/coin_causal/coin_causal_9.png"" class=""exp-image"">
                        <div class=""question-area""></div> 
                    </div>","null","","","","","","",""
"","","","","","html-button-response","71","1001461","0.0-71.0","1CA1795648564357812D28ADC8053E41","019ce7a7-35c3-76af-b330-7c7c00b3c968","019ce7a0-0965-7aa7-a556-174d32a8e773","","1015","
                    <div class=""stimulus-container"">
                        <img src=""images/causal_sequence/coin_causal/coin_causal_9.png"" class=""exp-image"">
                        <div class=""question-area"">
                            <p style=""font-size: 20px; font-weight: bold; margin: 0;"">Is there a person in this image?</p>
                        </div>
                    </div>","0","main_causal_task","9","coin_causal","","","",""
"","","","","","html-keyboard-response","72","1002478","0.0-72.0","1CA1795648564357812D28ADC8053E41","019ce7a7-35c3-76af-b330-7c7c00b3c968","019ce7a0-0965-7aa7-a556-174d32a8e773","","null","<div style=""background-color: gray; width: 100vw; height: 100vh;""></div>","null","","","","","","",""
"","","","","","html-keyboard-response","73","1007496","0.0-73.0","1CA1795648564357812D28ADC8053E41","019ce7a7-35c3-76af-b330-7c7c00b3c968","019ce7a0-0965-7aa7-a556-174d32a8e773","","null","
                    <div class=""stimulus-container"">
                        <img src=""images/causal_sequence/saving_a_cat_causal/saving_a_cat_causal_1.png"" class=""exp-image"">
                        <div class=""question-area""></div> 
                    </div>","null","","","","","","",""
"","","","","","html-button-response","74","1009223","0.0-74.0","1CA1795648564357812D28ADC8053E41","019ce7a7-35c3-76af-b330-7c7c00b3c968","019ce7a0-0965-7aa7-a556-174d32a8e773","","1721","
                    <div class=""stimulus-container"">
                        <img src=""images/causal_sequence/saving_a_cat_causal/saving_a_cat_causal_1.png"" class=""exp-image"">
                        <div class=""question-area"">
                            <p style=""font-size: 20px; font-weight: bold; margin: 0;"">Is there a person in this image?</p>
                        </div>
                    </div>","0","main_causal_task","1","saving_a_cat_causal","","","",""
"","","","","","html-keyboard-response","75","1014243","0.0-75.0","1CA1795648564357812D28ADC8053E41","019ce7a7-35c3-76af-b330-7c7c00b3c968","019ce7a0-0965-7aa7-a556-174d32a8e773","","null","
                    <div class=""stimulus-container"">
                        <img src=""images/causal_sequence/saving_a_cat_causal/saving_a_cat_causal_2.png"" class=""exp-image"">
                        <div class=""question-area""></div> 
                    </div>","null","","","","","","",""
"","","","","","html-button-response","76","1016186","0.0-76.0","1CA1795648564357812D28ADC8053E41","019ce7a7-35c3-76af-b330-7c7c00b3c968","019ce7a0-0965-7aa7-a556-174d32a8e773","","1934","
                    <div class=""stimulus-container"">
                        <img src=""images/causal_sequence/saving_a_cat_causal/saving_a_cat_causal_2.png"" class=""exp-image"">
                        <div class=""question-area"">
                            <p style=""font-size: 20px; font-weight: bold; margin: 0;"">Is there a person in this image?</p>
                        </div>
                    </div>","1","main_causal_task","2","saving_a_cat_causal","","","",""
"","","","","","html-keyboard-response","77","1021202","0.0-77.0","1CA1795648564357812D28ADC8053E41","019ce7a7-35c3-76af-b330-7c7c00b3c968","019ce7a0-0965-7aa7-a556-174d32a8e773","","null","
                    <div class=""stimulus-container"">
                        <img src=""images/causal_sequence/saving_a_cat_causal/saving_a_cat_causal_3.png"" class=""exp-image"">
                        <div class=""question-area""></div> 
                    </div>","null","","","","","","",""
"","","","","","html-button-response","78","1022925","0.0-78.0","1CA1795648564357812D28ADC8053E41","019ce7a7-35c3-76af-b330-7c7c00b3c968","019ce7a0-0965-7aa7-a556-174d32a8e773","","1720","
                    <div class=""stimulus-container"">
                        <img src=""images/causal_sequence/saving_a_cat_causal/saving_a_cat_causal_3.png"" class=""exp-image"">
                        <div class=""question-area"">
                            <p style=""font-size: 20px; font-weight: bold; margin: 0;"">Is there a person in this image?</p>
                        </div>
                    </div>","1","main_causal_task","3","saving_a_cat_causal","","","",""
"","","","","","html-keyboard-response","79","1027930","0.0-79.0","1CA1795648564357812D28ADC8053E41","019ce7a7-35c3-76af-b330-7c7c00b3c968","019ce7a0-0965-7aa7-a556-174d32a8e773","","null","
                    <div class=""stimulus-container"">
                        <img src=""images/causal_sequence/saving_a_cat_causal/saving_a_cat_causal_4.png"" class=""exp-image"">
                        <div class=""question-area""></div> 
                    </div>","null","","","","","","",""
"","","","","","html-button-response","80","1030364","0.0-80.0","1CA1795648564357812D28ADC8053E41","019ce7a7-35c3-76af-b330-7c7c00b3c968","019ce7a0-0965-7aa7-a556-174d32a8e773","","2431","
                    <div class=""stimulus-container"">
                        <img src=""images/causal_sequence/saving_a_cat_causal/saving_a_cat_causal_4.png"" class=""exp-image"">
                        <div class=""question-area"">
                            <p style=""font-size: 20px; font-weight: bold; margin: 0;"">Is there a person in this image?</p>
                        </div>
                    </div>","0","main_causal_task","4","saving_a_cat_causal","","","",""
"","","","","","html-keyboard-response","81","1035382","0.0-81.0","1CA1795648564357812D28ADC8053E41","019ce7a7-35c3-76af-b330-7c7c00b3c968","019ce7a0-0965-7aa7-a556-174d32a8e773","","null","
                    <div class=""stimulus-container"">
                        <img src=""images/causal_sequence/saving_a_cat_causal/saving_a_cat_causal_5.png"" class=""exp-image"">
                        <div class=""question-area""></div> 
                    </div>","null","","","","","","",""
"","","","","","html-button-response","82","1038097","0.0-82.0","1CA1795648564357812D28ADC8053E41","019ce7a7-35c3-76af-b330-7c7c00b3c968","019ce7a0-0965-7aa7-a556-174d32a8e773","","2712","
                    <div class=""stimulus-container"">
                        <img src=""images/causal_sequence/saving_a_cat_causal/saving_a_cat_causal_5.png"" class=""exp-image"">
                        <div class=""question-area"">
                            <p style=""font-size: 20px; font-weight: bold; margin: 0;"">Is there a person in this image?</p>
                        </div>
                    </div>","0","main_causal_task","5","saving_a_cat_causal","","","",""
"","","","","","html-keyboard-response","83","1043114","0.0-83.0","1CA1795648564357812D28ADC8053E41","019ce7a7-35c3-76af-b330-7c7c00b3c968","019ce7a0-0965-7aa7-a556-174d32a8e773","","null","
                    <div class=""stimulus-container"">
                        <img src=""images/causal_sequence/saving_a_cat_causal/saving_a_cat_causal_6.png"" class=""exp-image"">
                        <div class=""question-area""></div> 
                    </div>","null","","","","","","",""
"","","","","","html-button-response","84","1044634","0.0-84.0","1CA1795648564357812D28ADC8053E41","019ce7a7-35c3-76af-b330-7c7c00b3c968","019ce7a0-0965-7aa7-a556-174d32a8e773","","1516","
                    <div class=""stimulus-container"">
                        <img src=""images/causal_sequence/saving_a_cat_causal/saving_a_cat_causal_6.png"" class=""exp-image"">
                        <div class=""question-area"">
                            <p style=""font-size: 20px; font-weight: bold; margin: 0;"">Is there a person in this image?</p>
                        </div>
                    </div>","0","main_causal_task","6","saving_a_cat_causal","","","",""
"","","","","","html-keyboard-response","85","1049649","0.0-85.0","1CA1795648564357812D28ADC8053E41","019ce7a7-35c3-76af-b330-7c7c00b3c968","019ce7a0-0965-7aa7-a556-174d32a8e773","","null","
                    <div class=""stimulus-container"">
                        <img src=""images/causal_sequence/saving_a_cat_causal/saving_a_cat_causal_7.png"" class=""exp-image"">
                        <div class=""question-area""></div> 
                    </div>","null","","","","","","",""
"","","","","","html-button-response","86","1051473","0.0-86.0","1CA1795648564357812D28ADC8053E41","019ce7a7-35c3-76af-b330-7c7c00b3c968","019ce7a0-0965-7aa7-a556-174d32a8e773","","1819","
                    <div class=""stimulus-container"">
                        <img src=""images/causal_sequence/saving_a_cat_causal/saving_a_cat_causal_7.png"" class=""exp-image"">
                        <div class=""question-area"">
                            <p style=""font-size: 20px; font-weight: bold; margin: 0;"">Is there a person in this image?</p>
                        </div>
                    </div>","0","main_causal_task","7","saving_a_cat_causal","","","",""
"","","","","","html-keyboard-response","87","1056483","0.0-87.0","1CA1795648564357812D28ADC8053E41","019ce7a7-35c3-76af-b330-7c7c00b3c968","019ce7a0-0965-7aa7-a556-174d32a8e773","","null","
                    <div class=""stimulus-container"">
                        <img src=""images/causal_sequence/saving_a_cat_causal/saving_a_cat_causal_8.png"" class=""exp-image"">
                        <div class=""question-area""></div> 
                    </div>","null","","","","","","",""
"","","","","","html-button-response","88","1057971","0.0-88.0","1CA1795648564357812D28ADC8053E41","019ce7a7-35c3-76af-b330-7c7c00b3c968","019ce7a0-0965-7aa7-a556-174d32a8e773","","1485","
                    <div class=""stimulus-container"">
                        <img src=""images/causal_sequence/saving_a_cat_causal/saving_a_cat_causal_8.png"" class=""exp-image"">
                        <div class=""question-area"">
                            <p style=""font-size: 20px; font-weight: bold; margin: 0;"">Is there a person in this image?</p>
                        </div>
                    </div>","0","main_causal_task","8","saving_a_cat_causal","","","",""
"","","","","","html-keyboard-response","89","1062988","0.0-89.0","1CA1795648564357812D28ADC8053E41","019ce7a7-35c3-76af-b330-7c7c00b3c968","019ce7a0-0965-7aa7-a556-174d32a8e773","","null","
                    <div class=""stimulus-container"">
                        <img src=""images/causal_sequence/saving_a_cat_causal/saving_a_cat_causal_9.png"" class=""exp-image"">
                        <div class=""question-area""></div> 
                    </div>","null","","","","","","",""
"","","","","","html-button-response","90","1064674","0.0-90.0","1CA1795648564357812D28ADC8053E41","019ce7a7-35c3-76af-b330-7c7c00b3c968","019ce7a0-0965-7aa7-a556-174d32a8e773","","1680","
                    <div class=""stimulus-container"">
                        <img src=""images/causal_sequence/saving_a_cat_causal/saving_a_cat_causal_9.png"" class=""exp-image"">
                        <div class=""question-area"">
                            <p style=""font-size: 20px; font-weight: bold; margin: 0;"">Is there a person in this image?</p>
                        </div>
                    </div>","0","main_causal_task","9","saving_a_cat_causal","","","",""
"","","","","","html-keyboard-response","91","1065680","0.0-91.0","1CA1795648564357812D28ADC8053E41","019ce7a7-35c3-76af-b330-7c7c00b3c968","019ce7a0-0965-7aa7-a556-174d32a8e773","","null","<div style=""background-color: gray; width: 100vw; height: 100vh;""></div>","null","","","","","","",""
"","","","","","html-keyboard-response","92","1070684","0.0-92.0","1CA1795648564357812D28ADC8053E41","019ce7a7-35c3-76af-b330-7c7c00b3c968","019ce7a0-0965-7aa7-a556-174d32a8e773","","null","
                    <div class=""stimulus-container"">
                        <img src=""images/causal_sequence/the_performance_causal/the_performance_causal_1.png"" class=""exp-image"">
                        <div class=""question-area""></div> 
                    </div>","null","","","","","","",""
"","","","","","html-button-response","93","1072282","0.0-93.0","1CA1795648564357812D28ADC8053E41","019ce7a7-35c3-76af-b330-7c7c00b3c968","019ce7a0-0965-7aa7-a556-174d32a8e773","","1593","
                    <div class=""stimulus-container"">
                        <img src=""images/causal_sequence/the_performance_causal/the_performance_causal_1.png"" class=""exp-image"">
                        <div class=""question-area"">
                            <p style=""font-size: 20px; font-weight: bold; margin: 0;"">Is there a person in this image?</p>
                        </div>
                    </div>","0","main_causal_task","1","the_performance_causal","","","",""
"","","","","","html-keyboard-response","94","1077299","0.0-94.0","1CA1795648564357812D28ADC8053E41","019ce7a7-35c3-76af-b330-7c7c00b3c968","019ce7a0-0965-7aa7-a556-174d32a8e773","","null","
                    <div class=""stimulus-container"">
                        <img src=""images/causal_sequence/the_performance_causal/the_performance_causal_2.png"" class=""exp-image"">
                        <div class=""question-area""></div> 
                    </div>","null","","","","","","",""
"","","","","","html-button-response","95","1078688","0.0-95.0","1CA1795648564357812D28ADC8053E41","019ce7a7-35c3-76af-b330-7c7c00b3c968","019ce7a0-0965-7aa7-a556-174d32a8e773","","1383","
                    <div class=""stimulus-container"">
                        <img src=""images/causal_sequence/the_performance_causal/the_performance_causal_2.png"" class=""exp-image"">
                        <div class=""question-area"">
                            <p style=""font-size: 20px; font-weight: bold; margin: 0;"">Is there a person in this image?</p>
                        </div>
                    </div>","0","main_causal_task","2","the_performance_causal","","","",""
"","","","","","html-keyboard-response","96","1083698","0.0-96.0","1CA1795648564357812D28ADC8053E41","019ce7a7-35c3-76af-b330-7c7c00b3c968","019ce7a0-0965-7aa7-a556-174d32a8e773","","null","
                    <div class=""stimulus-container"">
                        <img src=""images/causal_sequence/the_performance_causal/the_performance_causal_3.png"" class=""exp-image"">
                        <div class=""question-area""></div> 
                    </div>","null","","","","","","",""
"","","","","","html-button-response","97","1086699","0.0-97.0","1CA1795648564357812D28ADC8053E41","019ce7a7-35c3-76af-b330-7c7c00b3c968","019ce7a0-0965-7aa7-a556-174d32a8e773","","null","
                    <div class=""stimulus-container"">
                        <img src=""images/causal_sequence/the_performance_causal/the_performance_causal_3.png"" class=""exp-image"">
                        <div class=""question-area"">
                            <p style=""font-size: 20px; font-weight: bold; margin: 0;"">Is there a person in this image?</p>
                        </div>
                    </div>","null","main_causal_task","3","the_performance_causal","","","",""
"","","","","","html-keyboard-response","98","1091708","0.0-98.0","1CA1795648564357812D28ADC8053E41","019ce7a7-35c3-76af-b330-7c7c00b3c968","019ce7a0-0965-7aa7-a556-174d32a8e773","","null","
                    <div class=""stimulus-container"">
                        <img src=""images/causal_sequence/the_performance_causal/the_performance_causal_4.png"" class=""exp-image"">
                        <div class=""question-area""></div> 
                    </div>","null","","","","","","",""
"","","","","","html-button-response","99","1093294","0.0-99.0","1CA1795648564357812D28ADC8053E41","019ce7a7-35c3-76af-b330-7c7c00b3c968","019ce7a0-0965-7aa7-a556-174d32a8e773","","1580","
                    <div class=""stimulus-container"">
                        <img src=""images/causal_sequence/the_performance_causal/the_performance_causal_4.png"" class=""exp-image"">
                        <div class=""question-area"">
                            <p style=""font-size: 20px; font-weight: bold; margin: 0;"">Is there a person in this image?</p>
                        </div>
                    </div>","0","main_causal_task","4","the_performance_causal","","","",""
"","","","","","html-keyboard-response","100","1098312","0.0-100.0","1CA1795648564357812D28ADC8053E41","019ce7a7-35c3-76af-b330-7c7c00b3c968","019ce7a0-0965-7aa7-a556-174d32a8e773","","null","
                    <div class=""stimulus-container"">
                        <img src=""images/causal_sequence/the_performance_causal/the_performance_causal_5.png"" class=""exp-image"">
                        <div class=""question-area""></div> 
                    </div>","null","","","","","","",""
"","","","","","html-button-response","101","1099805","0.0-101.0","1CA1795648564357812D28ADC8053E41","019ce7a7-35c3-76af-b330-7c7c00b3c968","019ce7a0-0965-7aa7-a556-174d32a8e773","","1490","
                    <div class=""stimulus-container"">
                        <img src=""images/causal_sequence/the_performance_causal/the_performance_causal_5.png"" class=""exp-image"">
                        <div class=""question-area"">
                            <p style=""font-size: 20px; font-weight: bold; margin: 0;"">Is there a person in this image?</p>
                        </div>
                    </div>","0","main_causal_task","5","the_performance_causal","","","",""
"","","","","","html-keyboard-response","102","1104814","0.0-102.0","1CA1795648564357812D28ADC8053E41","019ce7a7-35c3-76af-b330-7c7c00b3c968","019ce7a0-0965-7aa7-a556-174d32a8e773","","null","
                    <div class=""stimulus-container"">
                        <img src=""images/causal_sequence/the_performance_causal/the_performance_causal_6.png"" class=""exp-image"">
                        <div class=""question-area""></div> 
                    </div>","null","","","","","","",""
"","","","","","html-button-response","103","1106132","0.0-103.0","1CA1795648564357812D28ADC8053E41","019ce7a7-35c3-76af-b330-7c7c00b3c968","019ce7a0-0965-7aa7-a556-174d32a8e773","","1314","
                    <div class=""stimulus-container"">
                        <img src=""images/causal_sequence/the_performance_causal/the_performance_causal_6.png"" class=""exp-image"">
                        <div class=""question-area"">
                            <p style=""font-size: 20px; font-weight: bold; margin: 0;"">Is there a person in this image?</p>
                        </div>
                    </div>","0","main_causal_task","6","the_performance_causal","","","",""
"","","","","","html-keyboard-response","104","1111146","0.0-104.0","1CA1795648564357812D28ADC8053E41","019ce7a7-35c3-76af-b330-7c7c00b3c968","019ce7a0-0965-7aa7-a556-174d32a8e773","","null","
                    <div class=""stimulus-container"">
                        <img src=""images/causal_sequence/the_performance_causal/the_performance_causal_7.png"" class=""exp-image"">
                        <div class=""question-area""></div> 
                    </div>","null","","","","","","",""
"","","","","","html-button-response","105","1112826","0.0-105.0","1CA1795648564357812D28ADC8053E41","019ce7a7-35c3-76af-b330-7c7c00b3c968","019ce7a0-0965-7aa7-a556-174d32a8e773","","1668","
                    <div class=""stimulus-container"">
                        <img src=""images/causal_sequence/the_performance_causal/the_performance_causal_7.png"" class=""exp-image"">
                        <div class=""question-area"">
                            <p style=""font-size: 20px; font-weight: bold; margin: 0;"">Is there a person in this image?</p>
                        </div>
                    </div>","0","main_causal_task","7","the_performance_causal","","","",""
"","","","","","html-keyboard-response","106","1117839","0.0-106.0","1CA1795648564357812D28ADC8053E41","019ce7a7-35c3-76af-b330-7c7c00b3c968","019ce7a0-0965-7aa7-a556-174d32a8e773","","null","
                    <div class=""stimulus-container"">
                        <img src=""images/causal_sequence/the_performance_causal/the_performance_causal_8.png"" class=""exp-image"">
                        <div class=""question-area""></div> 
                    </div>","null","","","","","","",""
"","","","","","html-button-response","107","1119235","0.0-107.0","1CA1795648564357812D28ADC8053E41","019ce7a7-35c3-76af-b330-7c7c00b3c968","019ce7a0-0965-7aa7-a556-174d32a8e773","","1391","
                    <div class=""stimulus-container"">
                        <img src=""images/causal_sequence/the_performance_causal/the_performance_causal_8.png"" class=""exp-image"">
                        <div class=""question-area"">
                            <p style=""font-size: 20px; font-weight: bold; margin: 0;"">Is there a person in this image?</p>
                        </div>
                    </div>","0","main_causal_task","8","the_performance_causal","","","",""
"","","","","","html-keyboard-response","108","1124239","0.0-108.0","1CA1795648564357812D28ADC8053E41","019ce7a7-35c3-76af-b330-7c7c00b3c968","019ce7a0-0965-7aa7-a556-174d32a8e773","","null","
                    <div class=""stimulus-container"">
                        <img src=""images/causal_sequence/the_performance_causal/the_performance_causal_9.png"" class=""exp-image"">
                        <div class=""question-area""></div> 
                    </div>","null","","","","","","",""
"","","","","","html-button-response","109","1125669","0.0-109.0","1CA1795648564357812D28ADC8053E41","019ce7a7-35c3-76af-b330-7c7c00b3c968","019ce7a0-0965-7aa7-a556-174d32a8e773","","1423","
                    <div class=""stimulus-container"">
                        <img src=""images/causal_sequence/the_performance_causal/the_performance_causal_9.png"" class=""exp-image"">
                        <div class=""question-area"">
                            <p style=""font-size: 20px; font-weight: bold; margin: 0;"">Is there a person in this image?</p>
                        </div>
                    </div>","0","main_causal_task","9","the_performance_causal","","","",""
"","","","","","html-keyboard-response","110","1126676","0.0-110.0","1CA1795648564357812D28ADC8053E41","019ce7a7-35c3-76af-b330-7c7c00b3c968","019ce7a0-0965-7aa7-a556-174d32a8e773","","null","<div style=""background-color: gray; width: 100vw; height: 100vh;""></div>","null","","","","","","",""
"","","","","","html-keyboard-response","111","1131678","0.0-111.0","1CA1795648564357812D28ADC8053E41","019ce7a7-35c3-76af-b330-7c7c00b3c968","019ce7a0-0965-7aa7-a556-174d32a8e773","","null","
                    <div class=""stimulus-container"">
                        <img src=""images/causal_sequence/package_causal/package_causal_1.png"" class=""exp-image"">
                        <div class=""question-area""></div> 
                    </div>","null","","","","","","",""
"","","","","","html-button-response","112","1133113","0.0-112.0","1CA1795648564357812D28ADC8053E41","019ce7a7-35c3-76af-b330-7c7c00b3c968","019ce7a0-0965-7aa7-a556-174d32a8e773","","1428","
                    <div class=""stimulus-container"">
                        <img src=""images/causal_sequence/package_causal/package_causal_1.png"" class=""exp-image"">
                        <div class=""question-area"">
                            <p style=""font-size: 20px; font-weight: bold; margin: 0;"">Is there a person in this image?</p>
                        </div>
                    </div>","0","main_causal_task","1","package_causal","","","",""
"","","","","","html-keyboard-response","113","1138120","0.0-113.0","1CA1795648564357812D28ADC8053E41","019ce7a7-35c3-76af-b330-7c7c00b3c968","019ce7a0-0965-7aa7-a556-174d32a8e773","","null","
                    <div class=""stimulus-container"">
                        <img src=""images/causal_sequence/package_causal/package_causal_2.png"" class=""exp-image"">
                        <div class=""question-area""></div> 
                    </div>","null","","","","","","",""
"","","","","","html-button-response","114","1139702","0.0-114.0","1CA1795648564357812D28ADC8053E41","019ce7a7-35c3-76af-b330-7c7c00b3c968","019ce7a0-0965-7aa7-a556-174d32a8e773","","1579","
                    <div class=""stimulus-container"">
                        <img src=""images/causal_sequence/package_causal/package_causal_2.png"" class=""exp-image"">
                        <div class=""question-area"">
                            <p style=""font-size: 20px; font-weight: bold; margin: 0;"">Is there a person in this image?</p>
                        </div>
                    </div>","0","main_causal_task","2","package_causal","","","",""
"","","","","","html-keyboard-response","115","1144705","0.0-115.0","1CA1795648564357812D28ADC8053E41","019ce7a7-35c3-76af-b330-7c7c00b3c968","019ce7a0-0965-7aa7-a556-174d32a8e773","","null","
                    <div class=""stimulus-container"">
                        <img src=""images/causal_sequence/package_causal/package_causal_3.png"" class=""exp-image"">
                        <div class=""question-area""></div> 
                    </div>","null","","","","","","",""
"","","","","","html-button-response","116","1146265","0.0-116.0","1CA1795648564357812D28ADC8053E41","019ce7a7-35c3-76af-b330-7c7c00b3c968","019ce7a0-0965-7aa7-a556-174d32a8e773","","1559","
                    <div class=""stimulus-container"">
                        <img src=""images/causal_sequence/package_causal/package_causal_3.png"" class=""exp-image"">
                        <div class=""question-area"">
                            <p style=""font-size: 20px; font-weight: bold; margin: 0;"">Is there a person in this image?</p>
                        </div>
                    </div>","0","main_causal_task","3","package_causal","","","",""
"","","","","","html-keyboard-response","117","1151278","0.0-117.0","1CA1795648564357812D28ADC8053E41","019ce7a7-35c3-76af-b330-7c7c00b3c968","019ce7a0-0965-7aa7-a556-174d32a8e773","","null","
                    <div class=""stimulus-container"">
                        <img src=""images/causal_sequence/package_causal/package_causal_4.png"" class=""exp-image"">
                        <div class=""question-area""></div> 
                    </div>","null","","","","","","",""
"","","","","","html-button-response","118","1153290","0.0-118.0","1CA1795648564357812D28ADC8053E41","019ce7a7-35c3-76af-b330-7c7c00b3c968","019ce7a0-0965-7aa7-a556-174d32a8e773","","2008","
                    <div class=""stimulus-container"">
                        <img src=""images/causal_sequence/package_causal/package_causal_4.png"" class=""exp-image"">
                        <div class=""question-area"">
                            <p style=""font-size: 20px; font-weight: bold; margin: 0;"">Is there a person in this image?</p>
                        </div>
                    </div>","1","main_causal_task","4","package_causal","","","",""
"","","","","","html-keyboard-response","119","1158301","0.0-119.0","1CA1795648564357812D28ADC8053E41","019ce7a7-35c3-76af-b330-7c7c00b3c968","019ce7a0-0965-7aa7-a556-174d32a8e773","","null","
                    <div class=""stimulus-container"">
                        <img src=""images/causal_sequence/package_causal/package_causal_5.png"" class=""exp-image"">
                        <div class=""question-area""></div> 
                    </div>","null","","","","","","",""
"","","","","","html-button-response","120","1160014","0.0-120.0","1CA1795648564357812D28ADC8053E41","019ce7a7-35c3-76af-b330-7c7c00b3c968","019ce7a0-0965-7aa7-a556-174d32a8e773","","1710","
                    <div class=""stimulus-container"">
                        <img src=""images/causal_sequence/package_causal/package_causal_5.png"" class=""exp-image"">
                        <div class=""question-area"">
                            <p style=""font-size: 20px; font-weight: bold; margin: 0;"">Is there a person in this image?</p>
                        </div>
                    </div>","0","main_causal_task","5","package_causal","","","",""
"","","","","","html-keyboard-response","121","1165029","0.0-121.0","1CA1795648564357812D28ADC8053E41","019ce7a7-35c3-76af-b330-7c7c00b3c968","019ce7a0-0965-7aa7-a556-174d32a8e773","","null","
                    <div class=""stimulus-container"">
                        <img src=""images/causal_sequence/package_causal/package_causal_6.png"" class=""exp-image"">
                        <div class=""question-area""></div> 
                    </div>","null","","","","","","",""
"","","","","","html-button-response","122","1166731","0.0-122.0","1CA1795648564357812D28ADC8053E41","019ce7a7-35c3-76af-b330-7c7c00b3c968","019ce7a0-0965-7aa7-a556-174d32a8e773","","1700","
                    <div class=""stimulus-container"">
                        <img src=""images/causal_sequence/package_causal/package_causal_6.png"" class=""exp-image"">
                        <div class=""question-area"">
                            <p style=""font-size: 20px; font-weight: bold; margin: 0;"">Is there a person in this image?</p>
                        </div>
                    </div>","0","main_causal_task","6","package_causal","","","",""
"","","","","","html-keyboard-response","123","1171749","0.0-123.0","1CA1795648564357812D28ADC8053E41","019ce7a7-35c3-76af-b330-7c7c00b3c968","019ce7a0-0965-7aa7-a556-174d32a8e773","","null","
                    <div class=""stimulus-container"">
                        <img src=""images/causal_sequence/package_causal/package_causal_7.png"" class=""exp-image"">
                        <div class=""question-area""></div> 
                    </div>","null","","","","","","",""
"","","","","","html-button-response","124","1173296","0.0-124.0","1CA1795648564357812D28ADC8053E41","019ce7a7-35c3-76af-b330-7c7c00b3c968","019ce7a0-0965-7aa7-a556-174d32a8e773","","1543","
                    <div class=""stimulus-container"">
                        <img src=""images/causal_sequence/package_causal/package_causal_7.png"" class=""exp-image"">
                        <div class=""question-area"">
                            <p style=""font-size: 20px; font-weight: bold; margin: 0;"">Is there a person in this image?</p>
                        </div>
                    </div>","0","main_causal_task","7","package_causal","","","",""
"","","","","","html-keyboard-response","125","1178312","0.0-125.0","1CA1795648564357812D28ADC8053E41","019ce7a7-35c3-76af-b330-7c7c00b3c968","019ce7a0-0965-7aa7-a556-174d32a8e773","","null","
                    <div class=""stimulus-container"">
                        <img src=""images/causal_sequence/package_causal/package_causal_8.png"" class=""exp-image"">
                        <div class=""question-area""></div> 
                    </div>","null","","","","","","",""
"","","","","","html-button-response","126","1179889","0.0-126.0","1CA1795648564357812D28ADC8053E41","019ce7a7-35c3-76af-b330-7c7c00b3c968","019ce7a0-0965-7aa7-a556-174d32a8e773","","1573","
                    <div class=""stimulus-container"">
                        <img src=""images/causal_sequence/package_causal/package_causal_8.png"" class=""exp-image"">
                        <div class=""question-area"">
                            <p style=""font-size: 20px; font-weight: bold; margin: 0;"">Is there a person in this image?</p>
                        </div>
                    </div>","0","main_causal_task","8","package_causal","","","",""
"","","","","","html-keyboard-response","127","1184894","0.0-127.0","1CA1795648564357812D28ADC8053E41","019ce7a7-35c3-76af-b330-7c7c00b3c968","019ce7a0-0965-7aa7-a556-174d32a8e773","","null","
                    <div class=""stimulus-container"">
                        <img src=""images/causal_sequence/package_causal/package_causal_9.png"" class=""exp-image"">
                        <div class=""question-area""></div> 
                    </div>","null","","","","","","",""
"","","","","","html-button-response","128","1186578","0.0-128.0","1CA1795648564357812D28ADC8053E41","019ce7a7-35c3-76af-b330-7c7c00b3c968","019ce7a0-0965-7aa7-a556-174d32a8e773","","1680","
                    <div class=""stimulus-container"">
                        <img src=""images/causal_sequence/package_causal/package_causal_9.png"" class=""exp-image"">
                        <div class=""question-area"">
                            <p style=""font-size: 20px; font-weight: bold; margin: 0;"">Is there a person in this image?</p>
                        </div>
                    </div>","0","main_causal_task","9","package_causal","","","",""
"","","","","","instructions","129","1676874","0.0-129.0","1CA1795648564357812D28ADC8053E41","019ce7a7-35c3-76af-b330-7c7c00b3c968","019ce7a0-0965-7aa7-a556-174d32a8e773","[{""page_index"":0,""viewing_time"":490268}]","490296","","","","","","","","",""
"","","","","","instructions","130","1678402","0.0-130.0","1CA1795648564357812D28ADC8053E41","019ce7a7-35c3-76af-b330-7c7c00b3c968","019ce7a0-0965-7aa7-a556-174d32a8e773","[{""page_index"":0,""viewing_time"":1524}]","1525","","","","","","","","",""
"","","","","","html-keyboard-response","131","1679418","0.0-131.0","1CA1795648564357812D28ADC8053E41","019ce7a7-35c3-76af-b330-7c7c00b3c968","019ce7a0-0965-7aa7-a556-174d32a8e773","","null","
        <div class=""stimulus-container"" style=""display: flex; align-items: center; justify-content: center; gap: 30px;"">
            <img src=""images/instructions/movie_1.png"" class=""exp-image"">
            <div style=""font-size: 40px; font-weight: bold; color: green; border: 5px solid green; padding: 25px; border-radius: 15px; background-color: #f0fff0;"">
                WORTH<br>$1
            </div>
        </div>
        <div class=""question-area""></div>","null","","","","","","",""
"","","","","","html-button-response","132","1681623","0.0-132.0","1CA1795648564357812D28ADC8053E41","019ce7a7-35c3-76af-b330-7c7c00b3c968","019ce7a0-0965-7aa7-a556-174d32a8e773","","2201","
        <div class=""stimulus-container"" style=""display: flex; align-items: center; justify-content: center; gap: 30px;"">
            <img src=""images/instructions/movie_1.png"" class=""exp-image"">
            <div style=""font-size: 40px; font-weight: bold; color: green; border: 5px solid green; padding: 25px; border-radius: 15px; background-color: #f0fff0;"">
                WORTH<br>$1
            </div>
        </div>
        <div class=""question-area"">
            <p style=""font-size: 20px; font-weight: bold; margin: 0;"">Was there a person in this image?</p>
        </div>","0","","","","","","",""
"","","","","","instructions","133","1686021","0.0-133.0","1CA1795648564357812D28ADC8053E41","019ce7a7-35c3-76af-b330-7c7c00b3c968","019ce7a0-0965-7aa7-a556-174d32a8e773","[{""page_index"":0,""viewing_time"":4391}]","4395","","","","","","","","",""
"","","","","","html-keyboard-response","134","1696037","0.0-134.0","1CA1795648564357812D28ADC8053E41","019ce7a7-35c3-76af-b330-7c7c00b3c968","019ce7a0-0965-7aa7-a556-174d32a8e773","","null","
            <div class=""stimulus-container"" style=""display: flex; align-items: center; justify-content: center; gap: 30px;"">
                <img src=""images/causal_sequence/package_causal/package_causal_6.png"" class=""exp-image"">
                <div style=""font-size: 40px; font-weight: bold; color: green; border: 5px solid green; padding: 25px; border-radius: 15px; background-color: #f0fff0;"">
                    WORTH<br>$1
                </div>
            </div>
            <div class=""question-area""></div>","null","","","","","","",""
"","","","","","html-button-response","135","1697807","0.0-135.0","1CA1795648564357812D28ADC8053E41","019ce7a7-35c3-76af-b330-7c7c00b3c968","019ce7a0-0965-7aa7-a556-174d32a8e773","","1765","
            <div class=""stimulus-container"" style=""display: flex; align-items: center; justify-content: center; gap: 30px;"">
                <img src=""images/causal_sequence/package_causal/package_causal_6.png"" class=""exp-image"">
                <div style=""font-size: 40px; font-weight: bold; color: green; border: 5px solid green; padding: 25px; border-radius: 15px; background-color: #f0fff0;"">
                    WORTH<br>$1
                </div>
            </div>
            <div class=""question-area"">
                <p style=""font-size: 20px; font-weight: bold; margin: 0;"">Was there a person in this image?</p>
            </div>","0","part2_value_learning","","package_causal","6","","",""
"","","","","","html-keyboard-response","136","1707819","0.0-136.0","1CA1795648564357812D28ADC8053E41","019ce7a7-35c3-76af-b330-7c7c00b3c968","019ce7a0-0965-7aa7-a556-174d32a8e773","","null","
            <div class=""stimulus-container"" style=""display: flex; align-items: center; justify-content: center; gap: 30px;"">
                <img src=""images/causal_sequence/dog_causal/dog_causal_5.png"" class=""exp-image"">
                <div style=""font-size: 40px; font-weight: bold; color: green; border: 5px solid green; padding: 25px; border-radius: 15px; background-color: #f0fff0;"">
                    WORTH<br>$1
                </div>
            </div>
            <div class=""question-area""></div>","null","","","","","","",""
"","","","","","html-button-response","137","1709423","0.0-137.0","1CA1795648564357812D28ADC8053E41","019ce7a7-35c3-76af-b330-7c7c00b3c968","019ce7a0-0965-7aa7-a556-174d32a8e773","","1601","
            <div class=""stimulus-container"" style=""display: flex; align-items: center; justify-content: center; gap: 30px;"">
                <img src=""images/causal_sequence/dog_causal/dog_causal_5.png"" class=""exp-image"">
                <div style=""font-size: 40px; font-weight: bold; color: green; border: 5px solid green; padding: 25px; border-radius: 15px; background-color: #f0fff0;"">
                    WORTH<br>$1
                </div>
            </div>
            <div class=""question-area"">
                <p style=""font-size: 20px; font-weight: bold; margin: 0;"">Was there a person in this image?</p>
            </div>","0","part2_value_learning","","dog_causal","5","","",""
"","","","","","html-keyboard-response","138","1719437","0.0-138.0","1CA1795648564357812D28ADC8053E41","019ce7a7-35c3-76af-b330-7c7c00b3c968","019ce7a0-0965-7aa7-a556-174d32a8e773","","null","
            <div class=""stimulus-container"" style=""display: flex; align-items: center; justify-content: center; gap: 30px;"">
                <img src=""images/causal_sequence/museum_causal/museum_causal_5.png"" class=""exp-image"">
                <div style=""font-size: 40px; font-weight: bold; color: green; border: 5px solid green; padding: 25px; border-radius: 15px; background-color: #f0fff0;"">
                    WORTH<br>$1
                </div>
            </div>
            <div class=""question-area""></div>","null","","","","","","",""
"","","","","","html-button-response","139","1721057","0.0-139.0","1CA1795648564357812D28ADC8053E41","019ce7a7-35c3-76af-b330-7c7c00b3c968","019ce7a0-0965-7aa7-a556-174d32a8e773","","1614","
            <div class=""stimulus-container"" style=""display: flex; align-items: center; justify-content: center; gap: 30px;"">
                <img src=""images/causal_sequence/museum_causal/museum_causal_5.png"" class=""exp-image"">
                <div style=""font-size: 40px; font-weight: bold; color: green; border: 5px solid green; padding: 25px; border-radius: 15px; background-color: #f0fff0;"">
                    WORTH<br>$1
                </div>
            </div>
            <div class=""question-area"">
                <p style=""font-size: 20px; font-weight: bold; margin: 0;"">Was there a person in this image?</p>
            </div>","0","part2_value_learning","","museum_causal","5","","",""
"","","","","","html-keyboard-response","140","1731072","0.0-140.0","1CA1795648564357812D28ADC8053E41","019ce7a7-35c3-76af-b330-7c7c00b3c968","019ce7a0-0965-7aa7-a556-174d32a8e773","","null","
            <div class=""stimulus-container"" style=""display: flex; align-items: center; justify-content: center; gap: 30px;"">
                <img src=""images/causal_sequence/the_performance_causal/the_performance_causal_7.png"" class=""exp-image"">
                <div style=""font-size: 40px; font-weight: bold; color: green; border: 5px solid green; padding: 25px; border-radius: 15px; background-color: #f0fff0;"">
                    WORTH<br>$1
                </div>
            </div>
            <div class=""question-area""></div>","null","","","","","","",""
"","","","","","html-button-response","141","1732191","0.0-141.0","1CA1795648564357812D28ADC8053E41","019ce7a7-35c3-76af-b330-7c7c00b3c968","019ce7a0-0965-7aa7-a556-174d32a8e773","","1112","
            <div class=""stimulus-container"" style=""display: flex; align-items: center; justify-content: center; gap: 30px;"">
                <img src=""images/causal_sequence/the_performance_causal/the_performance_causal_7.png"" class=""exp-image"">
                <div style=""font-size: 40px; font-weight: bold; color: green; border: 5px solid green; padding: 25px; border-radius: 15px; background-color: #f0fff0;"">
                    WORTH<br>$1
                </div>
            </div>
            <div class=""question-area"">
                <p style=""font-size: 20px; font-weight: bold; margin: 0;"">Was there a person in this image?</p>
            </div>","0","part2_value_learning","","the_performance_causal","7","","",""
"","","","","","html-keyboard-response","142","1742202","0.0-142.0","1CA1795648564357812D28ADC8053E41","019ce7a7-35c3-76af-b330-7c7c00b3c968","019ce7a0-0965-7aa7-a556-174d32a8e773","","null","
            <div class=""stimulus-container"" style=""display: flex; align-items: center; justify-content: center; gap: 30px;"">
                <img src=""images/causal_sequence/coin_causal/coin_causal_4.png"" class=""exp-image"">
                <div style=""font-size: 40px; font-weight: bold; color: green; border: 5px solid green; padding: 25px; border-radius: 15px; background-color: #f0fff0;"">
                    WORTH<br>$1
                </div>
            </div>
            <div class=""question-area""></div>","null","","","","","","",""
"","","","","","html-button-response","143","1743448","0.0-143.0","1CA1795648564357812D28ADC8053E41","019ce7a7-35c3-76af-b330-7c7c00b3c968","019ce7a0-0965-7aa7-a556-174d32a8e773","","1233","
            <div class=""stimulus-container"" style=""display: flex; align-items: center; justify-content: center; gap: 30px;"">
                <img src=""images/causal_sequence/coin_causal/coin_causal_4.png"" class=""exp-image"">
                <div style=""font-size: 40px; font-weight: bold; color: green; border: 5px solid green; padding: 25px; border-radius: 15px; background-color: #f0fff0;"">
                    WORTH<br>$1
                </div>
            </div>
            <div class=""question-area"">
                <p style=""font-size: 20px; font-weight: bold; margin: 0;"">Was there a person in this image?</p>
            </div>","0","part2_value_learning","","coin_causal","4","","",""
"","","","","","html-keyboard-response","144","1753466","0.0-144.0","1CA1795648564357812D28ADC8053E41","019ce7a7-35c3-76af-b330-7c7c00b3c968","019ce7a0-0965-7aa7-a556-174d32a8e773","","null","
            <div class=""stimulus-container"" style=""display: flex; align-items: center; justify-content: center; gap: 30px;"">
                <img src=""images/causal_sequence/saving_a_cat_causal/saving_a_cat_causal_3.png"" class=""exp-image"">
                <div style=""font-size: 40px; font-weight: bold; color: green; border: 5px solid green; padding: 25px; border-radius: 15px; background-color: #f0fff0;"">
                    WORTH<br>$1
                </div>
            </div>
            <div class=""question-area""></div>","null","","","","","","",""
"","","","","","html-button-response","145","1755332","0.0-145.0","1CA1795648564357812D28ADC8053E41","019ce7a7-35c3-76af-b330-7c7c00b3c968","019ce7a0-0965-7aa7-a556-174d32a8e773","","1860","
            <div class=""stimulus-container"" style=""display: flex; align-items: center; justify-content: center; gap: 30px;"">
                <img src=""images/causal_sequence/saving_a_cat_causal/saving_a_cat_causal_3.png"" class=""exp-image"">
                <div style=""font-size: 40px; font-weight: bold; color: green; border: 5px solid green; padding: 25px; border-radius: 15px; background-color: #f0fff0;"">
                    WORTH<br>$1
                </div>
            </div>
            <div class=""question-area"">
                <p style=""font-size: 20px; font-weight: bold; margin: 0;"">Was there a person in this image?</p>
            </div>","0","part2_value_learning","","saving_a_cat_causal","3","","",""
"","","","","","instructions","146","1758566","0.0-146.0","1CA1795648564357812D28ADC8053E41","019ce7a7-35c3-76af-b330-7c7c00b3c968","019ce7a0-0965-7aa7-a556-174d32a8e773","[{""page_index"":0,""viewing_time"":3231}]","3232","","","","","","","","",""
"","","","","","instructions","147","1767318","0.0-147.0","1CA1795648564357812D28ADC8053E41","019ce7a7-35c3-76af-b330-7c7c00b3c968","019ce7a0-0965-7aa7-a556-174d32a8e773","[{""page_index"":0,""viewing_time"":8750}]","8751","","","","","","","","",""
"","","","","","html-keyboard-response","148","1777332","0.0-148.0-0.0","1CA1795648564357812D28ADC8053E41","019ce7a7-35c3-76af-b330-7c7c00b3c968","019ce7a0-0965-7aa7-a556-174d32a8e773","","null","
                        <div style=""font-family: Arial; margin-bottom: 20px;""><h3>Which image is more valuable?</h3></div>
                        <div class=""stimulus-container"" style=""display: flex; width: 1100px; justify-content: center; gap: 50px;"">
                            <img src=""images/causal_sequence/the_performance_causal/the_performance_causal_5.png"" class=""exp-image"">
                            <img src=""images/causal_sequence/the_performance_causal/the_performance_causal_9.png"" class=""exp-image"">
                        </div>","null","","","","","","",""
"","","","","","html-button-response","149","1782479","0.0-148.0-1.0","1CA1795648564357812D28ADC8053E41","019ce7a7-35c3-76af-b330-7c7c00b3c968","019ce7a0-0965-7aa7-a556-174d32a8e773","","5139","
                        <div style=""font-family: Arial; margin-bottom: 20px;""><h3>Which image is more valuable?</h3></div>
                        <div class=""stimulus-container"" style=""display: flex; width: 1100px; justify-content: center; gap: 50px;"">
                            <img src=""images/causal_sequence/the_performance_causal/the_performance_causal_5.png"" class=""exp-image"">
                            <img src=""images/causal_sequence/the_performance_causal/the_performance_causal_9.png"" class=""exp-image"">
                        </div>","1","part3_final_choice","","the_performance_causal","","7","9","2"
"","","","","","html-keyboard-response","150","1792481","0.0-149.0-0.0","1CA1795648564357812D28ADC8053E41","019ce7a7-35c3-76af-b330-7c7c00b3c968","019ce7a0-0965-7aa7-a556-174d32a8e773","","null","
                        <div style=""font-family: Arial; margin-bottom: 20px;""><h3>Which image is more valuable?</h3></div>
                        <div class=""stimulus-container"" style=""display: flex; width: 1100px; justify-content: center; gap: 50px;"">
                            <img src=""images/causal_sequence/coin_causal/coin_causal_6.png"" class=""exp-image"">
                            <img src=""images/causal_sequence/coin_causal/coin_causal_2.png"" class=""exp-image"">
                        </div>","null","","","","","","",""
"","","","","","html-button-response","151","1795049","0.0-149.0-1.0","1CA1795648564357812D28ADC8053E41","019ce7a7-35c3-76af-b330-7c7c00b3c968","019ce7a0-0965-7aa7-a556-174d32a8e773","","2564","
                        <div style=""font-family: Arial; margin-bottom: 20px;""><h3>Which image is more valuable?</h3></div>
                        <div class=""stimulus-container"" style=""display: flex; width: 1100px; justify-content: center; gap: 50px;"">
                            <img src=""images/causal_sequence/coin_causal/coin_causal_6.png"" class=""exp-image"">
                            <img src=""images/causal_sequence/coin_causal/coin_causal_2.png"" class=""exp-image"">
                        </div>","1","part3_final_choice","","coin_causal","","4","2","-2"
"","","","","","html-keyboard-response","152","1805054","0.0-150.0-0.0","1CA1795648564357812D28ADC8053E41","019ce7a7-35c3-76af-b330-7c7c00b3c968","019ce7a0-0965-7aa7-a556-174d32a8e773","","null","
                        <div style=""font-family: Arial; margin-bottom: 20px;""><h3>Which image is more valuable?</h3></div>
                        <div class=""stimulus-container"" style=""display: flex; width: 1100px; justify-content: center; gap: 50px;"">
                            <img src=""images/causal_sequence/museum_causal/museum_causal_7.png"" class=""exp-image"">
                            <img src=""images/causal_sequence/museum_causal/museum_causal_3.png"" class=""exp-image"">
                        </div>","null","","","","","","",""
"","","","","","html-button-response","153","1806591","0.0-150.0-1.0","1CA1795648564357812D28ADC8053E41","019ce7a7-35c3-76af-b330-7c7c00b3c968","019ce7a0-0965-7aa7-a556-174d32a8e773","","1532","
                        <div style=""font-family: Arial; margin-bottom: 20px;""><h3>Which image is more valuable?</h3></div>
                        <div class=""stimulus-container"" style=""display: flex; width: 1100px; justify-content: center; gap: 50px;"">
                            <img src=""images/causal_sequence/museum_causal/museum_causal_7.png"" class=""exp-image"">
                            <img src=""images/causal_sequence/museum_causal/museum_causal_3.png"" class=""exp-image"">
                        </div>","0","part3_final_choice","","museum_causal","","5","7","2"
"","","","","","html-keyboard-response","154","1816600","0.0-151.0-0.0","1CA1795648564357812D28ADC8053E41","019ce7a7-35c3-76af-b330-7c7c00b3c968","019ce7a0-0965-7aa7-a556-174d32a8e773","","null","
                        <div style=""font-family: Arial; margin-bottom: 20px;""><h3>Which image is more valuable?</h3></div>
                        <div class=""stimulus-container"" style=""display: flex; width: 1100px; justify-content: center; gap: 50px;"">
                            <img src=""images/causal_sequence/dog_causal/dog_causal_3.png"" class=""exp-image"">
                            <img src=""images/causal_sequence/dog_causal/dog_causal_7.png"" class=""exp-image"">
                        </div>","null","","","","","","",""
"","","","","","html-button-response","155","1817631","0.0-151.0-1.0","1CA1795648564357812D28ADC8053E41","019ce7a7-35c3-76af-b330-7c7c00b3c968","019ce7a0-0965-7aa7-a556-174d32a8e773","","1026","
                        <div style=""font-family: Arial; margin-bottom: 20px;""><h3>Which image is more valuable?</h3></div>
                        <div class=""stimulus-container"" style=""display: flex; width: 1100px; justify-content: center; gap: 50px;"">
                            <img src=""images/causal_sequence/dog_causal/dog_causal_3.png"" class=""exp-image"">
                            <img src=""images/causal_sequence/dog_causal/dog_causal_7.png"" class=""exp-image"">
                        </div>","1","part3_final_choice","","dog_causal","","5","7","2"
"","","","","","html-keyboard-response","156","1827644","0.0-152.0-0.0","1CA1795648564357812D28ADC8053E41","019ce7a7-35c3-76af-b330-7c7c00b3c968","019ce7a0-0965-7aa7-a556-174d32a8e773","","null","
                        <div style=""font-family: Arial; margin-bottom: 20px;""><h3>Which image is more valuable?</h3></div>
                        <div class=""stimulus-container"" style=""display: flex; width: 1100px; justify-content: center; gap: 50px;"">
                            <img src=""images/causal_sequence/saving_a_cat_causal/saving_a_cat_causal_5.png"" class=""exp-image"">
                            <img src=""images/causal_sequence/saving_a_cat_causal/saving_a_cat_causal_1.png"" class=""exp-image"">
                        </div>","null","","","","","","",""
"","","","","","html-button-response","157","1829516","0.0-152.0-1.0","1CA1795648564357812D28ADC8053E41","019ce7a7-35c3-76af-b330-7c7c00b3c968","019ce7a0-0965-7aa7-a556-174d32a8e773","","1867","
                        <div style=""font-family: Arial; margin-bottom: 20px;""><h3>Which image is more valuable?</h3></div>
                        <div class=""stimulus-container"" style=""display: flex; width: 1100px; justify-content: center; gap: 50px;"">
                            <img src=""images/causal_sequence/saving_a_cat_causal/saving_a_cat_causal_5.png"" class=""exp-image"">
                            <img src=""images/causal_sequence/saving_a_cat_causal/saving_a_cat_causal_1.png"" class=""exp-image"">
                        </div>","0","part3_final_choice","","saving_a_cat_causal","","3","5","2"
"","","","","","html-keyboard-response","158","1839519","0.0-153.0-0.0","1CA1795648564357812D28ADC8053E41","019ce7a7-35c3-76af-b330-7c7c00b3c968","019ce7a0-0965-7aa7-a556-174d32a8e773","","null","
                        <div style=""font-family: Arial; margin-bottom: 20px;""><h3>Which image is more valuable?</h3></div>
                        <div class=""stimulus-container"" style=""display: flex; width: 1100px; justify-content: center; gap: 50px;"">
                            <img src=""images/causal_sequence/package_causal/package_causal_4.png"" class=""exp-image"">
                            <img src=""images/causal_sequence/package_causal/package_causal_8.png"" class=""exp-image"">
                        </div>","null","","","","","","",""
"","","","","","html-button-response","159","1840881","0.0-153.0-1.0","1CA1795648564357812D28ADC8053E41","019ce7a7-35c3-76af-b330-7c7c00b3c968","019ce7a0-0965-7aa7-a556-174d32a8e773","","1356","
                        <div style=""font-family: Arial; margin-bottom: 20px;""><h3>Which image is more valuable?</h3></div>
                        <div class=""stimulus-container"" style=""display: flex; width: 1100px; justify-content: center; gap: 50px;"">
                            <img src=""images/causal_sequence/package_causal/package_causal_4.png"" class=""exp-image"">
                            <img src=""images/causal_sequence/package_causal/package_causal_8.png"" class=""exp-image"">
                        </div>","1","part3_final_choice","","package_causal","","6","8","2"
"","","","","","survey-text","160","2006023","0.0-154.0","1CA1795648564357812D28ADC8053E41","019ce7a7-35c3-76af-b330-7c7c00b3c968","019ce7a0-0965-7aa7-a556-174d32a8e773","","165116","","{""gender"":""Male"",""age"":""31"",""decision_strategy"":""most important image"",""consistency_check"":""I would change my thinking based on the details and context of each image pair. I’d look at visual clues or attributes that suggest higher value, using what I've learned from past examples. My decision-making involves applying the same basic idea—spotting signs of value—but adjusting to fit each unique set of images instead of following a strict rule. This way, I can better understand what's in front of me and have a better chance at picking out which image is more valuable in every situation.""}","demographics_and_strategy","","","","","",""
"","","","","","instructions","161","2018260","0.0-155.0","1CA1795648564357812D28ADC8053E41","019ce7a7-35c3-76af-b330-7c7c00b3c968","019ce7a0-0965-7aa7-a556-174d32a8e773","[{""page_index"":0,""viewing_time"":12231}]","12236","","","","","","","","",""
