"success","timeout","failed_images","failed_audio","failed_video","trial_type","trial_index","time_elapsed","internal_node_id","subject_id","study_id","session_id","view_history","rt","stimulus","response","task","image_index","folder","valuable_image_index","valuable_X","chosen_image_index","distance_from_X"
"false","false","[]","[]","[]","preload","0","2686","0.0-0.0","0956CF464AD845D38024138ABE179627","019ce76a-6dcf-7619-b03d-86c41c553802","019ce768-b048-7627-b827-888248f65c31","","","","","","","","","","",""
"","","","","","instructions","1","5750","0.0-1.0","0956CF464AD845D38024138ABE179627","019ce76a-6dcf-7619-b03d-86c41c553802","019ce768-b048-7627-b827-888248f65c31","[{""page_index"":0,""viewing_time"":3061}]","3062","","","","","","","","",""
"","","","","","instructions","2","10481","0.0-2.0","0956CF464AD845D38024138ABE179627","019ce76a-6dcf-7619-b03d-86c41c553802","019ce768-b048-7627-b827-888248f65c31","[{""page_index"":0,""viewing_time"":4730}]","4730","","","","","","","","",""
"true","","","","","fullscreen","3","12951","0.0-3.0","0956CF464AD845D38024138ABE179627","019ce76a-6dcf-7619-b03d-86c41c553802","019ce768-b048-7627-b827-888248f65c31","","1467","","","","","","","","",""
"","","","","","instructions","4","20218","0.0-4.0","0956CF464AD845D38024138ABE179627","019ce76a-6dcf-7619-b03d-86c41c553802","019ce768-b048-7627-b827-888248f65c31","[{""page_index"":0,""viewing_time"":7265}]","7266","","","","","","","","",""
"","","","","","instructions","5","28517","0.0-5.0","0956CF464AD845D38024138ABE179627","019ce76a-6dcf-7619-b03d-86c41c553802","019ce768-b048-7627-b827-888248f65c31","[{""page_index"":0,""viewing_time"":8298}]","8298","","","","","","","","",""
"","","","","","html-keyboard-response","6","32519","0.0-6.0","0956CF464AD845D38024138ABE179627","019ce76a-6dcf-7619-b03d-86c41c553802","019ce768-b048-7627-b827-888248f65c31","","null","
                <div class=""stimulus-container"">
                    <img src=""images/instructions/movie_1.png"" class=""exp-image"">
                    <div class=""question-area""></div> 
                </div>","null","","","","","","",""
"","","","","","html-button-response","7","34234","0.0-7.0","0956CF464AD845D38024138ABE179627","019ce76a-6dcf-7619-b03d-86c41c553802","019ce768-b048-7627-b827-888248f65c31","","1712","
                <div class=""stimulus-container"">
                    <img src=""images/instructions/movie_1.png"" class=""exp-image"">
                    <div class=""question-area"">
                        <p style=""font-size: 20px; font-weight: bold; margin: 0;"">Was there a person in this image?</p>
                    </div>
                </div>","0","example_question","1","","","","",""
"","","","","","html-keyboard-response","8","38237","0.0-8.0","0956CF464AD845D38024138ABE179627","019ce76a-6dcf-7619-b03d-86c41c553802","019ce768-b048-7627-b827-888248f65c31","","null","
                <div class=""stimulus-container"">
                    <img src=""images/instructions/movie_2.png"" class=""exp-image"">
                    <div class=""question-area""></div> 
                </div>","null","","","","","","",""
"","","","","","html-button-response","9","39100","0.0-9.0","0956CF464AD845D38024138ABE179627","019ce76a-6dcf-7619-b03d-86c41c553802","019ce768-b048-7627-b827-888248f65c31","","862","
                <div class=""stimulus-container"">
                    <img src=""images/instructions/movie_2.png"" class=""exp-image"">
                    <div class=""question-area"">
                        <p style=""font-size: 20px; font-weight: bold; margin: 0;"">Was there a person in this image?</p>
                    </div>
                </div>","0","example_question","2","","","","",""
"","","","","","html-keyboard-response","10","43104","0.0-10.0","0956CF464AD845D38024138ABE179627","019ce76a-6dcf-7619-b03d-86c41c553802","019ce768-b048-7627-b827-888248f65c31","","null","
                <div class=""stimulus-container"">
                    <img src=""images/instructions/movie_3.png"" class=""exp-image"">
                    <div class=""question-area""></div> 
                </div>","null","","","","","","",""
"","","","","","html-button-response","11","43934","0.0-11.0","0956CF464AD845D38024138ABE179627","019ce76a-6dcf-7619-b03d-86c41c553802","019ce768-b048-7627-b827-888248f65c31","","829","
                <div class=""stimulus-container"">
                    <img src=""images/instructions/movie_3.png"" class=""exp-image"">
                    <div class=""question-area"">
                        <p style=""font-size: 20px; font-weight: bold; margin: 0;"">Was there a person in this image?</p>
                    </div>
                </div>","0","example_question","3","","","","",""
"","","","","","html-keyboard-response","12","47936","0.0-12.0","0956CF464AD845D38024138ABE179627","019ce76a-6dcf-7619-b03d-86c41c553802","019ce768-b048-7627-b827-888248f65c31","","null","
                <div class=""stimulus-container"">
                    <img src=""images/instructions/movie_4.png"" class=""exp-image"">
                    <div class=""question-area""></div> 
                </div>","null","","","","","","",""
"","","","","","html-button-response","13","49684","0.0-13.0","0956CF464AD845D38024138ABE179627","019ce76a-6dcf-7619-b03d-86c41c553802","019ce768-b048-7627-b827-888248f65c31","","1747","
                <div class=""stimulus-container"">
                    <img src=""images/instructions/movie_4.png"" class=""exp-image"">
                    <div class=""question-area"">
                        <p style=""font-size: 20px; font-weight: bold; margin: 0;"">Was there a person in this image?</p>
                    </div>
                </div>","0","example_question","4","","","","",""
"","","","","","instructions","14","51150","0.0-14.0","0956CF464AD845D38024138ABE179627","019ce76a-6dcf-7619-b03d-86c41c553802","019ce768-b048-7627-b827-888248f65c31","[{""page_index"":0,""viewing_time"":1465}]","1466","","","","","","","","",""
"","","","","","html-keyboard-response","15","52152","0.0-15.0","0956CF464AD845D38024138ABE179627","019ce76a-6dcf-7619-b03d-86c41c553802","019ce768-b048-7627-b827-888248f65c31","","null","<div style=""background-color: gray; width: 100vw; height: 100vh;""></div>","null","","","","","","",""
"","","","","","html-keyboard-response","16","57154","0.0-16.0","0956CF464AD845D38024138ABE179627","019ce76a-6dcf-7619-b03d-86c41c553802","019ce768-b048-7627-b827-888248f65c31","","null","
                    <div class=""stimulus-container"">
                        <img src=""images/causal_sequence/saving_a_cat_causal/saving_a_cat_causal_1.png"" class=""exp-image"">
                        <div class=""question-area""></div> 
                    </div>","null","","","","","","",""
"","","","","","html-button-response","17","58667","0.0-17.0","0956CF464AD845D38024138ABE179627","019ce76a-6dcf-7619-b03d-86c41c553802","019ce768-b048-7627-b827-888248f65c31","","1512","
                    <div class=""stimulus-container"">
                        <img src=""images/causal_sequence/saving_a_cat_causal/saving_a_cat_causal_1.png"" class=""exp-image"">
                        <div class=""question-area"">
                            <p style=""font-size: 20px; font-weight: bold; margin: 0;"">Is there a person in this image?</p>
                        </div>
                    </div>","0","main_causal_task","1","saving_a_cat_causal","","","",""
"","","","","","html-keyboard-response","18","63670","0.0-18.0","0956CF464AD845D38024138ABE179627","019ce76a-6dcf-7619-b03d-86c41c553802","019ce768-b048-7627-b827-888248f65c31","","null","
                    <div class=""stimulus-container"">
                        <img src=""images/causal_sequence/saving_a_cat_causal/saving_a_cat_causal_2.png"" class=""exp-image"">
                        <div class=""question-area""></div> 
                    </div>","null","","","","","","",""
"","","","","","html-button-response","19","64652","0.0-19.0","0956CF464AD845D38024138ABE179627","019ce76a-6dcf-7619-b03d-86c41c553802","019ce768-b048-7627-b827-888248f65c31","","981","
                    <div class=""stimulus-container"">
                        <img src=""images/causal_sequence/saving_a_cat_causal/saving_a_cat_causal_2.png"" class=""exp-image"">
                        <div class=""question-area"">
                            <p style=""font-size: 20px; font-weight: bold; margin: 0;"">Is there a person in this image?</p>
                        </div>
                    </div>","1","main_causal_task","2","saving_a_cat_causal","","","",""
"","","","","","html-keyboard-response","20","69655","0.0-20.0","0956CF464AD845D38024138ABE179627","019ce76a-6dcf-7619-b03d-86c41c553802","019ce768-b048-7627-b827-888248f65c31","","null","
                    <div class=""stimulus-container"">
                        <img src=""images/causal_sequence/saving_a_cat_causal/saving_a_cat_causal_3.png"" class=""exp-image"">
                        <div class=""question-area""></div> 
                    </div>","null","","","","","","",""
"","","","","","html-button-response","21","70951","0.0-21.0","0956CF464AD845D38024138ABE179627","019ce76a-6dcf-7619-b03d-86c41c553802","019ce768-b048-7627-b827-888248f65c31","","1294","
                    <div class=""stimulus-container"">
                        <img src=""images/causal_sequence/saving_a_cat_causal/saving_a_cat_causal_3.png"" class=""exp-image"">
                        <div class=""question-area"">
                            <p style=""font-size: 20px; font-weight: bold; margin: 0;"">Is there a person in this image?</p>
                        </div>
                    </div>","1","main_causal_task","3","saving_a_cat_causal","","","",""
"","","","","","html-keyboard-response","22","75953","0.0-22.0","0956CF464AD845D38024138ABE179627","019ce76a-6dcf-7619-b03d-86c41c553802","019ce768-b048-7627-b827-888248f65c31","","null","
                    <div class=""stimulus-container"">
                        <img src=""images/causal_sequence/saving_a_cat_causal/saving_a_cat_causal_4.png"" class=""exp-image"">
                        <div class=""question-area""></div> 
                    </div>","null","","","","","","",""
"","","","","","html-button-response","23","76868","0.0-23.0","0956CF464AD845D38024138ABE179627","019ce76a-6dcf-7619-b03d-86c41c553802","019ce768-b048-7627-b827-888248f65c31","","913","
                    <div class=""stimulus-container"">
                        <img src=""images/causal_sequence/saving_a_cat_causal/saving_a_cat_causal_4.png"" class=""exp-image"">
                        <div class=""question-area"">
                            <p style=""font-size: 20px; font-weight: bold; margin: 0;"">Is there a person in this image?</p>
                        </div>
                    </div>","0","main_causal_task","4","saving_a_cat_causal","","","",""
"","","","","","html-keyboard-response","24","81870","0.0-24.0","0956CF464AD845D38024138ABE179627","019ce76a-6dcf-7619-b03d-86c41c553802","019ce768-b048-7627-b827-888248f65c31","","null","
                    <div class=""stimulus-container"">
                        <img src=""images/causal_sequence/saving_a_cat_causal/saving_a_cat_causal_5.png"" class=""exp-image"">
                        <div class=""question-area""></div> 
                    </div>","null","","","","","","",""
"","","","","","html-button-response","25","83201","0.0-25.0","0956CF464AD845D38024138ABE179627","019ce76a-6dcf-7619-b03d-86c41c553802","019ce768-b048-7627-b827-888248f65c31","","1329","
                    <div class=""stimulus-container"">
                        <img src=""images/causal_sequence/saving_a_cat_causal/saving_a_cat_causal_5.png"" class=""exp-image"">
                        <div class=""question-area"">
                            <p style=""font-size: 20px; font-weight: bold; margin: 0;"">Is there a person in this image?</p>
                        </div>
                    </div>","0","main_causal_task","5","saving_a_cat_causal","","","",""
"","","","","","html-keyboard-response","26","88203","0.0-26.0","0956CF464AD845D38024138ABE179627","019ce76a-6dcf-7619-b03d-86c41c553802","019ce768-b048-7627-b827-888248f65c31","","null","
                    <div class=""stimulus-container"">
                        <img src=""images/causal_sequence/saving_a_cat_causal/saving_a_cat_causal_6.png"" class=""exp-image"">
                        <div class=""question-area""></div> 
                    </div>","null","","","","","","",""
"","","","","","html-button-response","27","89586","0.0-27.0","0956CF464AD845D38024138ABE179627","019ce76a-6dcf-7619-b03d-86c41c553802","019ce768-b048-7627-b827-888248f65c31","","1381","
                    <div class=""stimulus-container"">
                        <img src=""images/causal_sequence/saving_a_cat_causal/saving_a_cat_causal_6.png"" class=""exp-image"">
                        <div class=""question-area"">
                            <p style=""font-size: 20px; font-weight: bold; margin: 0;"">Is there a person in this image?</p>
                        </div>
                    </div>","0","main_causal_task","6","saving_a_cat_causal","","","",""
"","","","","","html-keyboard-response","28","94588","0.0-28.0","0956CF464AD845D38024138ABE179627","019ce76a-6dcf-7619-b03d-86c41c553802","019ce768-b048-7627-b827-888248f65c31","","null","
                    <div class=""stimulus-container"">
                        <img src=""images/causal_sequence/saving_a_cat_causal/saving_a_cat_causal_7.png"" class=""exp-image"">
                        <div class=""question-area""></div> 
                    </div>","null","","","","","","",""
"","","","","","html-button-response","29","95352","0.0-29.0","0956CF464AD845D38024138ABE179627","019ce76a-6dcf-7619-b03d-86c41c553802","019ce768-b048-7627-b827-888248f65c31","","763","
                    <div class=""stimulus-container"">
                        <img src=""images/causal_sequence/saving_a_cat_causal/saving_a_cat_causal_7.png"" class=""exp-image"">
                        <div class=""question-area"">
                            <p style=""font-size: 20px; font-weight: bold; margin: 0;"">Is there a person in this image?</p>
                        </div>
                    </div>","0","main_causal_task","7","saving_a_cat_causal","","","",""
"","","","","","html-keyboard-response","30","100355","0.0-30.0","0956CF464AD845D38024138ABE179627","019ce76a-6dcf-7619-b03d-86c41c553802","019ce768-b048-7627-b827-888248f65c31","","null","
                    <div class=""stimulus-container"">
                        <img src=""images/causal_sequence/saving_a_cat_causal/saving_a_cat_causal_8.png"" class=""exp-image"">
                        <div class=""question-area""></div> 
                    </div>","null","","","","","","",""
"","","","","","html-button-response","31","101117","0.0-31.0","0956CF464AD845D38024138ABE179627","019ce76a-6dcf-7619-b03d-86c41c553802","019ce768-b048-7627-b827-888248f65c31","","761","
                    <div class=""stimulus-container"">
                        <img src=""images/causal_sequence/saving_a_cat_causal/saving_a_cat_causal_8.png"" class=""exp-image"">
                        <div class=""question-area"">
                            <p style=""font-size: 20px; font-weight: bold; margin: 0;"">Is there a person in this image?</p>
                        </div>
                    </div>","0","main_causal_task","8","saving_a_cat_causal","","","",""
"","","","","","html-keyboard-response","32","106119","0.0-32.0","0956CF464AD845D38024138ABE179627","019ce76a-6dcf-7619-b03d-86c41c553802","019ce768-b048-7627-b827-888248f65c31","","null","
                    <div class=""stimulus-container"">
                        <img src=""images/causal_sequence/saving_a_cat_causal/saving_a_cat_causal_9.png"" class=""exp-image"">
                        <div class=""question-area""></div> 
                    </div>","null","","","","","","",""
"","","","","","html-button-response","33","106819","0.0-33.0","0956CF464AD845D38024138ABE179627","019ce76a-6dcf-7619-b03d-86c41c553802","019ce768-b048-7627-b827-888248f65c31","","699","
                    <div class=""stimulus-container"">
                        <img src=""images/causal_sequence/saving_a_cat_causal/saving_a_cat_causal_9.png"" class=""exp-image"">
                        <div class=""question-area"">
                            <p style=""font-size: 20px; font-weight: bold; margin: 0;"">Is there a person in this image?</p>
                        </div>
                    </div>","0","main_causal_task","9","saving_a_cat_causal","","","",""
"","","","","","html-keyboard-response","34","107821","0.0-34.0","0956CF464AD845D38024138ABE179627","019ce76a-6dcf-7619-b03d-86c41c553802","019ce768-b048-7627-b827-888248f65c31","","null","<div style=""background-color: gray; width: 100vw; height: 100vh;""></div>","null","","","","","","",""
"","","","","","html-keyboard-response","35","112823","0.0-35.0","0956CF464AD845D38024138ABE179627","019ce76a-6dcf-7619-b03d-86c41c553802","019ce768-b048-7627-b827-888248f65c31","","null","
                    <div class=""stimulus-container"">
                        <img src=""images/causal_sequence/package_causal/package_causal_1.png"" class=""exp-image"">
                        <div class=""question-area""></div> 
                    </div>","null","","","","","","",""
"","","","","","html-button-response","36","113853","0.0-36.0","0956CF464AD845D38024138ABE179627","019ce76a-6dcf-7619-b03d-86c41c553802","019ce768-b048-7627-b827-888248f65c31","","1028","
                    <div class=""stimulus-container"">
                        <img src=""images/causal_sequence/package_causal/package_causal_1.png"" class=""exp-image"">
                        <div class=""question-area"">
                            <p style=""font-size: 20px; font-weight: bold; margin: 0;"">Is there a person in this image?</p>
                        </div>
                    </div>","0","main_causal_task","1","package_causal","","","",""
"","","","","","html-keyboard-response","37","118855","0.0-37.0","0956CF464AD845D38024138ABE179627","019ce76a-6dcf-7619-b03d-86c41c553802","019ce768-b048-7627-b827-888248f65c31","","null","
                    <div class=""stimulus-container"">
                        <img src=""images/causal_sequence/package_causal/package_causal_2.png"" class=""exp-image"">
                        <div class=""question-area""></div> 
                    </div>","null","","","","","","",""
"","","","","","html-button-response","38","119700","0.0-38.0","0956CF464AD845D38024138ABE179627","019ce76a-6dcf-7619-b03d-86c41c553802","019ce768-b048-7627-b827-888248f65c31","","844","
                    <div class=""stimulus-container"">
                        <img src=""images/causal_sequence/package_causal/package_causal_2.png"" class=""exp-image"">
                        <div class=""question-area"">
                            <p style=""font-size: 20px; font-weight: bold; margin: 0;"">Is there a person in this image?</p>
                        </div>
                    </div>","0","main_causal_task","2","package_causal","","","",""
"","","","","","html-keyboard-response","39","124703","0.0-39.0","0956CF464AD845D38024138ABE179627","019ce76a-6dcf-7619-b03d-86c41c553802","019ce768-b048-7627-b827-888248f65c31","","null","
                    <div class=""stimulus-container"">
                        <img src=""images/causal_sequence/package_causal/package_causal_3.png"" class=""exp-image"">
                        <div class=""question-area""></div> 
                    </div>","null","","","","","","",""
"","","","","","html-button-response","40","125667","0.0-40.0","0956CF464AD845D38024138ABE179627","019ce76a-6dcf-7619-b03d-86c41c553802","019ce768-b048-7627-b827-888248f65c31","","963","
                    <div class=""stimulus-container"">
                        <img src=""images/causal_sequence/package_causal/package_causal_3.png"" class=""exp-image"">
                        <div class=""question-area"">
                            <p style=""font-size: 20px; font-weight: bold; margin: 0;"">Is there a person in this image?</p>
                        </div>
                    </div>","0","main_causal_task","3","package_causal","","","",""
"","","","","","html-keyboard-response","41","130670","0.0-41.0","0956CF464AD845D38024138ABE179627","019ce76a-6dcf-7619-b03d-86c41c553802","019ce768-b048-7627-b827-888248f65c31","","null","
                    <div class=""stimulus-container"">
                        <img src=""images/causal_sequence/package_causal/package_causal_4.png"" class=""exp-image"">
                        <div class=""question-area""></div> 
                    </div>","null","","","","","","",""
"","","","","","html-button-response","42","131984","0.0-42.0","0956CF464AD845D38024138ABE179627","019ce76a-6dcf-7619-b03d-86c41c553802","019ce768-b048-7627-b827-888248f65c31","","1314","
                    <div class=""stimulus-container"">
                        <img src=""images/causal_sequence/package_causal/package_causal_4.png"" class=""exp-image"">
                        <div class=""question-area"">
                            <p style=""font-size: 20px; font-weight: bold; margin: 0;"">Is there a person in this image?</p>
                        </div>
                    </div>","0","main_causal_task","4","package_causal","","","",""
"","","","","","html-keyboard-response","43","136987","0.0-43.0","0956CF464AD845D38024138ABE179627","019ce76a-6dcf-7619-b03d-86c41c553802","019ce768-b048-7627-b827-888248f65c31","","null","
                    <div class=""stimulus-container"">
                        <img src=""images/causal_sequence/package_causal/package_causal_5.png"" class=""exp-image"">
                        <div class=""question-area""></div> 
                    </div>","null","","","","","","",""
"","","","","","html-button-response","44","139250","0.0-44.0","0956CF464AD845D38024138ABE179627","019ce76a-6dcf-7619-b03d-86c41c553802","019ce768-b048-7627-b827-888248f65c31","","2262","
                    <div class=""stimulus-container"">
                        <img src=""images/causal_sequence/package_causal/package_causal_5.png"" class=""exp-image"">
                        <div class=""question-area"">
                            <p style=""font-size: 20px; font-weight: bold; margin: 0;"">Is there a person in this image?</p>
                        </div>
                    </div>","0","main_causal_task","5","package_causal","","","",""
"","","","","","html-keyboard-response","45","144252","0.0-45.0","0956CF464AD845D38024138ABE179627","019ce76a-6dcf-7619-b03d-86c41c553802","019ce768-b048-7627-b827-888248f65c31","","null","
                    <div class=""stimulus-container"">
                        <img src=""images/causal_sequence/package_causal/package_causal_6.png"" class=""exp-image"">
                        <div class=""question-area""></div> 
                    </div>","null","","","","","","",""
"","","","","","html-button-response","46","145501","0.0-46.0","0956CF464AD845D38024138ABE179627","019ce76a-6dcf-7619-b03d-86c41c553802","019ce768-b048-7627-b827-888248f65c31","","1247","
                    <div class=""stimulus-container"">
                        <img src=""images/causal_sequence/package_causal/package_causal_6.png"" class=""exp-image"">
                        <div class=""question-area"">
                            <p style=""font-size: 20px; font-weight: bold; margin: 0;"">Is there a person in this image?</p>
                        </div>
                    </div>","0","main_causal_task","6","package_causal","","","",""
"","","","","","html-keyboard-response","47","150504","0.0-47.0","0956CF464AD845D38024138ABE179627","019ce76a-6dcf-7619-b03d-86c41c553802","019ce768-b048-7627-b827-888248f65c31","","null","
                    <div class=""stimulus-container"">
                        <img src=""images/causal_sequence/package_causal/package_causal_7.png"" class=""exp-image"">
                        <div class=""question-area""></div> 
                    </div>","null","","","","","","",""
"","","","","","html-button-response","48","151385","0.0-48.0","0956CF464AD845D38024138ABE179627","019ce76a-6dcf-7619-b03d-86c41c553802","019ce768-b048-7627-b827-888248f65c31","","880","
                    <div class=""stimulus-container"">
                        <img src=""images/causal_sequence/package_causal/package_causal_7.png"" class=""exp-image"">
                        <div class=""question-area"">
                            <p style=""font-size: 20px; font-weight: bold; margin: 0;"">Is there a person in this image?</p>
                        </div>
                    </div>","0","main_causal_task","7","package_causal","","","",""
"","","","","","html-keyboard-response","49","156388","0.0-49.0","0956CF464AD845D38024138ABE179627","019ce76a-6dcf-7619-b03d-86c41c553802","019ce768-b048-7627-b827-888248f65c31","","null","
                    <div class=""stimulus-container"">
                        <img src=""images/causal_sequence/package_causal/package_causal_8.png"" class=""exp-image"">
                        <div class=""question-area""></div> 
                    </div>","null","","","","","","",""
"","","","","","html-button-response","50","157200","0.0-50.0","0956CF464AD845D38024138ABE179627","019ce76a-6dcf-7619-b03d-86c41c553802","019ce768-b048-7627-b827-888248f65c31","","811","
                    <div class=""stimulus-container"">
                        <img src=""images/causal_sequence/package_causal/package_causal_8.png"" class=""exp-image"">
                        <div class=""question-area"">
                            <p style=""font-size: 20px; font-weight: bold; margin: 0;"">Is there a person in this image?</p>
                        </div>
                    </div>","0","main_causal_task","8","package_causal","","","",""
"","","","","","html-keyboard-response","51","162201","0.0-51.0","0956CF464AD845D38024138ABE179627","019ce76a-6dcf-7619-b03d-86c41c553802","019ce768-b048-7627-b827-888248f65c31","","null","
                    <div class=""stimulus-container"">
                        <img src=""images/causal_sequence/package_causal/package_causal_9.png"" class=""exp-image"">
                        <div class=""question-area""></div> 
                    </div>","null","","","","","","",""
"","","","","","html-button-response","52","163018","0.0-52.0","0956CF464AD845D38024138ABE179627","019ce76a-6dcf-7619-b03d-86c41c553802","019ce768-b048-7627-b827-888248f65c31","","816","
                    <div class=""stimulus-container"">
                        <img src=""images/causal_sequence/package_causal/package_causal_9.png"" class=""exp-image"">
                        <div class=""question-area"">
                            <p style=""font-size: 20px; font-weight: bold; margin: 0;"">Is there a person in this image?</p>
                        </div>
                    </div>","0","main_causal_task","9","package_causal","","","",""
"","","","","","html-keyboard-response","53","164020","0.0-53.0","0956CF464AD845D38024138ABE179627","019ce76a-6dcf-7619-b03d-86c41c553802","019ce768-b048-7627-b827-888248f65c31","","null","<div style=""background-color: gray; width: 100vw; height: 100vh;""></div>","null","","","","","","",""
"","","","","","html-keyboard-response","54","169023","0.0-54.0","0956CF464AD845D38024138ABE179627","019ce76a-6dcf-7619-b03d-86c41c553802","019ce768-b048-7627-b827-888248f65c31","","null","
                    <div class=""stimulus-container"">
                        <img src=""images/causal_sequence/museum_causal/museum_causal_1.png"" class=""exp-image"">
                        <div class=""question-area""></div> 
                    </div>","null","","","","","","",""
"","","","","","html-button-response","55","170150","0.0-55.0","0956CF464AD845D38024138ABE179627","019ce76a-6dcf-7619-b03d-86c41c553802","019ce768-b048-7627-b827-888248f65c31","","1126","
                    <div class=""stimulus-container"">
                        <img src=""images/causal_sequence/museum_causal/museum_causal_1.png"" class=""exp-image"">
                        <div class=""question-area"">
                            <p style=""font-size: 20px; font-weight: bold; margin: 0;"">Is there a person in this image?</p>
                        </div>
                    </div>","0","main_causal_task","1","museum_causal","","","",""
"","","","","","html-keyboard-response","56","175153","0.0-56.0","0956CF464AD845D38024138ABE179627","019ce76a-6dcf-7619-b03d-86c41c553802","019ce768-b048-7627-b827-888248f65c31","","null","
                    <div class=""stimulus-container"">
                        <img src=""images/causal_sequence/museum_causal/museum_causal_2.png"" class=""exp-image"">
                        <div class=""question-area""></div> 
                    </div>","null","","","","","","",""
"","","","","","html-button-response","57","175884","0.0-57.0","0956CF464AD845D38024138ABE179627","019ce76a-6dcf-7619-b03d-86c41c553802","019ce768-b048-7627-b827-888248f65c31","","729","
                    <div class=""stimulus-container"">
                        <img src=""images/causal_sequence/museum_causal/museum_causal_2.png"" class=""exp-image"">
                        <div class=""question-area"">
                            <p style=""font-size: 20px; font-weight: bold; margin: 0;"">Is there a person in this image?</p>
                        </div>
                    </div>","0","main_causal_task","2","museum_causal","","","",""
"","","","","","html-keyboard-response","58","180886","0.0-58.0","0956CF464AD845D38024138ABE179627","019ce76a-6dcf-7619-b03d-86c41c553802","019ce768-b048-7627-b827-888248f65c31","","null","
                    <div class=""stimulus-container"">
                        <img src=""images/causal_sequence/museum_causal/museum_causal_3.png"" class=""exp-image"">
                        <div class=""question-area""></div> 
                    </div>","null","","","","","","",""
"","","","","","html-button-response","59","181750","0.0-59.0","0956CF464AD845D38024138ABE179627","019ce76a-6dcf-7619-b03d-86c41c553802","019ce768-b048-7627-b827-888248f65c31","","863","
                    <div class=""stimulus-container"">
                        <img src=""images/causal_sequence/museum_causal/museum_causal_3.png"" class=""exp-image"">
                        <div class=""question-area"">
                            <p style=""font-size: 20px; font-weight: bold; margin: 0;"">Is there a person in this image?</p>
                        </div>
                    </div>","0","main_causal_task","3","museum_causal","","","",""
"","","","","","html-keyboard-response","60","186753","0.0-60.0","0956CF464AD845D38024138ABE179627","019ce76a-6dcf-7619-b03d-86c41c553802","019ce768-b048-7627-b827-888248f65c31","","null","
                    <div class=""stimulus-container"">
                        <img src=""images/causal_sequence/museum_causal/museum_causal_4.png"" class=""exp-image"">
                        <div class=""question-area""></div> 
                    </div>","null","","","","","","",""
"","","","","","html-button-response","61","187484","0.0-61.0","0956CF464AD845D38024138ABE179627","019ce76a-6dcf-7619-b03d-86c41c553802","019ce768-b048-7627-b827-888248f65c31","","729","
                    <div class=""stimulus-container"">
                        <img src=""images/causal_sequence/museum_causal/museum_causal_4.png"" class=""exp-image"">
                        <div class=""question-area"">
                            <p style=""font-size: 20px; font-weight: bold; margin: 0;"">Is there a person in this image?</p>
                        </div>
                    </div>","1","main_causal_task","4","museum_causal","","","",""
"","","","","","html-keyboard-response","62","192486","0.0-62.0","0956CF464AD845D38024138ABE179627","019ce76a-6dcf-7619-b03d-86c41c553802","019ce768-b048-7627-b827-888248f65c31","","null","
                    <div class=""stimulus-container"">
                        <img src=""images/causal_sequence/museum_causal/museum_causal_5.png"" class=""exp-image"">
                        <div class=""question-area""></div> 
                    </div>","null","","","","","","",""
"","","","","","html-button-response","63","195052","0.0-63.0","0956CF464AD845D38024138ABE179627","019ce76a-6dcf-7619-b03d-86c41c553802","019ce768-b048-7627-b827-888248f65c31","","2564","
                    <div class=""stimulus-container"">
                        <img src=""images/causal_sequence/museum_causal/museum_causal_5.png"" class=""exp-image"">
                        <div class=""question-area"">
                            <p style=""font-size: 20px; font-weight: bold; margin: 0;"">Is there a person in this image?</p>
                        </div>
                    </div>","0","main_causal_task","5","museum_causal","","","",""
"","","","","","html-keyboard-response","64","200055","0.0-64.0","0956CF464AD845D38024138ABE179627","019ce76a-6dcf-7619-b03d-86c41c553802","019ce768-b048-7627-b827-888248f65c31","","null","
                    <div class=""stimulus-container"">
                        <img src=""images/causal_sequence/museum_causal/museum_causal_6.png"" class=""exp-image"">
                        <div class=""question-area""></div> 
                    </div>","null","","","","","","",""
"","","","","","html-button-response","65","200867","0.0-65.0","0956CF464AD845D38024138ABE179627","019ce76a-6dcf-7619-b03d-86c41c553802","019ce768-b048-7627-b827-888248f65c31","","811","
                    <div class=""stimulus-container"">
                        <img src=""images/causal_sequence/museum_causal/museum_causal_6.png"" class=""exp-image"">
                        <div class=""question-area"">
                            <p style=""font-size: 20px; font-weight: bold; margin: 0;"">Is there a person in this image?</p>
                        </div>
                    </div>","0","main_causal_task","6","museum_causal","","","",""
"","","","","","html-keyboard-response","66","205869","0.0-66.0","0956CF464AD845D38024138ABE179627","019ce76a-6dcf-7619-b03d-86c41c553802","019ce768-b048-7627-b827-888248f65c31","","null","
                    <div class=""stimulus-container"">
                        <img src=""images/causal_sequence/museum_causal/museum_causal_7.png"" class=""exp-image"">
                        <div class=""question-area""></div> 
                    </div>","null","","","","","","",""
"","","","","","html-button-response","67","206550","0.0-67.0","0956CF464AD845D38024138ABE179627","019ce76a-6dcf-7619-b03d-86c41c553802","019ce768-b048-7627-b827-888248f65c31","","680","
                    <div class=""stimulus-container"">
                        <img src=""images/causal_sequence/museum_causal/museum_causal_7.png"" class=""exp-image"">
                        <div class=""question-area"">
                            <p style=""font-size: 20px; font-weight: bold; margin: 0;"">Is there a person in this image?</p>
                        </div>
                    </div>","1","main_causal_task","7","museum_causal","","","",""
"","","","","","html-keyboard-response","68","211553","0.0-68.0","0956CF464AD845D38024138ABE179627","019ce76a-6dcf-7619-b03d-86c41c553802","019ce768-b048-7627-b827-888248f65c31","","null","
                    <div class=""stimulus-container"">
                        <img src=""images/causal_sequence/museum_causal/museum_causal_8.png"" class=""exp-image"">
                        <div class=""question-area""></div> 
                    </div>","null","","","","","","",""
"","","","","","html-button-response","69","212500","0.0-69.0","0956CF464AD845D38024138ABE179627","019ce76a-6dcf-7619-b03d-86c41c553802","019ce768-b048-7627-b827-888248f65c31","","946","
                    <div class=""stimulus-container"">
                        <img src=""images/causal_sequence/museum_causal/museum_causal_8.png"" class=""exp-image"">
                        <div class=""question-area"">
                            <p style=""font-size: 20px; font-weight: bold; margin: 0;"">Is there a person in this image?</p>
                        </div>
                    </div>","0","main_causal_task","8","museum_causal","","","",""
"","","","","","html-keyboard-response","70","217501","0.0-70.0","0956CF464AD845D38024138ABE179627","019ce76a-6dcf-7619-b03d-86c41c553802","019ce768-b048-7627-b827-888248f65c31","","null","
                    <div class=""stimulus-container"">
                        <img src=""images/causal_sequence/museum_causal/museum_causal_9.png"" class=""exp-image"">
                        <div class=""question-area""></div> 
                    </div>","null","","","","","","",""
"","","","","","html-button-response","71","218734","0.0-71.0","0956CF464AD845D38024138ABE179627","019ce76a-6dcf-7619-b03d-86c41c553802","019ce768-b048-7627-b827-888248f65c31","","1231","
                    <div class=""stimulus-container"">
                        <img src=""images/causal_sequence/museum_causal/museum_causal_9.png"" class=""exp-image"">
                        <div class=""question-area"">
                            <p style=""font-size: 20px; font-weight: bold; margin: 0;"">Is there a person in this image?</p>
                        </div>
                    </div>","1","main_causal_task","9","museum_causal","","","",""
"","","","","","html-keyboard-response","72","219737","0.0-72.0","0956CF464AD845D38024138ABE179627","019ce76a-6dcf-7619-b03d-86c41c553802","019ce768-b048-7627-b827-888248f65c31","","null","<div style=""background-color: gray; width: 100vw; height: 100vh;""></div>","null","","","","","","",""
"","","","","","html-keyboard-response","73","224739","0.0-73.0","0956CF464AD845D38024138ABE179627","019ce76a-6dcf-7619-b03d-86c41c553802","019ce768-b048-7627-b827-888248f65c31","","null","
                    <div class=""stimulus-container"">
                        <img src=""images/causal_sequence/coin_causal/coin_causal_1.png"" class=""exp-image"">
                        <div class=""question-area""></div> 
                    </div>","null","","","","","","",""
"","","","","","html-button-response","74","225450","0.0-74.0","0956CF464AD845D38024138ABE179627","019ce76a-6dcf-7619-b03d-86c41c553802","019ce768-b048-7627-b827-888248f65c31","","710","
                    <div class=""stimulus-container"">
                        <img src=""images/causal_sequence/coin_causal/coin_causal_1.png"" class=""exp-image"">
                        <div class=""question-area"">
                            <p style=""font-size: 20px; font-weight: bold; margin: 0;"">Is there a person in this image?</p>
                        </div>
                    </div>","0","main_causal_task","1","coin_causal","","","",""
"","","","","","html-keyboard-response","75","230452","0.0-75.0","0956CF464AD845D38024138ABE179627","019ce76a-6dcf-7619-b03d-86c41c553802","019ce768-b048-7627-b827-888248f65c31","","null","
                    <div class=""stimulus-container"">
                        <img src=""images/causal_sequence/coin_causal/coin_causal_2.png"" class=""exp-image"">
                        <div class=""question-area""></div> 
                    </div>","null","","","","","","",""
"","","","","","html-button-response","76","231250","0.0-76.0","0956CF464AD845D38024138ABE179627","019ce76a-6dcf-7619-b03d-86c41c553802","019ce768-b048-7627-b827-888248f65c31","","797","
                    <div class=""stimulus-container"">
                        <img src=""images/causal_sequence/coin_causal/coin_causal_2.png"" class=""exp-image"">
                        <div class=""question-area"">
                            <p style=""font-size: 20px; font-weight: bold; margin: 0;"">Is there a person in this image?</p>
                        </div>
                    </div>","0","main_causal_task","2","coin_causal","","","",""
"","","","","","html-keyboard-response","77","236252","0.0-77.0","0956CF464AD845D38024138ABE179627","019ce76a-6dcf-7619-b03d-86c41c553802","019ce768-b048-7627-b827-888248f65c31","","null","
                    <div class=""stimulus-container"">
                        <img src=""images/causal_sequence/coin_causal/coin_causal_3.png"" class=""exp-image"">
                        <div class=""question-area""></div> 
                    </div>","null","","","","","","",""
"","","","","","html-button-response","78","236917","0.0-78.0","0956CF464AD845D38024138ABE179627","019ce76a-6dcf-7619-b03d-86c41c553802","019ce768-b048-7627-b827-888248f65c31","","663","
                    <div class=""stimulus-container"">
                        <img src=""images/causal_sequence/coin_causal/coin_causal_3.png"" class=""exp-image"">
                        <div class=""question-area"">
                            <p style=""font-size: 20px; font-weight: bold; margin: 0;"">Is there a person in this image?</p>
                        </div>
                    </div>","0","main_causal_task","3","coin_causal","","","",""
"","","","","","html-keyboard-response","79","241919","0.0-79.0","0956CF464AD845D38024138ABE179627","019ce76a-6dcf-7619-b03d-86c41c553802","019ce768-b048-7627-b827-888248f65c31","","null","
                    <div class=""stimulus-container"">
                        <img src=""images/causal_sequence/coin_causal/coin_causal_4.png"" class=""exp-image"">
                        <div class=""question-area""></div> 
                    </div>","null","","","","","","",""
"","","","","","html-button-response","80","242817","0.0-80.0","0956CF464AD845D38024138ABE179627","019ce76a-6dcf-7619-b03d-86c41c553802","019ce768-b048-7627-b827-888248f65c31","","896","
                    <div class=""stimulus-container"">
                        <img src=""images/causal_sequence/coin_causal/coin_causal_4.png"" class=""exp-image"">
                        <div class=""question-area"">
                            <p style=""font-size: 20px; font-weight: bold; margin: 0;"">Is there a person in this image?</p>
                        </div>
                    </div>","0","main_causal_task","4","coin_causal","","","",""
"","","","","","html-keyboard-response","81","247820","0.0-81.0","0956CF464AD845D38024138ABE179627","019ce76a-6dcf-7619-b03d-86c41c553802","019ce768-b048-7627-b827-888248f65c31","","null","
                    <div class=""stimulus-container"">
                        <img src=""images/causal_sequence/coin_causal/coin_causal_5.png"" class=""exp-image"">
                        <div class=""question-area""></div> 
                    </div>","null","","","","","","",""
"","","","","","html-button-response","82","248835","0.0-82.0","0956CF464AD845D38024138ABE179627","019ce76a-6dcf-7619-b03d-86c41c553802","019ce768-b048-7627-b827-888248f65c31","","1014","
                    <div class=""stimulus-container"">
                        <img src=""images/causal_sequence/coin_causal/coin_causal_5.png"" class=""exp-image"">
                        <div class=""question-area"">
                            <p style=""font-size: 20px; font-weight: bold; margin: 0;"">Is there a person in this image?</p>
                        </div>
                    </div>","0","main_causal_task","5","coin_causal","","","",""
"","","","","","html-keyboard-response","83","253838","0.0-83.0","0956CF464AD845D38024138ABE179627","019ce76a-6dcf-7619-b03d-86c41c553802","019ce768-b048-7627-b827-888248f65c31","","null","
                    <div class=""stimulus-container"">
                        <img src=""images/causal_sequence/coin_causal/coin_causal_6.png"" class=""exp-image"">
                        <div class=""question-area""></div> 
                    </div>","null","","","","","","",""
"","","","","","html-button-response","84","254718","0.0-84.0","0956CF464AD845D38024138ABE179627","019ce76a-6dcf-7619-b03d-86c41c553802","019ce768-b048-7627-b827-888248f65c31","","879","
                    <div class=""stimulus-container"">
                        <img src=""images/causal_sequence/coin_causal/coin_causal_6.png"" class=""exp-image"">
                        <div class=""question-area"">
                            <p style=""font-size: 20px; font-weight: bold; margin: 0;"">Is there a person in this image?</p>
                        </div>
                    </div>","0","main_causal_task","6","coin_causal","","","",""
"","","","","","html-keyboard-response","85","259720","0.0-85.0","0956CF464AD845D38024138ABE179627","019ce76a-6dcf-7619-b03d-86c41c553802","019ce768-b048-7627-b827-888248f65c31","","null","
                    <div class=""stimulus-container"">
                        <img src=""images/causal_sequence/coin_causal/coin_causal_7.png"" class=""exp-image"">
                        <div class=""question-area""></div> 
                    </div>","null","","","","","","",""
"","","","","","html-button-response","86","260966","0.0-86.0","0956CF464AD845D38024138ABE179627","019ce76a-6dcf-7619-b03d-86c41c553802","019ce768-b048-7627-b827-888248f65c31","","1245","
                    <div class=""stimulus-container"">
                        <img src=""images/causal_sequence/coin_causal/coin_causal_7.png"" class=""exp-image"">
                        <div class=""question-area"">
                            <p style=""font-size: 20px; font-weight: bold; margin: 0;"">Is there a person in this image?</p>
                        </div>
                    </div>","1","main_causal_task","7","coin_causal","","","",""
"","","","","","html-keyboard-response","87","265969","0.0-87.0","0956CF464AD845D38024138ABE179627","019ce76a-6dcf-7619-b03d-86c41c553802","019ce768-b048-7627-b827-888248f65c31","","null","
                    <div class=""stimulus-container"">
                        <img src=""images/causal_sequence/coin_causal/coin_causal_8.png"" class=""exp-image"">
                        <div class=""question-area""></div> 
                    </div>","null","","","","","","",""
"","","","","","html-button-response","88","267066","0.0-88.0","0956CF464AD845D38024138ABE179627","019ce76a-6dcf-7619-b03d-86c41c553802","019ce768-b048-7627-b827-888248f65c31","","1096","
                    <div class=""stimulus-container"">
                        <img src=""images/causal_sequence/coin_causal/coin_causal_8.png"" class=""exp-image"">
                        <div class=""question-area"">
                            <p style=""font-size: 20px; font-weight: bold; margin: 0;"">Is there a person in this image?</p>
                        </div>
                    </div>","0","main_causal_task","8","coin_causal","","","",""
"","","","","","html-keyboard-response","89","272067","0.0-89.0","0956CF464AD845D38024138ABE179627","019ce76a-6dcf-7619-b03d-86c41c553802","019ce768-b048-7627-b827-888248f65c31","","null","
                    <div class=""stimulus-container"">
                        <img src=""images/causal_sequence/coin_causal/coin_causal_9.png"" class=""exp-image"">
                        <div class=""question-area""></div> 
                    </div>","null","","","","","","",""
"","","","","","html-button-response","90","272733","0.0-90.0","0956CF464AD845D38024138ABE179627","019ce76a-6dcf-7619-b03d-86c41c553802","019ce768-b048-7627-b827-888248f65c31","","666","
                    <div class=""stimulus-container"">
                        <img src=""images/causal_sequence/coin_causal/coin_causal_9.png"" class=""exp-image"">
                        <div class=""question-area"">
                            <p style=""font-size: 20px; font-weight: bold; margin: 0;"">Is there a person in this image?</p>
                        </div>
                    </div>","0","main_causal_task","9","coin_causal","","","",""
"","","","","","html-keyboard-response","91","273736","0.0-91.0","0956CF464AD845D38024138ABE179627","019ce76a-6dcf-7619-b03d-86c41c553802","019ce768-b048-7627-b827-888248f65c31","","null","<div style=""background-color: gray; width: 100vw; height: 100vh;""></div>","null","","","","","","",""
"","","","","","html-keyboard-response","92","278738","0.0-92.0","0956CF464AD845D38024138ABE179627","019ce76a-6dcf-7619-b03d-86c41c553802","019ce768-b048-7627-b827-888248f65c31","","null","
                    <div class=""stimulus-container"">
                        <img src=""images/causal_sequence/the_performance_causal/the_performance_causal_1.png"" class=""exp-image"">
                        <div class=""question-area""></div> 
                    </div>","null","","","","","","",""
"","","","","","html-button-response","93","280267","0.0-93.0","0956CF464AD845D38024138ABE179627","019ce76a-6dcf-7619-b03d-86c41c553802","019ce768-b048-7627-b827-888248f65c31","","1527","
                    <div class=""stimulus-container"">
                        <img src=""images/causal_sequence/the_performance_causal/the_performance_causal_1.png"" class=""exp-image"">
                        <div class=""question-area"">
                            <p style=""font-size: 20px; font-weight: bold; margin: 0;"">Is there a person in this image?</p>
                        </div>
                    </div>","0","main_causal_task","1","the_performance_causal","","","",""
"","","","","","html-keyboard-response","94","285270","0.0-94.0","0956CF464AD845D38024138ABE179627","019ce76a-6dcf-7619-b03d-86c41c553802","019ce768-b048-7627-b827-888248f65c31","","null","
                    <div class=""stimulus-container"">
                        <img src=""images/causal_sequence/the_performance_causal/the_performance_causal_2.png"" class=""exp-image"">
                        <div class=""question-area""></div> 
                    </div>","null","","","","","","",""
"","","","","","html-button-response","95","286634","0.0-95.0","0956CF464AD845D38024138ABE179627","019ce76a-6dcf-7619-b03d-86c41c553802","019ce768-b048-7627-b827-888248f65c31","","1362","
                    <div class=""stimulus-container"">
                        <img src=""images/causal_sequence/the_performance_causal/the_performance_causal_2.png"" class=""exp-image"">
                        <div class=""question-area"">
                            <p style=""font-size: 20px; font-weight: bold; margin: 0;"">Is there a person in this image?</p>
                        </div>
                    </div>","0","main_causal_task","2","the_performance_causal","","","",""
"","","","","","html-keyboard-response","96","291636","0.0-96.0","0956CF464AD845D38024138ABE179627","019ce76a-6dcf-7619-b03d-86c41c553802","019ce768-b048-7627-b827-888248f65c31","","null","
                    <div class=""stimulus-container"">
                        <img src=""images/causal_sequence/the_performance_causal/the_performance_causal_3.png"" class=""exp-image"">
                        <div class=""question-area""></div> 
                    </div>","null","","","","","","",""
"","","","","","html-button-response","97","292267","0.0-97.0","0956CF464AD845D38024138ABE179627","019ce76a-6dcf-7619-b03d-86c41c553802","019ce768-b048-7627-b827-888248f65c31","","629","
                    <div class=""stimulus-container"">
                        <img src=""images/causal_sequence/the_performance_causal/the_performance_causal_3.png"" class=""exp-image"">
                        <div class=""question-area"">
                            <p style=""font-size: 20px; font-weight: bold; margin: 0;"">Is there a person in this image?</p>
                        </div>
                    </div>","0","main_causal_task","3","the_performance_causal","","","",""
"","","","","","html-keyboard-response","98","297269","0.0-98.0","0956CF464AD845D38024138ABE179627","019ce76a-6dcf-7619-b03d-86c41c553802","019ce768-b048-7627-b827-888248f65c31","","null","
                    <div class=""stimulus-container"">
                        <img src=""images/causal_sequence/the_performance_causal/the_performance_causal_4.png"" class=""exp-image"">
                        <div class=""question-area""></div> 
                    </div>","null","","","","","","",""
"","","","","","html-button-response","99","298735","0.0-99.0","0956CF464AD845D38024138ABE179627","019ce76a-6dcf-7619-b03d-86c41c553802","019ce768-b048-7627-b827-888248f65c31","","1465","
                    <div class=""stimulus-container"">
                        <img src=""images/causal_sequence/the_performance_causal/the_performance_causal_4.png"" class=""exp-image"">
                        <div class=""question-area"">
                            <p style=""font-size: 20px; font-weight: bold; margin: 0;"">Is there a person in this image?</p>
                        </div>
                    </div>","0","main_causal_task","4","the_performance_causal","","","",""
"","","","","","html-keyboard-response","100","303738","0.0-100.0","0956CF464AD845D38024138ABE179627","019ce76a-6dcf-7619-b03d-86c41c553802","019ce768-b048-7627-b827-888248f65c31","","null","
                    <div class=""stimulus-container"">
                        <img src=""images/causal_sequence/the_performance_causal/the_performance_causal_5.png"" class=""exp-image"">
                        <div class=""question-area""></div> 
                    </div>","null","","","","","","",""
"","","","","","html-button-response","101","304850","0.0-101.0","0956CF464AD845D38024138ABE179627","019ce76a-6dcf-7619-b03d-86c41c553802","019ce768-b048-7627-b827-888248f65c31","","1111","
                    <div class=""stimulus-container"">
                        <img src=""images/causal_sequence/the_performance_causal/the_performance_causal_5.png"" class=""exp-image"">
                        <div class=""question-area"">
                            <p style=""font-size: 20px; font-weight: bold; margin: 0;"">Is there a person in this image?</p>
                        </div>
                    </div>","0","main_causal_task","5","the_performance_causal","","","",""
"","","","","","html-keyboard-response","102","309852","0.0-102.0","0956CF464AD845D38024138ABE179627","019ce76a-6dcf-7619-b03d-86c41c553802","019ce768-b048-7627-b827-888248f65c31","","null","
                    <div class=""stimulus-container"">
                        <img src=""images/causal_sequence/the_performance_causal/the_performance_causal_6.png"" class=""exp-image"">
                        <div class=""question-area""></div> 
                    </div>","null","","","","","","",""
"","","","","","html-button-response","103","310385","0.0-103.0","0956CF464AD845D38024138ABE179627","019ce76a-6dcf-7619-b03d-86c41c553802","019ce768-b048-7627-b827-888248f65c31","","532","
                    <div class=""stimulus-container"">
                        <img src=""images/causal_sequence/the_performance_causal/the_performance_causal_6.png"" class=""exp-image"">
                        <div class=""question-area"">
                            <p style=""font-size: 20px; font-weight: bold; margin: 0;"">Is there a person in this image?</p>
                        </div>
                    </div>","0","main_causal_task","6","the_performance_causal","","","",""
"","","","","","html-keyboard-response","104","315387","0.0-104.0","0956CF464AD845D38024138ABE179627","019ce76a-6dcf-7619-b03d-86c41c553802","019ce768-b048-7627-b827-888248f65c31","","null","
                    <div class=""stimulus-container"">
                        <img src=""images/causal_sequence/the_performance_causal/the_performance_causal_7.png"" class=""exp-image"">
                        <div class=""question-area""></div> 
                    </div>","null","","","","","","",""
"","","","","","html-button-response","105","316300","0.0-105.0","0956CF464AD845D38024138ABE179627","019ce76a-6dcf-7619-b03d-86c41c553802","019ce768-b048-7627-b827-888248f65c31","","912","
                    <div class=""stimulus-container"">
                        <img src=""images/causal_sequence/the_performance_causal/the_performance_causal_7.png"" class=""exp-image"">
                        <div class=""question-area"">
                            <p style=""font-size: 20px; font-weight: bold; margin: 0;"">Is there a person in this image?</p>
                        </div>
                    </div>","0","main_causal_task","7","the_performance_causal","","","",""
"","","","","","html-keyboard-response","106","321303","0.0-106.0","0956CF464AD845D38024138ABE179627","019ce76a-6dcf-7619-b03d-86c41c553802","019ce768-b048-7627-b827-888248f65c31","","null","
                    <div class=""stimulus-container"">
                        <img src=""images/causal_sequence/the_performance_causal/the_performance_causal_8.png"" class=""exp-image"">
                        <div class=""question-area""></div> 
                    </div>","null","","","","","","",""
"","","","","","html-button-response","107","321933","0.0-107.0","0956CF464AD845D38024138ABE179627","019ce76a-6dcf-7619-b03d-86c41c553802","019ce768-b048-7627-b827-888248f65c31","","629","
                    <div class=""stimulus-container"">
                        <img src=""images/causal_sequence/the_performance_causal/the_performance_causal_8.png"" class=""exp-image"">
                        <div class=""question-area"">
                            <p style=""font-size: 20px; font-weight: bold; margin: 0;"">Is there a person in this image?</p>
                        </div>
                    </div>","0","main_causal_task","8","the_performance_causal","","","",""
"","","","","","html-keyboard-response","108","326936","0.0-108.0","0956CF464AD845D38024138ABE179627","019ce76a-6dcf-7619-b03d-86c41c553802","019ce768-b048-7627-b827-888248f65c31","","null","
                    <div class=""stimulus-container"">
                        <img src=""images/causal_sequence/the_performance_causal/the_performance_causal_9.png"" class=""exp-image"">
                        <div class=""question-area""></div> 
                    </div>","null","","","","","","",""
"","","","","","html-button-response","109","327816","0.0-109.0","0956CF464AD845D38024138ABE179627","019ce76a-6dcf-7619-b03d-86c41c553802","019ce768-b048-7627-b827-888248f65c31","","879","
                    <div class=""stimulus-container"">
                        <img src=""images/causal_sequence/the_performance_causal/the_performance_causal_9.png"" class=""exp-image"">
                        <div class=""question-area"">
                            <p style=""font-size: 20px; font-weight: bold; margin: 0;"">Is there a person in this image?</p>
                        </div>
                    </div>","0","main_causal_task","9","the_performance_causal","","","",""
"","","","","","html-keyboard-response","110","328818","0.0-110.0","0956CF464AD845D38024138ABE179627","019ce76a-6dcf-7619-b03d-86c41c553802","019ce768-b048-7627-b827-888248f65c31","","null","<div style=""background-color: gray; width: 100vw; height: 100vh;""></div>","null","","","","","","",""
"","","","","","html-keyboard-response","111","333821","0.0-111.0","0956CF464AD845D38024138ABE179627","019ce76a-6dcf-7619-b03d-86c41c553802","019ce768-b048-7627-b827-888248f65c31","","null","
                    <div class=""stimulus-container"">
                        <img src=""images/causal_sequence/dog_causal/dog_causal_1.png"" class=""exp-image"">
                        <div class=""question-area""></div> 
                    </div>","null","","","","","","",""
"","","","","","html-button-response","112","334602","0.0-112.0","0956CF464AD845D38024138ABE179627","019ce76a-6dcf-7619-b03d-86c41c553802","019ce768-b048-7627-b827-888248f65c31","","780","
                    <div class=""stimulus-container"">
                        <img src=""images/causal_sequence/dog_causal/dog_causal_1.png"" class=""exp-image"">
                        <div class=""question-area"">
                            <p style=""font-size: 20px; font-weight: bold; margin: 0;"">Is there a person in this image?</p>
                        </div>
                    </div>","0","main_causal_task","1","dog_causal","","","",""
"","","","","","html-keyboard-response","113","339605","0.0-113.0","0956CF464AD845D38024138ABE179627","019ce76a-6dcf-7619-b03d-86c41c553802","019ce768-b048-7627-b827-888248f65c31","","null","
                    <div class=""stimulus-container"">
                        <img src=""images/causal_sequence/dog_causal/dog_causal_2.png"" class=""exp-image"">
                        <div class=""question-area""></div> 
                    </div>","null","","","","","","",""
"","","","","","html-button-response","114","340283","0.0-114.0","0956CF464AD845D38024138ABE179627","019ce76a-6dcf-7619-b03d-86c41c553802","019ce768-b048-7627-b827-888248f65c31","","677","
                    <div class=""stimulus-container"">
                        <img src=""images/causal_sequence/dog_causal/dog_causal_2.png"" class=""exp-image"">
                        <div class=""question-area"">
                            <p style=""font-size: 20px; font-weight: bold; margin: 0;"">Is there a person in this image?</p>
                        </div>
                    </div>","0","main_causal_task","2","dog_causal","","","",""
"","","","","","html-keyboard-response","115","345286","0.0-115.0","0956CF464AD845D38024138ABE179627","019ce76a-6dcf-7619-b03d-86c41c553802","019ce768-b048-7627-b827-888248f65c31","","null","
                    <div class=""stimulus-container"">
                        <img src=""images/causal_sequence/dog_causal/dog_causal_3.png"" class=""exp-image"">
                        <div class=""question-area""></div> 
                    </div>","null","","","","","","",""
"","","","","","html-button-response","116","346350","0.0-116.0","0956CF464AD845D38024138ABE179627","019ce76a-6dcf-7619-b03d-86c41c553802","019ce768-b048-7627-b827-888248f65c31","","1063","
                    <div class=""stimulus-container"">
                        <img src=""images/causal_sequence/dog_causal/dog_causal_3.png"" class=""exp-image"">
                        <div class=""question-area"">
                            <p style=""font-size: 20px; font-weight: bold; margin: 0;"">Is there a person in this image?</p>
                        </div>
                    </div>","0","main_causal_task","3","dog_causal","","","",""
"","","","","","html-keyboard-response","117","351353","0.0-117.0","0956CF464AD845D38024138ABE179627","019ce76a-6dcf-7619-b03d-86c41c553802","019ce768-b048-7627-b827-888248f65c31","","null","
                    <div class=""stimulus-container"">
                        <img src=""images/causal_sequence/dog_causal/dog_causal_4.png"" class=""exp-image"">
                        <div class=""question-area""></div> 
                    </div>","null","","","","","","",""
"","","","","","html-button-response","118","352249","0.0-118.0","0956CF464AD845D38024138ABE179627","019ce76a-6dcf-7619-b03d-86c41c553802","019ce768-b048-7627-b827-888248f65c31","","894","
                    <div class=""stimulus-container"">
                        <img src=""images/causal_sequence/dog_causal/dog_causal_4.png"" class=""exp-image"">
                        <div class=""question-area"">
                            <p style=""font-size: 20px; font-weight: bold; margin: 0;"">Is there a person in this image?</p>
                        </div>
                    </div>","0","main_causal_task","4","dog_causal","","","",""
"","","","","","html-keyboard-response","119","357251","0.0-119.0","0956CF464AD845D38024138ABE179627","019ce76a-6dcf-7619-b03d-86c41c553802","019ce768-b048-7627-b827-888248f65c31","","null","
                    <div class=""stimulus-container"">
                        <img src=""images/causal_sequence/dog_causal/dog_causal_5.png"" class=""exp-image"">
                        <div class=""question-area""></div> 
                    </div>","null","","","","","","",""
"","","","","","html-button-response","120","358350","0.0-120.0","0956CF464AD845D38024138ABE179627","019ce76a-6dcf-7619-b03d-86c41c553802","019ce768-b048-7627-b827-888248f65c31","","1097","
                    <div class=""stimulus-container"">
                        <img src=""images/causal_sequence/dog_causal/dog_causal_5.png"" class=""exp-image"">
                        <div class=""question-area"">
                            <p style=""font-size: 20px; font-weight: bold; margin: 0;"">Is there a person in this image?</p>
                        </div>
                    </div>","0","main_causal_task","5","dog_causal","","","",""
"","","","","","html-keyboard-response","121","363353","0.0-121.0","0956CF464AD845D38024138ABE179627","019ce76a-6dcf-7619-b03d-86c41c553802","019ce768-b048-7627-b827-888248f65c31","","null","
                    <div class=""stimulus-container"">
                        <img src=""images/causal_sequence/dog_causal/dog_causal_6.png"" class=""exp-image"">
                        <div class=""question-area""></div> 
                    </div>","null","","","","","","",""
"","","","","","html-button-response","122","364117","0.0-122.0","0956CF464AD845D38024138ABE179627","019ce76a-6dcf-7619-b03d-86c41c553802","019ce768-b048-7627-b827-888248f65c31","","763","
                    <div class=""stimulus-container"">
                        <img src=""images/causal_sequence/dog_causal/dog_causal_6.png"" class=""exp-image"">
                        <div class=""question-area"">
                            <p style=""font-size: 20px; font-weight: bold; margin: 0;"">Is there a person in this image?</p>
                        </div>
                    </div>","0","main_causal_task","6","dog_causal","","","",""
"","","","","","html-keyboard-response","123","369119","0.0-123.0","0956CF464AD845D38024138ABE179627","019ce76a-6dcf-7619-b03d-86c41c553802","019ce768-b048-7627-b827-888248f65c31","","null","
                    <div class=""stimulus-container"">
                        <img src=""images/causal_sequence/dog_causal/dog_causal_7.png"" class=""exp-image"">
                        <div class=""question-area""></div> 
                    </div>","null","","","","","","",""
"","","","","","html-button-response","124","369800","0.0-124.0","0956CF464AD845D38024138ABE179627","019ce76a-6dcf-7619-b03d-86c41c553802","019ce768-b048-7627-b827-888248f65c31","","679","
                    <div class=""stimulus-container"">
                        <img src=""images/causal_sequence/dog_causal/dog_causal_7.png"" class=""exp-image"">
                        <div class=""question-area"">
                            <p style=""font-size: 20px; font-weight: bold; margin: 0;"">Is there a person in this image?</p>
                        </div>
                    </div>","0","main_causal_task","7","dog_causal","","","",""
"","","","","","html-keyboard-response","125","374804","0.0-125.0","0956CF464AD845D38024138ABE179627","019ce76a-6dcf-7619-b03d-86c41c553802","019ce768-b048-7627-b827-888248f65c31","","null","
                    <div class=""stimulus-container"">
                        <img src=""images/causal_sequence/dog_causal/dog_causal_8.png"" class=""exp-image"">
                        <div class=""question-area""></div> 
                    </div>","null","","","","","","",""
"","","","","","html-button-response","126","375400","0.0-126.0","0956CF464AD845D38024138ABE179627","019ce76a-6dcf-7619-b03d-86c41c553802","019ce768-b048-7627-b827-888248f65c31","","595","
                    <div class=""stimulus-container"">
                        <img src=""images/causal_sequence/dog_causal/dog_causal_8.png"" class=""exp-image"">
                        <div class=""question-area"">
                            <p style=""font-size: 20px; font-weight: bold; margin: 0;"">Is there a person in this image?</p>
                        </div>
                    </div>","0","main_causal_task","8","dog_causal","","","",""
"","","","","","html-keyboard-response","127","380403","0.0-127.0","0956CF464AD845D38024138ABE179627","019ce76a-6dcf-7619-b03d-86c41c553802","019ce768-b048-7627-b827-888248f65c31","","null","
                    <div class=""stimulus-container"">
                        <img src=""images/causal_sequence/dog_causal/dog_causal_9.png"" class=""exp-image"">
                        <div class=""question-area""></div> 
                    </div>","null","","","","","","",""
"","","","","","html-button-response","128","381067","0.0-128.0","0956CF464AD845D38024138ABE179627","019ce76a-6dcf-7619-b03d-86c41c553802","019ce768-b048-7627-b827-888248f65c31","","663","
                    <div class=""stimulus-container"">
                        <img src=""images/causal_sequence/dog_causal/dog_causal_9.png"" class=""exp-image"">
                        <div class=""question-area"">
                            <p style=""font-size: 20px; font-weight: bold; margin: 0;"">Is there a person in this image?</p>
                        </div>
                    </div>","0","main_causal_task","9","dog_causal","","","",""
"","","","","","instructions","129","382817","0.0-129.0","0956CF464AD845D38024138ABE179627","019ce76a-6dcf-7619-b03d-86c41c553802","019ce768-b048-7627-b827-888248f65c31","[{""page_index"":0,""viewing_time"":1748}]","1749","","","","","","","","",""
"","","","","","instructions","130","387983","0.0-130.0","0956CF464AD845D38024138ABE179627","019ce76a-6dcf-7619-b03d-86c41c553802","019ce768-b048-7627-b827-888248f65c31","[{""page_index"":0,""viewing_time"":5165}]","5166","","","","","","","","",""
"","","","","","html-keyboard-response","131","388985","0.0-131.0","0956CF464AD845D38024138ABE179627","019ce76a-6dcf-7619-b03d-86c41c553802","019ce768-b048-7627-b827-888248f65c31","","null","
        <div class=""stimulus-container"" style=""display: flex; align-items: center; justify-content: center; gap: 30px;"">
            <img src=""images/instructions/movie_1.png"" class=""exp-image"">
            <div style=""font-size: 40px; font-weight: bold; color: green; border: 5px solid green; padding: 25px; border-radius: 15px; background-color: #f0fff0;"">
                WORTH<br>$1
            </div>
        </div>
        <div class=""question-area""></div>","null","","","","","","",""
"","","","","","html-button-response","132","391988","0.0-132.0","0956CF464AD845D38024138ABE179627","019ce76a-6dcf-7619-b03d-86c41c553802","019ce768-b048-7627-b827-888248f65c31","","null","
        <div class=""stimulus-container"" style=""display: flex; align-items: center; justify-content: center; gap: 30px;"">
            <img src=""images/instructions/movie_1.png"" class=""exp-image"">
            <div style=""font-size: 40px; font-weight: bold; color: green; border: 5px solid green; padding: 25px; border-radius: 15px; background-color: #f0fff0;"">
                WORTH<br>$1
            </div>
        </div>
        <div class=""question-area"">
            <p style=""font-size: 20px; font-weight: bold; margin: 0;"">Was there a person in this image?</p>
        </div>","null","","","","","","",""
"","","","","","instructions","133","397266","0.0-133.0","0956CF464AD845D38024138ABE179627","019ce76a-6dcf-7619-b03d-86c41c553802","019ce768-b048-7627-b827-888248f65c31","[{""page_index"":0,""viewing_time"":5278}]","5278","","","","","","","","",""
"","","","","","html-keyboard-response","134","407268","0.0-134.0","0956CF464AD845D38024138ABE179627","019ce76a-6dcf-7619-b03d-86c41c553802","019ce768-b048-7627-b827-888248f65c31","","null","
            <div class=""stimulus-container"" style=""display: flex; align-items: center; justify-content: center; gap: 30px;"">
                <img src=""images/causal_sequence/dog_causal/dog_causal_6.png"" class=""exp-image"">
                <div style=""font-size: 40px; font-weight: bold; color: green; border: 5px solid green; padding: 25px; border-radius: 15px; background-color: #f0fff0;"">
                    WORTH<br>$1
                </div>
            </div>
            <div class=""question-area""></div>","null","","","","","","",""
"","","","","","html-button-response","135","408750","0.0-135.0","0956CF464AD845D38024138ABE179627","019ce76a-6dcf-7619-b03d-86c41c553802","019ce768-b048-7627-b827-888248f65c31","","1481","
            <div class=""stimulus-container"" style=""display: flex; align-items: center; justify-content: center; gap: 30px;"">
                <img src=""images/causal_sequence/dog_causal/dog_causal_6.png"" class=""exp-image"">
                <div style=""font-size: 40px; font-weight: bold; color: green; border: 5px solid green; padding: 25px; border-radius: 15px; background-color: #f0fff0;"">
                    WORTH<br>$1
                </div>
            </div>
            <div class=""question-area"">
                <p style=""font-size: 20px; font-weight: bold; margin: 0;"">Was there a person in this image?</p>
            </div>","0","part2_value_learning","","dog_causal","6","","",""
"","","","","","html-keyboard-response","136","418753","0.0-136.0","0956CF464AD845D38024138ABE179627","019ce76a-6dcf-7619-b03d-86c41c553802","019ce768-b048-7627-b827-888248f65c31","","null","
            <div class=""stimulus-container"" style=""display: flex; align-items: center; justify-content: center; gap: 30px;"">
                <img src=""images/causal_sequence/coin_causal/coin_causal_6.png"" class=""exp-image"">
                <div style=""font-size: 40px; font-weight: bold; color: green; border: 5px solid green; padding: 25px; border-radius: 15px; background-color: #f0fff0;"">
                    WORTH<br>$1
                </div>
            </div>
            <div class=""question-area""></div>","null","","","","","","",""
"","","","","","html-button-response","137","420183","0.0-137.0","0956CF464AD845D38024138ABE179627","019ce76a-6dcf-7619-b03d-86c41c553802","019ce768-b048-7627-b827-888248f65c31","","1429","
            <div class=""stimulus-container"" style=""display: flex; align-items: center; justify-content: center; gap: 30px;"">
                <img src=""images/causal_sequence/coin_causal/coin_causal_6.png"" class=""exp-image"">
                <div style=""font-size: 40px; font-weight: bold; color: green; border: 5px solid green; padding: 25px; border-radius: 15px; background-color: #f0fff0;"">
                    WORTH<br>$1
                </div>
            </div>
            <div class=""question-area"">
                <p style=""font-size: 20px; font-weight: bold; margin: 0;"">Was there a person in this image?</p>
            </div>","0","part2_value_learning","","coin_causal","6","","",""
"","","","","","html-keyboard-response","138","430186","0.0-138.0","0956CF464AD845D38024138ABE179627","019ce76a-6dcf-7619-b03d-86c41c553802","019ce768-b048-7627-b827-888248f65c31","","null","
            <div class=""stimulus-container"" style=""display: flex; align-items: center; justify-content: center; gap: 30px;"">
                <img src=""images/causal_sequence/museum_causal/museum_causal_5.png"" class=""exp-image"">
                <div style=""font-size: 40px; font-weight: bold; color: green; border: 5px solid green; padding: 25px; border-radius: 15px; background-color: #f0fff0;"">
                    WORTH<br>$1
                </div>
            </div>
            <div class=""question-area""></div>","null","","","","","","",""
"","","","","","html-button-response","139","431417","0.0-139.0","0956CF464AD845D38024138ABE179627","019ce76a-6dcf-7619-b03d-86c41c553802","019ce768-b048-7627-b827-888248f65c31","","1229","
            <div class=""stimulus-container"" style=""display: flex; align-items: center; justify-content: center; gap: 30px;"">
                <img src=""images/causal_sequence/museum_causal/museum_causal_5.png"" class=""exp-image"">
                <div style=""font-size: 40px; font-weight: bold; color: green; border: 5px solid green; padding: 25px; border-radius: 15px; background-color: #f0fff0;"">
                    WORTH<br>$1
                </div>
            </div>
            <div class=""question-area"">
                <p style=""font-size: 20px; font-weight: bold; margin: 0;"">Was there a person in this image?</p>
            </div>","0","part2_value_learning","","museum_causal","5","","",""
"","","","","","html-keyboard-response","140","441420","0.0-140.0","0956CF464AD845D38024138ABE179627","019ce76a-6dcf-7619-b03d-86c41c553802","019ce768-b048-7627-b827-888248f65c31","","null","
            <div class=""stimulus-container"" style=""display: flex; align-items: center; justify-content: center; gap: 30px;"">
                <img src=""images/causal_sequence/the_performance_causal/the_performance_causal_4.png"" class=""exp-image"">
                <div style=""font-size: 40px; font-weight: bold; color: green; border: 5px solid green; padding: 25px; border-radius: 15px; background-color: #f0fff0;"">
                    WORTH<br>$1
                </div>
            </div>
            <div class=""question-area""></div>","null","","","","","","",""
"","","","","","html-button-response","141","442850","0.0-141.0","0956CF464AD845D38024138ABE179627","019ce76a-6dcf-7619-b03d-86c41c553802","019ce768-b048-7627-b827-888248f65c31","","1428","
            <div class=""stimulus-container"" style=""display: flex; align-items: center; justify-content: center; gap: 30px;"">
                <img src=""images/causal_sequence/the_performance_causal/the_performance_causal_4.png"" class=""exp-image"">
                <div style=""font-size: 40px; font-weight: bold; color: green; border: 5px solid green; padding: 25px; border-radius: 15px; background-color: #f0fff0;"">
                    WORTH<br>$1
                </div>
            </div>
            <div class=""question-area"">
                <p style=""font-size: 20px; font-weight: bold; margin: 0;"">Was there a person in this image?</p>
            </div>","0","part2_value_learning","","the_performance_causal","4","","",""
"","","","","","html-keyboard-response","142","452853","0.0-142.0","0956CF464AD845D38024138ABE179627","019ce76a-6dcf-7619-b03d-86c41c553802","019ce768-b048-7627-b827-888248f65c31","","null","
            <div class=""stimulus-container"" style=""display: flex; align-items: center; justify-content: center; gap: 30px;"">
                <img src=""images/causal_sequence/package_causal/package_causal_6.png"" class=""exp-image"">
                <div style=""font-size: 40px; font-weight: bold; color: green; border: 5px solid green; padding: 25px; border-radius: 15px; background-color: #f0fff0;"">
                    WORTH<br>$1
                </div>
            </div>
            <div class=""question-area""></div>","null","","","","","","",""
"","","","","","html-button-response","143","454101","0.0-143.0","0956CF464AD845D38024138ABE179627","019ce76a-6dcf-7619-b03d-86c41c553802","019ce768-b048-7627-b827-888248f65c31","","1246","
            <div class=""stimulus-container"" style=""display: flex; align-items: center; justify-content: center; gap: 30px;"">
                <img src=""images/causal_sequence/package_causal/package_causal_6.png"" class=""exp-image"">
                <div style=""font-size: 40px; font-weight: bold; color: green; border: 5px solid green; padding: 25px; border-radius: 15px; background-color: #f0fff0;"">
                    WORTH<br>$1
                </div>
            </div>
            <div class=""question-area"">
                <p style=""font-size: 20px; font-weight: bold; margin: 0;"">Was there a person in this image?</p>
            </div>","0","part2_value_learning","","package_causal","6","","",""
"","","","","","html-keyboard-response","144","464103","0.0-144.0","0956CF464AD845D38024138ABE179627","019ce76a-6dcf-7619-b03d-86c41c553802","019ce768-b048-7627-b827-888248f65c31","","null","
            <div class=""stimulus-container"" style=""display: flex; align-items: center; justify-content: center; gap: 30px;"">
                <img src=""images/causal_sequence/saving_a_cat_causal/saving_a_cat_causal_4.png"" class=""exp-image"">
                <div style=""font-size: 40px; font-weight: bold; color: green; border: 5px solid green; padding: 25px; border-radius: 15px; background-color: #f0fff0;"">
                    WORTH<br>$1
                </div>
            </div>
            <div class=""question-area""></div>","null","","","","","","",""
"","","","","","html-button-response","145","464966","0.0-145.0","0956CF464AD845D38024138ABE179627","019ce76a-6dcf-7619-b03d-86c41c553802","019ce768-b048-7627-b827-888248f65c31","","862","
            <div class=""stimulus-container"" style=""display: flex; align-items: center; justify-content: center; gap: 30px;"">
                <img src=""images/causal_sequence/saving_a_cat_causal/saving_a_cat_causal_4.png"" class=""exp-image"">
                <div style=""font-size: 40px; font-weight: bold; color: green; border: 5px solid green; padding: 25px; border-radius: 15px; background-color: #f0fff0;"">
                    WORTH<br>$1
                </div>
            </div>
            <div class=""question-area"">
                <p style=""font-size: 20px; font-weight: bold; margin: 0;"">Was there a person in this image?</p>
            </div>","0","part2_value_learning","","saving_a_cat_causal","4","","",""
"","","","","","instructions","146","467249","0.0-146.0","0956CF464AD845D38024138ABE179627","019ce76a-6dcf-7619-b03d-86c41c553802","019ce768-b048-7627-b827-888248f65c31","[{""page_index"":0,""viewing_time"":2282}]","2282","","","","","","","","",""
"","","","","","instructions","147","468982","0.0-147.0","0956CF464AD845D38024138ABE179627","019ce76a-6dcf-7619-b03d-86c41c553802","019ce768-b048-7627-b827-888248f65c31","[{""page_index"":0,""viewing_time"":1733}]","1733","","","","","","","","",""
"","","","","","html-keyboard-response","148","478985","0.0-148.0-0.0","0956CF464AD845D38024138ABE179627","019ce76a-6dcf-7619-b03d-86c41c553802","019ce768-b048-7627-b827-888248f65c31","","null","
                        <div style=""font-family: Arial; margin-bottom: 20px;""><h3>Which image is more valuable?</h3></div>
                        <div class=""stimulus-container"" style=""display: flex; width: 1100px; justify-content: center; gap: 50px;"">
                            <img src=""images/causal_sequence/coin_causal/coin_causal_8.png"" class=""exp-image"">
                            <img src=""images/causal_sequence/coin_causal/coin_causal_4.png"" class=""exp-image"">
                        </div>","null","","","","","","",""
"","","","","","html-button-response","149","485583","0.0-148.0-1.0","0956CF464AD845D38024138ABE179627","019ce76a-6dcf-7619-b03d-86c41c553802","019ce768-b048-7627-b827-888248f65c31","","6596","
                        <div style=""font-family: Arial; margin-bottom: 20px;""><h3>Which image is more valuable?</h3></div>
                        <div class=""stimulus-container"" style=""display: flex; width: 1100px; justify-content: center; gap: 50px;"">
                            <img src=""images/causal_sequence/coin_causal/coin_causal_8.png"" class=""exp-image"">
                            <img src=""images/causal_sequence/coin_causal/coin_causal_4.png"" class=""exp-image"">
                        </div>","1","part3_final_choice","","coin_causal","","6","4","-2"
"","","","","","html-keyboard-response","150","495586","0.0-149.0-0.0","0956CF464AD845D38024138ABE179627","019ce76a-6dcf-7619-b03d-86c41c553802","019ce768-b048-7627-b827-888248f65c31","","null","
                        <div style=""font-family: Arial; margin-bottom: 20px;""><h3>Which image is more valuable?</h3></div>
                        <div class=""stimulus-container"" style=""display: flex; width: 1100px; justify-content: center; gap: 50px;"">
                            <img src=""images/causal_sequence/dog_causal/dog_causal_4.png"" class=""exp-image"">
                            <img src=""images/causal_sequence/dog_causal/dog_causal_8.png"" class=""exp-image"">
                        </div>","null","","","","","","",""
"","","","","","html-button-response","151","497549","0.0-149.0-1.0","0956CF464AD845D38024138ABE179627","019ce76a-6dcf-7619-b03d-86c41c553802","019ce768-b048-7627-b827-888248f65c31","","1961","
                        <div style=""font-family: Arial; margin-bottom: 20px;""><h3>Which image is more valuable?</h3></div>
                        <div class=""stimulus-container"" style=""display: flex; width: 1100px; justify-content: center; gap: 50px;"">
                            <img src=""images/causal_sequence/dog_causal/dog_causal_4.png"" class=""exp-image"">
                            <img src=""images/causal_sequence/dog_causal/dog_causal_8.png"" class=""exp-image"">
                        </div>","0","part3_final_choice","","dog_causal","","6","4","-2"
"","","","","","html-keyboard-response","152","507553","0.0-150.0-0.0","0956CF464AD845D38024138ABE179627","019ce76a-6dcf-7619-b03d-86c41c553802","019ce768-b048-7627-b827-888248f65c31","","null","
                        <div style=""font-family: Arial; margin-bottom: 20px;""><h3>Which image is more valuable?</h3></div>
                        <div class=""stimulus-container"" style=""display: flex; width: 1100px; justify-content: center; gap: 50px;"">
                            <img src=""images/causal_sequence/saving_a_cat_causal/saving_a_cat_causal_6.png"" class=""exp-image"">
                            <img src=""images/causal_sequence/saving_a_cat_causal/saving_a_cat_causal_2.png"" class=""exp-image"">
                        </div>","null","","","","","","",""
"","","","","","html-button-response","153","508983","0.0-150.0-1.0","0956CF464AD845D38024138ABE179627","019ce76a-6dcf-7619-b03d-86c41c553802","019ce768-b048-7627-b827-888248f65c31","","1428","
                        <div style=""font-family: Arial; margin-bottom: 20px;""><h3>Which image is more valuable?</h3></div>
                        <div class=""stimulus-container"" style=""display: flex; width: 1100px; justify-content: center; gap: 50px;"">
                            <img src=""images/causal_sequence/saving_a_cat_causal/saving_a_cat_causal_6.png"" class=""exp-image"">
                            <img src=""images/causal_sequence/saving_a_cat_causal/saving_a_cat_causal_2.png"" class=""exp-image"">
                        </div>","0","part3_final_choice","","saving_a_cat_causal","","4","6","2"
"","","","","","html-keyboard-response","154","518986","0.0-151.0-0.0","0956CF464AD845D38024138ABE179627","019ce76a-6dcf-7619-b03d-86c41c553802","019ce768-b048-7627-b827-888248f65c31","","null","
                        <div style=""font-family: Arial; margin-bottom: 20px;""><h3>Which image is more valuable?</h3></div>
                        <div class=""stimulus-container"" style=""display: flex; width: 1100px; justify-content: center; gap: 50px;"">
                            <img src=""images/causal_sequence/package_causal/package_causal_4.png"" class=""exp-image"">
                            <img src=""images/causal_sequence/package_causal/package_causal_8.png"" class=""exp-image"">
                        </div>","null","","","","","","",""
"","","","","","html-button-response","155","520000","0.0-151.0-1.0","0956CF464AD845D38024138ABE179627","019ce76a-6dcf-7619-b03d-86c41c553802","019ce768-b048-7627-b827-888248f65c31","","1012","
                        <div style=""font-family: Arial; margin-bottom: 20px;""><h3>Which image is more valuable?</h3></div>
                        <div class=""stimulus-container"" style=""display: flex; width: 1100px; justify-content: center; gap: 50px;"">
                            <img src=""images/causal_sequence/package_causal/package_causal_4.png"" class=""exp-image"">
                            <img src=""images/causal_sequence/package_causal/package_causal_8.png"" class=""exp-image"">
                        </div>","1","part3_final_choice","","package_causal","","6","8","2"
"","","","","","html-keyboard-response","156","530002","0.0-152.0-0.0","0956CF464AD845D38024138ABE179627","019ce76a-6dcf-7619-b03d-86c41c553802","019ce768-b048-7627-b827-888248f65c31","","null","
                        <div style=""font-family: Arial; margin-bottom: 20px;""><h3>Which image is more valuable?</h3></div>
                        <div class=""stimulus-container"" style=""display: flex; width: 1100px; justify-content: center; gap: 50px;"">
                            <img src=""images/causal_sequence/museum_causal/museum_causal_7.png"" class=""exp-image"">
                            <img src=""images/causal_sequence/museum_causal/museum_causal_3.png"" class=""exp-image"">
                        </div>","null","","","","","","",""
"","","","","","html-button-response","157","531451","0.0-152.0-1.0","0956CF464AD845D38024138ABE179627","019ce76a-6dcf-7619-b03d-86c41c553802","019ce768-b048-7627-b827-888248f65c31","","1447","
                        <div style=""font-family: Arial; margin-bottom: 20px;""><h3>Which image is more valuable?</h3></div>
                        <div class=""stimulus-container"" style=""display: flex; width: 1100px; justify-content: center; gap: 50px;"">
                            <img src=""images/causal_sequence/museum_causal/museum_causal_7.png"" class=""exp-image"">
                            <img src=""images/causal_sequence/museum_causal/museum_causal_3.png"" class=""exp-image"">
                        </div>","1","part3_final_choice","","museum_causal","","5","3","-2"
"","","","","","html-keyboard-response","158","541454","0.0-153.0-0.0","0956CF464AD845D38024138ABE179627","019ce76a-6dcf-7619-b03d-86c41c553802","019ce768-b048-7627-b827-888248f65c31","","null","
                        <div style=""font-family: Arial; margin-bottom: 20px;""><h3>Which image is more valuable?</h3></div>
                        <div class=""stimulus-container"" style=""display: flex; width: 1100px; justify-content: center; gap: 50px;"">
                            <img src=""images/causal_sequence/the_performance_causal/the_performance_causal_2.png"" class=""exp-image"">
                            <img src=""images/causal_sequence/the_performance_causal/the_performance_causal_6.png"" class=""exp-image"">
                        </div>","null","","","","","","",""
"","","","","","html-button-response","159","542916","0.0-153.0-1.0","0956CF464AD845D38024138ABE179627","019ce76a-6dcf-7619-b03d-86c41c553802","019ce768-b048-7627-b827-888248f65c31","","1461","
                        <div style=""font-family: Arial; margin-bottom: 20px;""><h3>Which image is more valuable?</h3></div>
                        <div class=""stimulus-container"" style=""display: flex; width: 1100px; justify-content: center; gap: 50px;"">
                            <img src=""images/causal_sequence/the_performance_causal/the_performance_causal_2.png"" class=""exp-image"">
                            <img src=""images/causal_sequence/the_performance_causal/the_performance_causal_6.png"" class=""exp-image"">
                        </div>","0","part3_final_choice","","the_performance_causal","","4","2","-2"
"","","","","","survey-text","160","596219","0.0-154.0","0956CF464AD845D38024138ABE179627","019ce76a-6dcf-7619-b03d-86c41c553802","019ce768-b048-7627-b827-888248f65c31","","53296","","{""gender"":""MALE"",""age"":""21"",""decision_strategy"":""Based on the visual appeal"",""consistency_check"":""Mostly using visual appeal""}","demographics_and_strategy","","","","","",""
"","","","","","instructions","161","599333","0.0-155.0","0956CF464AD845D38024138ABE179627","019ce76a-6dcf-7619-b03d-86c41c553802","019ce768-b048-7627-b827-888248f65c31","[{""page_index"":0,""viewing_time"":3112}]","3113","","","","","","","","",""
