"success","timeout","failed_images","failed_audio","failed_video","trial_type","trial_index","time_elapsed","internal_node_id","subject_id","study_id","session_id","view_history","rt","stimulus","response","task","image_index","folder","sequence_type","valuable_image_index","reward_type","chosen_image_index","target_X","correct_choice"
"true","false","[]","[]","[]","preload","0","61936","0.0-0.0","A99BD59C13C74E678DBBBCECDF90A207","019cf70b-0856-7241-8c89-768febd58fe2","019cf6fe-235e-7d95-bb9b-b011d2fe188e","","","","","","","","","","","","",""
"","","","","","instructions","1","78808","0.0-1.0","A99BD59C13C74E678DBBBCECDF90A207","019cf70b-0856-7241-8c89-768febd58fe2","019cf6fe-235e-7d95-bb9b-b011d2fe188e","[{""page_index"":0,""viewing_time"":16870}]","16870","","","","","","","","","","",""
"","","","","","instructions","2","154708","0.0-2.0","A99BD59C13C74E678DBBBCECDF90A207","019cf70b-0856-7241-8c89-768febd58fe2","019cf6fe-235e-7d95-bb9b-b011d2fe188e","[{""page_index"":0,""viewing_time"":75899}]","75899","","","","","","","","","","",""
"true","","","","","fullscreen","3","182691","0.0-3.0","A99BD59C13C74E678DBBBCECDF90A207","019cf70b-0856-7241-8c89-768febd58fe2","019cf6fe-235e-7d95-bb9b-b011d2fe188e","","26965","","","","","","","","","","",""
"","","","","","instructions","4","201576","0.0-4.0","A99BD59C13C74E678DBBBCECDF90A207","019cf70b-0856-7241-8c89-768febd58fe2","019cf6fe-235e-7d95-bb9b-b011d2fe188e","[{""page_index"":0,""viewing_time"":18882}]","18883","","","","","","","","","","",""
"","","","","","instructions","5","209583","0.0-5.0","A99BD59C13C74E678DBBBCECDF90A207","019cf70b-0856-7241-8c89-768febd58fe2","019cf6fe-235e-7d95-bb9b-b011d2fe188e","[{""page_index"":0,""viewing_time"":8003}]","8003","","","","","","","","","","",""
"","","","","","html-keyboard-response","6","213594","0.0-6.0","A99BD59C13C74E678DBBBCECDF90A207","019cf70b-0856-7241-8c89-768febd58fe2","019cf6fe-235e-7d95-bb9b-b011d2fe188e","","null","
                <div class=""stimulus-container"">
                    <img src=""images/instructions/movie_1.png"" class=""exp-image"">
                    <div class=""question-area""></div> 
                </div>","null","","","","","","","","",""
"","","","","","html-button-response","7","216606","0.0-7.0","A99BD59C13C74E678DBBBCECDF90A207","019cf70b-0856-7241-8c89-768febd58fe2","019cf6fe-235e-7d95-bb9b-b011d2fe188e","","null","
                <div class=""stimulus-container"">
                    <img src=""images/instructions/movie_1.png"" class=""exp-image"">
                    <div class=""question-area"">
                        <p style=""font-size: 20px; font-weight: bold; margin: 0;"">Was there a person in this image?</p>
                    </div>
                </div>","null","example_question","1","","","","","","",""
"","","","","","html-keyboard-response","8","220617","0.0-8.0","A99BD59C13C74E678DBBBCECDF90A207","019cf70b-0856-7241-8c89-768febd58fe2","019cf6fe-235e-7d95-bb9b-b011d2fe188e","","null","
                <div class=""stimulus-container"">
                    <img src=""images/instructions/movie_2.png"" class=""exp-image"">
                    <div class=""question-area""></div> 
                </div>","null","","","","","","","","",""
"","","","","","html-button-response","9","223570","0.0-9.0","A99BD59C13C74E678DBBBCECDF90A207","019cf70b-0856-7241-8c89-768febd58fe2","019cf6fe-235e-7d95-bb9b-b011d2fe188e","","2949","
                <div class=""stimulus-container"">
                    <img src=""images/instructions/movie_2.png"" class=""exp-image"">
                    <div class=""question-area"">
                        <p style=""font-size: 20px; font-weight: bold; margin: 0;"">Was there a person in this image?</p>
                    </div>
                </div>","0","example_question","2","","","","","","",""
"","","","","","html-keyboard-response","10","227573","0.0-10.0","A99BD59C13C74E678DBBBCECDF90A207","019cf70b-0856-7241-8c89-768febd58fe2","019cf6fe-235e-7d95-bb9b-b011d2fe188e","","null","
                <div class=""stimulus-container"">
                    <img src=""images/instructions/movie_3.png"" class=""exp-image"">
                    <div class=""question-area""></div> 
                </div>","null","","","","","","","","",""
"","","","","","html-button-response","11","229685","0.0-11.0","A99BD59C13C74E678DBBBCECDF90A207","019cf70b-0856-7241-8c89-768febd58fe2","019cf6fe-235e-7d95-bb9b-b011d2fe188e","","2110","
                <div class=""stimulus-container"">
                    <img src=""images/instructions/movie_3.png"" class=""exp-image"">
                    <div class=""question-area"">
                        <p style=""font-size: 20px; font-weight: bold; margin: 0;"">Was there a person in this image?</p>
                    </div>
                </div>","0","example_question","3","","","","","","",""
"","","","","","html-keyboard-response","12","233695","0.0-12.0","A99BD59C13C74E678DBBBCECDF90A207","019cf70b-0856-7241-8c89-768febd58fe2","019cf6fe-235e-7d95-bb9b-b011d2fe188e","","null","
                <div class=""stimulus-container"">
                    <img src=""images/instructions/movie_4.png"" class=""exp-image"">
                    <div class=""question-area""></div> 
                </div>","null","","","","","","","","",""
"","","","","","html-button-response","13","234979","0.0-13.0","A99BD59C13C74E678DBBBCECDF90A207","019cf70b-0856-7241-8c89-768febd58fe2","019cf6fe-235e-7d95-bb9b-b011d2fe188e","","1278","
                <div class=""stimulus-container"">
                    <img src=""images/instructions/movie_4.png"" class=""exp-image"">
                    <div class=""question-area"">
                        <p style=""font-size: 20px; font-weight: bold; margin: 0;"">Was there a person in this image?</p>
                    </div>
                </div>","0","example_question","4","","","","","","",""
"","","","","","instructions","14","236537","0.0-14.0","A99BD59C13C74E678DBBBCECDF90A207","019cf70b-0856-7241-8c89-768febd58fe2","019cf6fe-235e-7d95-bb9b-b011d2fe188e","[{""page_index"":0,""viewing_time"":1555}]","1556","","","","","","","","","","",""
"","","","","","instructions","15","238026","0.0-15.0","A99BD59C13C74E678DBBBCECDF90A207","019cf70b-0856-7241-8c89-768febd58fe2","019cf6fe-235e-7d95-bb9b-b011d2fe188e","[{""page_index"":0,""viewing_time"":1487}]","1487","","","","","","","","","","",""
"","","","","","html-keyboard-response","16","239032","0.0-16.0","A99BD59C13C74E678DBBBCECDF90A207","019cf70b-0856-7241-8c89-768febd58fe2","019cf6fe-235e-7d95-bb9b-b011d2fe188e","","null","<div style=""background-color: white; width: 100vw; height: 100vh;""></div>","null","","","","","","","","",""
"","","","","","html-keyboard-response","17","244043","0.0-17.0","A99BD59C13C74E678DBBBCECDF90A207","019cf70b-0856-7241-8c89-768febd58fe2","019cf6fe-235e-7d95-bb9b-b011d2fe188e","","null","
                <div class=""stimulus-container"">
                    <img src=""images/schematic_sequence/dinner_party_scheme/dinner_party_scheme_1.png"" class=""exp-image"">
                    <div class=""question-area""></div> 
                </div>","null","","","","","","","","",""
"","","","","","html-button-response","18","245051","0.0-18.0","A99BD59C13C74E678DBBBCECDF90A207","019cf70b-0856-7241-8c89-768febd58fe2","019cf6fe-235e-7d95-bb9b-b011d2fe188e","","1006","
                <div class=""stimulus-container"">
                    <img src=""images/schematic_sequence/dinner_party_scheme/dinner_party_scheme_1.png"" class=""exp-image"">
                    <div class=""question-area"">
                        <p style=""font-size: 20px; font-weight: bold; margin: 0;"">Is there a person in this image?</p>
                    </div>
                </div>","0","main_experiment_trial","1","dinner_party_scheme","schematic_sequence","","","","",""
"","","","","","html-keyboard-response","19","250056","0.0-19.0","A99BD59C13C74E678DBBBCECDF90A207","019cf70b-0856-7241-8c89-768febd58fe2","019cf6fe-235e-7d95-bb9b-b011d2fe188e","","null","
                <div class=""stimulus-container"">
                    <img src=""images/schematic_sequence/dinner_party_scheme/dinner_party_scheme_2.png"" class=""exp-image"">
                    <div class=""question-area""></div> 
                </div>","null","","","","","","","","",""
"","","","","","html-button-response","20","251135","0.0-20.0","A99BD59C13C74E678DBBBCECDF90A207","019cf70b-0856-7241-8c89-768febd58fe2","019cf6fe-235e-7d95-bb9b-b011d2fe188e","","1077","
                <div class=""stimulus-container"">
                    <img src=""images/schematic_sequence/dinner_party_scheme/dinner_party_scheme_2.png"" class=""exp-image"">
                    <div class=""question-area"">
                        <p style=""font-size: 20px; font-weight: bold; margin: 0;"">Is there a person in this image?</p>
                    </div>
                </div>","0","main_experiment_trial","2","dinner_party_scheme","schematic_sequence","","","","",""
"","","","","","html-keyboard-response","21","256147","0.0-21.0","A99BD59C13C74E678DBBBCECDF90A207","019cf70b-0856-7241-8c89-768febd58fe2","019cf6fe-235e-7d95-bb9b-b011d2fe188e","","null","
                <div class=""stimulus-container"">
                    <img src=""images/schematic_sequence/dinner_party_scheme/dinner_party_scheme_3.png"" class=""exp-image"">
                    <div class=""question-area""></div> 
                </div>","null","","","","","","","","",""
"","","","","","html-button-response","22","258168","0.0-22.0","A99BD59C13C74E678DBBBCECDF90A207","019cf70b-0856-7241-8c89-768febd58fe2","019cf6fe-235e-7d95-bb9b-b011d2fe188e","","2018","
                <div class=""stimulus-container"">
                    <img src=""images/schematic_sequence/dinner_party_scheme/dinner_party_scheme_3.png"" class=""exp-image"">
                    <div class=""question-area"">
                        <p style=""font-size: 20px; font-weight: bold; margin: 0;"">Is there a person in this image?</p>
                    </div>
                </div>","0","main_experiment_trial","3","dinner_party_scheme","schematic_sequence","","","","",""
"","","","","","html-keyboard-response","23","263174","0.0-23.0","A99BD59C13C74E678DBBBCECDF90A207","019cf70b-0856-7241-8c89-768febd58fe2","019cf6fe-235e-7d95-bb9b-b011d2fe188e","","null","
                <div class=""stimulus-container"">
                    <img src=""images/schematic_sequence/dinner_party_scheme/dinner_party_scheme_4.png"" class=""exp-image"">
                    <div class=""question-area""></div> 
                </div>","null","","","","","","","","",""
"","","","","","html-button-response","24","266182","0.0-24.0","A99BD59C13C74E678DBBBCECDF90A207","019cf70b-0856-7241-8c89-768febd58fe2","019cf6fe-235e-7d95-bb9b-b011d2fe188e","","null","
                <div class=""stimulus-container"">
                    <img src=""images/schematic_sequence/dinner_party_scheme/dinner_party_scheme_4.png"" class=""exp-image"">
                    <div class=""question-area"">
                        <p style=""font-size: 20px; font-weight: bold; margin: 0;"">Is there a person in this image?</p>
                    </div>
                </div>","null","main_experiment_trial","4","dinner_party_scheme","schematic_sequence","","","","",""
"","","","","","html-keyboard-response","25","271197","0.0-25.0","A99BD59C13C74E678DBBBCECDF90A207","019cf70b-0856-7241-8c89-768febd58fe2","019cf6fe-235e-7d95-bb9b-b011d2fe188e","","null","
                <div class=""stimulus-container"">
                    <img src=""images/schematic_sequence/dinner_party_scheme/dinner_party_scheme_5.png"" class=""exp-image"">
                    <div class=""question-area""></div> 
                </div>","null","","","","","","","","",""
"","","","","","html-button-response","26","272120","0.0-26.0","A99BD59C13C74E678DBBBCECDF90A207","019cf70b-0856-7241-8c89-768febd58fe2","019cf6fe-235e-7d95-bb9b-b011d2fe188e","","918","
                <div class=""stimulus-container"">
                    <img src=""images/schematic_sequence/dinner_party_scheme/dinner_party_scheme_5.png"" class=""exp-image"">
                    <div class=""question-area"">
                        <p style=""font-size: 20px; font-weight: bold; margin: 0;"">Is there a person in this image?</p>
                    </div>
                </div>","0","main_experiment_trial","5","dinner_party_scheme","schematic_sequence","","","","",""
"","","","","","html-keyboard-response","27","277128","0.0-27.0","A99BD59C13C74E678DBBBCECDF90A207","019cf70b-0856-7241-8c89-768febd58fe2","019cf6fe-235e-7d95-bb9b-b011d2fe188e","","null","
                <div class=""stimulus-container"">
                    <img src=""images/schematic_sequence/dinner_party_scheme/dinner_party_scheme_6.png"" class=""exp-image"">
                    <div class=""question-area""></div> 
                </div>","null","","","","","","","","",""
"","","","","","html-button-response","28","278638","0.0-28.0","A99BD59C13C74E678DBBBCECDF90A207","019cf70b-0856-7241-8c89-768febd58fe2","019cf6fe-235e-7d95-bb9b-b011d2fe188e","","1505","
                <div class=""stimulus-container"">
                    <img src=""images/schematic_sequence/dinner_party_scheme/dinner_party_scheme_6.png"" class=""exp-image"">
                    <div class=""question-area"">
                        <p style=""font-size: 20px; font-weight: bold; margin: 0;"">Is there a person in this image?</p>
                    </div>
                </div>","0","main_experiment_trial","6","dinner_party_scheme","schematic_sequence","","","","",""
"","","","","","html-keyboard-response","29","283647","0.0-29.0","A99BD59C13C74E678DBBBCECDF90A207","019cf70b-0856-7241-8c89-768febd58fe2","019cf6fe-235e-7d95-bb9b-b011d2fe188e","","null","
                <div class=""stimulus-container"">
                    <img src=""images/schematic_sequence/dinner_party_scheme/dinner_party_scheme_7.png"" class=""exp-image"">
                    <div class=""question-area""></div> 
                </div>","null","","","","","","","","",""
"","","","","","html-button-response","30","285061","0.0-30.0","A99BD59C13C74E678DBBBCECDF90A207","019cf70b-0856-7241-8c89-768febd58fe2","019cf6fe-235e-7d95-bb9b-b011d2fe188e","","1413","
                <div class=""stimulus-container"">
                    <img src=""images/schematic_sequence/dinner_party_scheme/dinner_party_scheme_7.png"" class=""exp-image"">
                    <div class=""question-area"">
                        <p style=""font-size: 20px; font-weight: bold; margin: 0;"">Is there a person in this image?</p>
                    </div>
                </div>","0","main_experiment_trial","7","dinner_party_scheme","schematic_sequence","","","","",""
"","","","","","html-keyboard-response","31","290068","0.0-31.0","A99BD59C13C74E678DBBBCECDF90A207","019cf70b-0856-7241-8c89-768febd58fe2","019cf6fe-235e-7d95-bb9b-b011d2fe188e","","null","
                <div class=""stimulus-container"">
                    <img src=""images/schematic_sequence/dinner_party_scheme/dinner_party_scheme_8.png"" class=""exp-image"">
                    <div class=""question-area""></div> 
                </div>","null","","","","","","","","",""
"","","","","","html-button-response","32","293086","0.0-32.0","A99BD59C13C74E678DBBBCECDF90A207","019cf70b-0856-7241-8c89-768febd58fe2","019cf6fe-235e-7d95-bb9b-b011d2fe188e","","null","
                <div class=""stimulus-container"">
                    <img src=""images/schematic_sequence/dinner_party_scheme/dinner_party_scheme_8.png"" class=""exp-image"">
                    <div class=""question-area"">
                        <p style=""font-size: 20px; font-weight: bold; margin: 0;"">Is there a person in this image?</p>
                    </div>
                </div>","null","main_experiment_trial","8","dinner_party_scheme","schematic_sequence","","","","",""
"","","","","","html-keyboard-response","33","298099","0.0-33.0","A99BD59C13C74E678DBBBCECDF90A207","019cf70b-0856-7241-8c89-768febd58fe2","019cf6fe-235e-7d95-bb9b-b011d2fe188e","","null","
                <div class=""stimulus-container"">
                    <img src=""images/schematic_sequence/dinner_party_scheme/dinner_party_scheme_9.png"" class=""exp-image"">
                    <div class=""question-area""></div> 
                </div>","null","","","","","","","","",""
"","","","","","html-button-response","34","300640","0.0-34.0","A99BD59C13C74E678DBBBCECDF90A207","019cf70b-0856-7241-8c89-768febd58fe2","019cf6fe-235e-7d95-bb9b-b011d2fe188e","","2539","
                <div class=""stimulus-container"">
                    <img src=""images/schematic_sequence/dinner_party_scheme/dinner_party_scheme_9.png"" class=""exp-image"">
                    <div class=""question-area"">
                        <p style=""font-size: 20px; font-weight: bold; margin: 0;"">Is there a person in this image?</p>
                    </div>
                </div>","0","main_experiment_trial","9","dinner_party_scheme","schematic_sequence","","","","",""
"","","","","","html-keyboard-response","35","305648","0.0-35.0","A99BD59C13C74E678DBBBCECDF90A207","019cf70b-0856-7241-8c89-768febd58fe2","019cf6fe-235e-7d95-bb9b-b011d2fe188e","","null","
                <div class=""stimulus-container"">
                    <img src=""images/schematic_sequence/dinner_party_scheme/dinner_party_scheme_ten.png"" class=""exp-image"">
                    <div class=""question-area""></div> 
                </div>","null","","","","","","","","",""
"","","","","","html-button-response","36","308667","0.0-36.0","A99BD59C13C74E678DBBBCECDF90A207","019cf70b-0856-7241-8c89-768febd58fe2","019cf6fe-235e-7d95-bb9b-b011d2fe188e","","null","
                <div class=""stimulus-container"">
                    <img src=""images/schematic_sequence/dinner_party_scheme/dinner_party_scheme_ten.png"" class=""exp-image"">
                    <div class=""question-area"">
                        <p style=""font-size: 20px; font-weight: bold; margin: 0;"">Is there a person in this image?</p>
                    </div>
                </div>","null","main_experiment_trial","ten","dinner_party_scheme","schematic_sequence","","","","",""
"","","","","","html-keyboard-response","37","309681","0.0-37.0","A99BD59C13C74E678DBBBCECDF90A207","019cf70b-0856-7241-8c89-768febd58fe2","019cf6fe-235e-7d95-bb9b-b011d2fe188e","","null","<div style=""background-color: white; width: 100vw; height: 100vh;""></div>","null","","","","","","","","",""
"","","","","","html-keyboard-response","38","314693","0.0-38.0","A99BD59C13C74E678DBBBCECDF90A207","019cf70b-0856-7241-8c89-768febd58fe2","019cf6fe-235e-7d95-bb9b-b011d2fe188e","","null","
                <div class=""stimulus-container"">
                    <img src=""images/causal_sequence/dog_causal/dog_causal_1.png"" class=""exp-image"">
                    <div class=""question-area""></div> 
                </div>","null","","","","","","","","",""
"","","","","","html-button-response","39","317711","0.0-39.0","A99BD59C13C74E678DBBBCECDF90A207","019cf70b-0856-7241-8c89-768febd58fe2","019cf6fe-235e-7d95-bb9b-b011d2fe188e","","null","
                <div class=""stimulus-container"">
                    <img src=""images/causal_sequence/dog_causal/dog_causal_1.png"" class=""exp-image"">
                    <div class=""question-area"">
                        <p style=""font-size: 20px; font-weight: bold; margin: 0;"">Is there a person in this image?</p>
                    </div>
                </div>","null","main_experiment_trial","1","dog_causal","causal_sequence","","","","",""
"","","","","","html-keyboard-response","40","322716","0.0-40.0","A99BD59C13C74E678DBBBCECDF90A207","019cf70b-0856-7241-8c89-768febd58fe2","019cf6fe-235e-7d95-bb9b-b011d2fe188e","","null","
                <div class=""stimulus-container"">
                    <img src=""images/causal_sequence/dog_causal/dog_causal_2.png"" class=""exp-image"">
                    <div class=""question-area""></div> 
                </div>","null","","","","","","","","",""
"","","","","","html-button-response","41","323411","0.0-41.0","A99BD59C13C74E678DBBBCECDF90A207","019cf70b-0856-7241-8c89-768febd58fe2","019cf6fe-235e-7d95-bb9b-b011d2fe188e","","692","
                <div class=""stimulus-container"">
                    <img src=""images/causal_sequence/dog_causal/dog_causal_2.png"" class=""exp-image"">
                    <div class=""question-area"">
                        <p style=""font-size: 20px; font-weight: bold; margin: 0;"">Is there a person in this image?</p>
                    </div>
                </div>","0","main_experiment_trial","2","dog_causal","causal_sequence","","","","",""
"","","","","","html-keyboard-response","42","328429","0.0-42.0","A99BD59C13C74E678DBBBCECDF90A207","019cf70b-0856-7241-8c89-768febd58fe2","019cf6fe-235e-7d95-bb9b-b011d2fe188e","","null","
                <div class=""stimulus-container"">
                    <img src=""images/causal_sequence/dog_causal/dog_causal_3.png"" class=""exp-image"">
                    <div class=""question-area""></div> 
                </div>","null","","","","","","","","",""
"","","","","","html-button-response","43","331434","0.0-43.0","A99BD59C13C74E678DBBBCECDF90A207","019cf70b-0856-7241-8c89-768febd58fe2","019cf6fe-235e-7d95-bb9b-b011d2fe188e","","null","
                <div class=""stimulus-container"">
                    <img src=""images/causal_sequence/dog_causal/dog_causal_3.png"" class=""exp-image"">
                    <div class=""question-area"">
                        <p style=""font-size: 20px; font-weight: bold; margin: 0;"">Is there a person in this image?</p>
                    </div>
                </div>","null","main_experiment_trial","3","dog_causal","causal_sequence","","","","",""
"","","","","","html-keyboard-response","44","336436","0.0-44.0","A99BD59C13C74E678DBBBCECDF90A207","019cf70b-0856-7241-8c89-768febd58fe2","019cf6fe-235e-7d95-bb9b-b011d2fe188e","","null","
                <div class=""stimulus-container"">
                    <img src=""images/causal_sequence/dog_causal/dog_causal_4.png"" class=""exp-image"">
                    <div class=""question-area""></div> 
                </div>","null","","","","","","","","",""
"","","","","","html-button-response","45","337863","0.0-45.0","A99BD59C13C74E678DBBBCECDF90A207","019cf70b-0856-7241-8c89-768febd58fe2","019cf6fe-235e-7d95-bb9b-b011d2fe188e","","1422","
                <div class=""stimulus-container"">
                    <img src=""images/causal_sequence/dog_causal/dog_causal_4.png"" class=""exp-image"">
                    <div class=""question-area"">
                        <p style=""font-size: 20px; font-weight: bold; margin: 0;"">Is there a person in this image?</p>
                    </div>
                </div>","0","main_experiment_trial","4","dog_causal","causal_sequence","","","","",""
"","","","","","html-keyboard-response","46","342879","0.0-46.0","A99BD59C13C74E678DBBBCECDF90A207","019cf70b-0856-7241-8c89-768febd58fe2","019cf6fe-235e-7d95-bb9b-b011d2fe188e","","null","
                <div class=""stimulus-container"">
                    <img src=""images/causal_sequence/dog_causal/dog_causal_5.png"" class=""exp-image"">
                    <div class=""question-area""></div> 
                </div>","null","","","","","","","","",""
"","","","","","html-button-response","47","345895","0.0-47.0","A99BD59C13C74E678DBBBCECDF90A207","019cf70b-0856-7241-8c89-768febd58fe2","019cf6fe-235e-7d95-bb9b-b011d2fe188e","","null","
                <div class=""stimulus-container"">
                    <img src=""images/causal_sequence/dog_causal/dog_causal_5.png"" class=""exp-image"">
                    <div class=""question-area"">
                        <p style=""font-size: 20px; font-weight: bold; margin: 0;"">Is there a person in this image?</p>
                    </div>
                </div>","null","main_experiment_trial","5","dog_causal","causal_sequence","","","","",""
"","","","","","html-keyboard-response","48","350907","0.0-48.0","A99BD59C13C74E678DBBBCECDF90A207","019cf70b-0856-7241-8c89-768febd58fe2","019cf6fe-235e-7d95-bb9b-b011d2fe188e","","null","
                <div class=""stimulus-container"">
                    <img src=""images/causal_sequence/dog_causal/dog_causal_6.png"" class=""exp-image"">
                    <div class=""question-area""></div> 
                </div>","null","","","","","","","","",""
"","","","","","html-button-response","49","353919","0.0-49.0","A99BD59C13C74E678DBBBCECDF90A207","019cf70b-0856-7241-8c89-768febd58fe2","019cf6fe-235e-7d95-bb9b-b011d2fe188e","","null","
                <div class=""stimulus-container"">
                    <img src=""images/causal_sequence/dog_causal/dog_causal_6.png"" class=""exp-image"">
                    <div class=""question-area"">
                        <p style=""font-size: 20px; font-weight: bold; margin: 0;"">Is there a person in this image?</p>
                    </div>
                </div>","null","main_experiment_trial","6","dog_causal","causal_sequence","","","","",""
"","","","","","html-keyboard-response","50","358925","0.0-50.0","A99BD59C13C74E678DBBBCECDF90A207","019cf70b-0856-7241-8c89-768febd58fe2","019cf6fe-235e-7d95-bb9b-b011d2fe188e","","null","
                <div class=""stimulus-container"">
                    <img src=""images/causal_sequence/dog_causal/dog_causal_7.png"" class=""exp-image"">
                    <div class=""question-area""></div> 
                </div>","null","","","","","","","","",""
"","","","","","html-button-response","51","359693","0.0-51.0","A99BD59C13C74E678DBBBCECDF90A207","019cf70b-0856-7241-8c89-768febd58fe2","019cf6fe-235e-7d95-bb9b-b011d2fe188e","","766","
                <div class=""stimulus-container"">
                    <img src=""images/causal_sequence/dog_causal/dog_causal_7.png"" class=""exp-image"">
                    <div class=""question-area"">
                        <p style=""font-size: 20px; font-weight: bold; margin: 0;"">Is there a person in this image?</p>
                    </div>
                </div>","0","main_experiment_trial","7","dog_causal","causal_sequence","","","","",""
"","","","","","html-keyboard-response","52","364701","0.0-52.0","A99BD59C13C74E678DBBBCECDF90A207","019cf70b-0856-7241-8c89-768febd58fe2","019cf6fe-235e-7d95-bb9b-b011d2fe188e","","null","
                <div class=""stimulus-container"">
                    <img src=""images/causal_sequence/dog_causal/dog_causal_8.png"" class=""exp-image"">
                    <div class=""question-area""></div> 
                </div>","null","","","","","","","","",""
"","","","","","html-button-response","53","366870","0.0-53.0","A99BD59C13C74E678DBBBCECDF90A207","019cf70b-0856-7241-8c89-768febd58fe2","019cf6fe-235e-7d95-bb9b-b011d2fe188e","","2165","
                <div class=""stimulus-container"">
                    <img src=""images/causal_sequence/dog_causal/dog_causal_8.png"" class=""exp-image"">
                    <div class=""question-area"">
                        <p style=""font-size: 20px; font-weight: bold; margin: 0;"">Is there a person in this image?</p>
                    </div>
                </div>","0","main_experiment_trial","8","dog_causal","causal_sequence","","","","",""
"","","","","","html-keyboard-response","54","371874","0.0-54.0","A99BD59C13C74E678DBBBCECDF90A207","019cf70b-0856-7241-8c89-768febd58fe2","019cf6fe-235e-7d95-bb9b-b011d2fe188e","","null","
                <div class=""stimulus-container"">
                    <img src=""images/causal_sequence/dog_causal/dog_causal_9.png"" class=""exp-image"">
                    <div class=""question-area""></div> 
                </div>","null","","","","","","","","",""
"","","","","","html-button-response","55","373001","0.0-55.0","A99BD59C13C74E678DBBBCECDF90A207","019cf70b-0856-7241-8c89-768febd58fe2","019cf6fe-235e-7d95-bb9b-b011d2fe188e","","1124","
                <div class=""stimulus-container"">
                    <img src=""images/causal_sequence/dog_causal/dog_causal_9.png"" class=""exp-image"">
                    <div class=""question-area"">
                        <p style=""font-size: 20px; font-weight: bold; margin: 0;"">Is there a person in this image?</p>
                    </div>
                </div>","0","main_experiment_trial","9","dog_causal","causal_sequence","","","","",""
"","","","","","html-keyboard-response","56","378016","0.0-56.0","A99BD59C13C74E678DBBBCECDF90A207","019cf70b-0856-7241-8c89-768febd58fe2","019cf6fe-235e-7d95-bb9b-b011d2fe188e","","null","
                <div class=""stimulus-container"">
                    <img src=""images/causal_sequence/dog_causal/dog_causal_ten.png"" class=""exp-image"">
                    <div class=""question-area""></div> 
                </div>","null","","","","","","","","",""
"","","","","","html-button-response","57","381026","0.0-57.0","A99BD59C13C74E678DBBBCECDF90A207","019cf70b-0856-7241-8c89-768febd58fe2","019cf6fe-235e-7d95-bb9b-b011d2fe188e","","null","
                <div class=""stimulus-container"">
                    <img src=""images/causal_sequence/dog_causal/dog_causal_ten.png"" class=""exp-image"">
                    <div class=""question-area"">
                        <p style=""font-size: 20px; font-weight: bold; margin: 0;"">Is there a person in this image?</p>
                    </div>
                </div>","null","main_experiment_trial","ten","dog_causal","causal_sequence","","","","",""
"","","","","","html-keyboard-response","58","382032","0.0-58.0","A99BD59C13C74E678DBBBCECDF90A207","019cf70b-0856-7241-8c89-768febd58fe2","019cf6fe-235e-7d95-bb9b-b011d2fe188e","","null","<div style=""background-color: white; width: 100vw; height: 100vh;""></div>","null","","","","","","","","",""
"","","","","","html-keyboard-response","59","387037","0.0-59.0","A99BD59C13C74E678DBBBCECDF90A207","019cf70b-0856-7241-8c89-768febd58fe2","019cf6fe-235e-7d95-bb9b-b011d2fe188e","","null","
                <div class=""stimulus-container"">
                    <img src=""images/causal_sequence/the_performance_causal/the_performance_causal_1.png"" class=""exp-image"">
                    <div class=""question-area""></div> 
                </div>","null","","","","","","","","",""
"","","","","","html-button-response","60","390044","0.0-60.0","A99BD59C13C74E678DBBBCECDF90A207","019cf70b-0856-7241-8c89-768febd58fe2","019cf6fe-235e-7d95-bb9b-b011d2fe188e","","null","
                <div class=""stimulus-container"">
                    <img src=""images/causal_sequence/the_performance_causal/the_performance_causal_1.png"" class=""exp-image"">
                    <div class=""question-area"">
                        <p style=""font-size: 20px; font-weight: bold; margin: 0;"">Is there a person in this image?</p>
                    </div>
                </div>","null","main_experiment_trial","1","the_performance_causal","causal_sequence","","","","",""
"","","","","","html-keyboard-response","61","395047","0.0-61.0","A99BD59C13C74E678DBBBCECDF90A207","019cf70b-0856-7241-8c89-768febd58fe2","019cf6fe-235e-7d95-bb9b-b011d2fe188e","","null","
                <div class=""stimulus-container"">
                    <img src=""images/causal_sequence/the_performance_causal/the_performance_causal_2.png"" class=""exp-image"">
                    <div class=""question-area""></div> 
                </div>","null","","","","","","","","",""
"","","","","","html-button-response","62","398061","0.0-62.0","A99BD59C13C74E678DBBBCECDF90A207","019cf70b-0856-7241-8c89-768febd58fe2","019cf6fe-235e-7d95-bb9b-b011d2fe188e","","null","
                <div class=""stimulus-container"">
                    <img src=""images/causal_sequence/the_performance_causal/the_performance_causal_2.png"" class=""exp-image"">
                    <div class=""question-area"">
                        <p style=""font-size: 20px; font-weight: bold; margin: 0;"">Is there a person in this image?</p>
                    </div>
                </div>","null","main_experiment_trial","2","the_performance_causal","causal_sequence","","","","",""
"","","","","","html-keyboard-response","63","403073","0.0-63.0","A99BD59C13C74E678DBBBCECDF90A207","019cf70b-0856-7241-8c89-768febd58fe2","019cf6fe-235e-7d95-bb9b-b011d2fe188e","","null","
                <div class=""stimulus-container"">
                    <img src=""images/causal_sequence/the_performance_causal/the_performance_causal_3.png"" class=""exp-image"">
                    <div class=""question-area""></div> 
                </div>","null","","","","","","","","",""
"","","","","","html-button-response","64","404722","0.0-64.0","A99BD59C13C74E678DBBBCECDF90A207","019cf70b-0856-7241-8c89-768febd58fe2","019cf6fe-235e-7d95-bb9b-b011d2fe188e","","1646","
                <div class=""stimulus-container"">
                    <img src=""images/causal_sequence/the_performance_causal/the_performance_causal_3.png"" class=""exp-image"">
                    <div class=""question-area"">
                        <p style=""font-size: 20px; font-weight: bold; margin: 0;"">Is there a person in this image?</p>
                    </div>
                </div>","0","main_experiment_trial","3","the_performance_causal","causal_sequence","","","","",""
"","","","","","html-keyboard-response","65","409734","0.0-65.0","A99BD59C13C74E678DBBBCECDF90A207","019cf70b-0856-7241-8c89-768febd58fe2","019cf6fe-235e-7d95-bb9b-b011d2fe188e","","null","
                <div class=""stimulus-container"">
                    <img src=""images/causal_sequence/the_performance_causal/the_performance_causal_4.png"" class=""exp-image"">
                    <div class=""question-area""></div> 
                </div>","null","","","","","","","","",""
"","","","","","html-button-response","66","412744","0.0-66.0","A99BD59C13C74E678DBBBCECDF90A207","019cf70b-0856-7241-8c89-768febd58fe2","019cf6fe-235e-7d95-bb9b-b011d2fe188e","","null","
                <div class=""stimulus-container"">
                    <img src=""images/causal_sequence/the_performance_causal/the_performance_causal_4.png"" class=""exp-image"">
                    <div class=""question-area"">
                        <p style=""font-size: 20px; font-weight: bold; margin: 0;"">Is there a person in this image?</p>
                    </div>
                </div>","null","main_experiment_trial","4","the_performance_causal","causal_sequence","","","","",""
"","","","","","html-keyboard-response","67","417750","0.0-67.0","A99BD59C13C74E678DBBBCECDF90A207","019cf70b-0856-7241-8c89-768febd58fe2","019cf6fe-235e-7d95-bb9b-b011d2fe188e","","null","
                <div class=""stimulus-container"">
                    <img src=""images/causal_sequence/the_performance_causal/the_performance_causal_5.png"" class=""exp-image"">
                    <div class=""question-area""></div> 
                </div>","null","","","","","","","","",""
"","","","","","html-button-response","68","419035","0.0-68.0","A99BD59C13C74E678DBBBCECDF90A207","019cf70b-0856-7241-8c89-768febd58fe2","019cf6fe-235e-7d95-bb9b-b011d2fe188e","","1283","
                <div class=""stimulus-container"">
                    <img src=""images/causal_sequence/the_performance_causal/the_performance_causal_5.png"" class=""exp-image"">
                    <div class=""question-area"">
                        <p style=""font-size: 20px; font-weight: bold; margin: 0;"">Is there a person in this image?</p>
                    </div>
                </div>","0","main_experiment_trial","5","the_performance_causal","causal_sequence","","","","",""
"","","","","","html-keyboard-response","69","424042","0.0-69.0","A99BD59C13C74E678DBBBCECDF90A207","019cf70b-0856-7241-8c89-768febd58fe2","019cf6fe-235e-7d95-bb9b-b011d2fe188e","","null","
                <div class=""stimulus-container"">
                    <img src=""images/causal_sequence/the_performance_causal/the_performance_causal_6.png"" class=""exp-image"">
                    <div class=""question-area""></div> 
                </div>","null","","","","","","","","",""
"","","","","","html-button-response","70","426063","0.0-70.0","A99BD59C13C74E678DBBBCECDF90A207","019cf70b-0856-7241-8c89-768febd58fe2","019cf6fe-235e-7d95-bb9b-b011d2fe188e","","2019","
                <div class=""stimulus-container"">
                    <img src=""images/causal_sequence/the_performance_causal/the_performance_causal_6.png"" class=""exp-image"">
                    <div class=""question-area"">
                        <p style=""font-size: 20px; font-weight: bold; margin: 0;"">Is there a person in this image?</p>
                    </div>
                </div>","0","main_experiment_trial","6","the_performance_causal","causal_sequence","","","","",""
"","","","","","html-keyboard-response","71","431071","0.0-71.0","A99BD59C13C74E678DBBBCECDF90A207","019cf70b-0856-7241-8c89-768febd58fe2","019cf6fe-235e-7d95-bb9b-b011d2fe188e","","null","
                <div class=""stimulus-container"">
                    <img src=""images/causal_sequence/the_performance_causal/the_performance_causal_7.png"" class=""exp-image"">
                    <div class=""question-area""></div> 
                </div>","null","","","","","","","","",""
"","","","","","html-button-response","72","434075","0.0-72.0","A99BD59C13C74E678DBBBCECDF90A207","019cf70b-0856-7241-8c89-768febd58fe2","019cf6fe-235e-7d95-bb9b-b011d2fe188e","","null","
                <div class=""stimulus-container"">
                    <img src=""images/causal_sequence/the_performance_causal/the_performance_causal_7.png"" class=""exp-image"">
                    <div class=""question-area"">
                        <p style=""font-size: 20px; font-weight: bold; margin: 0;"">Is there a person in this image?</p>
                    </div>
                </div>","null","main_experiment_trial","7","the_performance_causal","causal_sequence","","","","",""
"","","","","","html-keyboard-response","73","439077","0.0-73.0","A99BD59C13C74E678DBBBCECDF90A207","019cf70b-0856-7241-8c89-768febd58fe2","019cf6fe-235e-7d95-bb9b-b011d2fe188e","","null","
                <div class=""stimulus-container"">
                    <img src=""images/causal_sequence/the_performance_causal/the_performance_causal_8.png"" class=""exp-image"">
                    <div class=""question-area""></div> 
                </div>","null","","","","","","","","",""
"","","","","","html-button-response","74","441457","0.0-74.0","A99BD59C13C74E678DBBBCECDF90A207","019cf70b-0856-7241-8c89-768febd58fe2","019cf6fe-235e-7d95-bb9b-b011d2fe188e","","2378","
                <div class=""stimulus-container"">
                    <img src=""images/causal_sequence/the_performance_causal/the_performance_causal_8.png"" class=""exp-image"">
                    <div class=""question-area"">
                        <p style=""font-size: 20px; font-weight: bold; margin: 0;"">Is there a person in this image?</p>
                    </div>
                </div>","0","main_experiment_trial","8","the_performance_causal","causal_sequence","","","","",""
"","","","","","html-keyboard-response","75","446473","0.0-75.0","A99BD59C13C74E678DBBBCECDF90A207","019cf70b-0856-7241-8c89-768febd58fe2","019cf6fe-235e-7d95-bb9b-b011d2fe188e","","null","
                <div class=""stimulus-container"">
                    <img src=""images/causal_sequence/the_performance_causal/the_performance_causal_9.png"" class=""exp-image"">
                    <div class=""question-area""></div> 
                </div>","null","","","","","","","","",""
"","","","","","html-button-response","76","447890","0.0-76.0","A99BD59C13C74E678DBBBCECDF90A207","019cf70b-0856-7241-8c89-768febd58fe2","019cf6fe-235e-7d95-bb9b-b011d2fe188e","","1415","
                <div class=""stimulus-container"">
                    <img src=""images/causal_sequence/the_performance_causal/the_performance_causal_9.png"" class=""exp-image"">
                    <div class=""question-area"">
                        <p style=""font-size: 20px; font-weight: bold; margin: 0;"">Is there a person in this image?</p>
                    </div>
                </div>","0","main_experiment_trial","9","the_performance_causal","causal_sequence","","","","",""
"","","","","","html-keyboard-response","77","452906","0.0-77.0","A99BD59C13C74E678DBBBCECDF90A207","019cf70b-0856-7241-8c89-768febd58fe2","019cf6fe-235e-7d95-bb9b-b011d2fe188e","","null","
                <div class=""stimulus-container"">
                    <img src=""images/causal_sequence/the_performance_causal/the_performance_causal_ten.png"" class=""exp-image"">
                    <div class=""question-area""></div> 
                </div>","null","","","","","","","","",""
"","","","","","html-button-response","78","455658","0.0-78.0","A99BD59C13C74E678DBBBCECDF90A207","019cf70b-0856-7241-8c89-768febd58fe2","019cf6fe-235e-7d95-bb9b-b011d2fe188e","","2749","
                <div class=""stimulus-container"">
                    <img src=""images/causal_sequence/the_performance_causal/the_performance_causal_ten.png"" class=""exp-image"">
                    <div class=""question-area"">
                        <p style=""font-size: 20px; font-weight: bold; margin: 0;"">Is there a person in this image?</p>
                    </div>
                </div>","0","main_experiment_trial","ten","the_performance_causal","causal_sequence","","","","",""
"","","","","","html-keyboard-response","79","456668","0.0-79.0","A99BD59C13C74E678DBBBCECDF90A207","019cf70b-0856-7241-8c89-768febd58fe2","019cf6fe-235e-7d95-bb9b-b011d2fe188e","","null","<div style=""background-color: white; width: 100vw; height: 100vh;""></div>","null","","","","","","","","",""
"","","","","","html-keyboard-response","80","461680","0.0-80.0","A99BD59C13C74E678DBBBCECDF90A207","019cf70b-0856-7241-8c89-768febd58fe2","019cf6fe-235e-7d95-bb9b-b011d2fe188e","","null","
                <div class=""stimulus-container"">
                    <img src=""images/schematic_sequence/hotel_scheme/hotel_scheme_1.png"" class=""exp-image"">
                    <div class=""question-area""></div> 
                </div>","null","","","","","","","","",""
"","","","","","html-button-response","81","464145","0.0-81.0","A99BD59C13C74E678DBBBCECDF90A207","019cf70b-0856-7241-8c89-768febd58fe2","019cf6fe-235e-7d95-bb9b-b011d2fe188e","","2462","
                <div class=""stimulus-container"">
                    <img src=""images/schematic_sequence/hotel_scheme/hotel_scheme_1.png"" class=""exp-image"">
                    <div class=""question-area"">
                        <p style=""font-size: 20px; font-weight: bold; margin: 0;"">Is there a person in this image?</p>
                    </div>
                </div>","0","main_experiment_trial","1","hotel_scheme","schematic_sequence","","","","",""
"","","","","","html-keyboard-response","82","469154","0.0-82.0","A99BD59C13C74E678DBBBCECDF90A207","019cf70b-0856-7241-8c89-768febd58fe2","019cf6fe-235e-7d95-bb9b-b011d2fe188e","","null","
                <div class=""stimulus-container"">
                    <img src=""images/schematic_sequence/hotel_scheme/hotel_scheme_2.png"" class=""exp-image"">
                    <div class=""question-area""></div> 
                </div>","null","","","","","","","","",""
"","","","","","html-button-response","83","470831","0.0-83.0","A99BD59C13C74E678DBBBCECDF90A207","019cf70b-0856-7241-8c89-768febd58fe2","019cf6fe-235e-7d95-bb9b-b011d2fe188e","","1675","
                <div class=""stimulus-container"">
                    <img src=""images/schematic_sequence/hotel_scheme/hotel_scheme_2.png"" class=""exp-image"">
                    <div class=""question-area"">
                        <p style=""font-size: 20px; font-weight: bold; margin: 0;"">Is there a person in this image?</p>
                    </div>
                </div>","0","main_experiment_trial","2","hotel_scheme","schematic_sequence","","","","",""
"","","","","","html-keyboard-response","84","475837","0.0-84.0","A99BD59C13C74E678DBBBCECDF90A207","019cf70b-0856-7241-8c89-768febd58fe2","019cf6fe-235e-7d95-bb9b-b011d2fe188e","","null","
                <div class=""stimulus-container"">
                    <img src=""images/schematic_sequence/hotel_scheme/hotel_scheme_3.png"" class=""exp-image"">
                    <div class=""question-area""></div> 
                </div>","null","","","","","","","","",""
"","","","","","html-button-response","85","476865","0.0-85.0","A99BD59C13C74E678DBBBCECDF90A207","019cf70b-0856-7241-8c89-768febd58fe2","019cf6fe-235e-7d95-bb9b-b011d2fe188e","","1025","
                <div class=""stimulus-container"">
                    <img src=""images/schematic_sequence/hotel_scheme/hotel_scheme_3.png"" class=""exp-image"">
                    <div class=""question-area"">
                        <p style=""font-size: 20px; font-weight: bold; margin: 0;"">Is there a person in this image?</p>
                    </div>
                </div>","0","main_experiment_trial","3","hotel_scheme","schematic_sequence","","","","",""
"","","","","","html-keyboard-response","86","481873","0.0-86.0","A99BD59C13C74E678DBBBCECDF90A207","019cf70b-0856-7241-8c89-768febd58fe2","019cf6fe-235e-7d95-bb9b-b011d2fe188e","","null","
                <div class=""stimulus-container"">
                    <img src=""images/schematic_sequence/hotel_scheme/hotel_scheme_4.png"" class=""exp-image"">
                    <div class=""question-area""></div> 
                </div>","null","","","","","","","","",""
"","","","","","html-button-response","87","482463","0.0-87.0","A99BD59C13C74E678DBBBCECDF90A207","019cf70b-0856-7241-8c89-768febd58fe2","019cf6fe-235e-7d95-bb9b-b011d2fe188e","","587","
                <div class=""stimulus-container"">
                    <img src=""images/schematic_sequence/hotel_scheme/hotel_scheme_4.png"" class=""exp-image"">
                    <div class=""question-area"">
                        <p style=""font-size: 20px; font-weight: bold; margin: 0;"">Is there a person in this image?</p>
                    </div>
                </div>","1","main_experiment_trial","4","hotel_scheme","schematic_sequence","","","","",""
"","","","","","html-keyboard-response","88","487470","0.0-88.0","A99BD59C13C74E678DBBBCECDF90A207","019cf70b-0856-7241-8c89-768febd58fe2","019cf6fe-235e-7d95-bb9b-b011d2fe188e","","null","
                <div class=""stimulus-container"">
                    <img src=""images/schematic_sequence/hotel_scheme/hotel_scheme_5.png"" class=""exp-image"">
                    <div class=""question-area""></div> 
                </div>","null","","","","","","","","",""
"","","","","","html-button-response","89","488344","0.0-89.0","A99BD59C13C74E678DBBBCECDF90A207","019cf70b-0856-7241-8c89-768febd58fe2","019cf6fe-235e-7d95-bb9b-b011d2fe188e","","870","
                <div class=""stimulus-container"">
                    <img src=""images/schematic_sequence/hotel_scheme/hotel_scheme_5.png"" class=""exp-image"">
                    <div class=""question-area"">
                        <p style=""font-size: 20px; font-weight: bold; margin: 0;"">Is there a person in this image?</p>
                    </div>
                </div>","0","main_experiment_trial","5","hotel_scheme","schematic_sequence","","","","",""
"","","","","","html-keyboard-response","90","493354","0.0-90.0","A99BD59C13C74E678DBBBCECDF90A207","019cf70b-0856-7241-8c89-768febd58fe2","019cf6fe-235e-7d95-bb9b-b011d2fe188e","","null","
                <div class=""stimulus-container"">
                    <img src=""images/schematic_sequence/hotel_scheme/hotel_scheme_6.png"" class=""exp-image"">
                    <div class=""question-area""></div> 
                </div>","null","","","","","","","","",""
"","","","","","html-button-response","91","494290","0.0-91.0","A99BD59C13C74E678DBBBCECDF90A207","019cf70b-0856-7241-8c89-768febd58fe2","019cf6fe-235e-7d95-bb9b-b011d2fe188e","","933","
                <div class=""stimulus-container"">
                    <img src=""images/schematic_sequence/hotel_scheme/hotel_scheme_6.png"" class=""exp-image"">
                    <div class=""question-area"">
                        <p style=""font-size: 20px; font-weight: bold; margin: 0;"">Is there a person in this image?</p>
                    </div>
                </div>","0","main_experiment_trial","6","hotel_scheme","schematic_sequence","","","","",""
"","","","","","html-keyboard-response","92","499300","0.0-92.0","A99BD59C13C74E678DBBBCECDF90A207","019cf70b-0856-7241-8c89-768febd58fe2","019cf6fe-235e-7d95-bb9b-b011d2fe188e","","null","
                <div class=""stimulus-container"">
                    <img src=""images/schematic_sequence/hotel_scheme/hotel_scheme_7.png"" class=""exp-image"">
                    <div class=""question-area""></div> 
                </div>","null","","","","","","","","",""
"","","","","","html-button-response","93","500770","0.0-93.0","A99BD59C13C74E678DBBBCECDF90A207","019cf70b-0856-7241-8c89-768febd58fe2","019cf6fe-235e-7d95-bb9b-b011d2fe188e","","1468","
                <div class=""stimulus-container"">
                    <img src=""images/schematic_sequence/hotel_scheme/hotel_scheme_7.png"" class=""exp-image"">
                    <div class=""question-area"">
                        <p style=""font-size: 20px; font-weight: bold; margin: 0;"">Is there a person in this image?</p>
                    </div>
                </div>","0","main_experiment_trial","7","hotel_scheme","schematic_sequence","","","","",""
"","","","","","html-keyboard-response","94","505782","0.0-94.0","A99BD59C13C74E678DBBBCECDF90A207","019cf70b-0856-7241-8c89-768febd58fe2","019cf6fe-235e-7d95-bb9b-b011d2fe188e","","null","
                <div class=""stimulus-container"">
                    <img src=""images/schematic_sequence/hotel_scheme/hotel_scheme_8.png"" class=""exp-image"">
                    <div class=""question-area""></div> 
                </div>","null","","","","","","","","",""
"","","","","","html-button-response","95","507884","0.0-95.0","A99BD59C13C74E678DBBBCECDF90A207","019cf70b-0856-7241-8c89-768febd58fe2","019cf6fe-235e-7d95-bb9b-b011d2fe188e","","2100","
                <div class=""stimulus-container"">
                    <img src=""images/schematic_sequence/hotel_scheme/hotel_scheme_8.png"" class=""exp-image"">
                    <div class=""question-area"">
                        <p style=""font-size: 20px; font-weight: bold; margin: 0;"">Is there a person in this image?</p>
                    </div>
                </div>","0","main_experiment_trial","8","hotel_scheme","schematic_sequence","","","","",""
"","","","","","html-keyboard-response","96","512890","0.0-96.0","A99BD59C13C74E678DBBBCECDF90A207","019cf70b-0856-7241-8c89-768febd58fe2","019cf6fe-235e-7d95-bb9b-b011d2fe188e","","null","
                <div class=""stimulus-container"">
                    <img src=""images/schematic_sequence/hotel_scheme/hotel_scheme_9.png"" class=""exp-image"">
                    <div class=""question-area""></div> 
                </div>","null","","","","","","","","",""
"","","","","","html-button-response","97","515900","0.0-97.0","A99BD59C13C74E678DBBBCECDF90A207","019cf70b-0856-7241-8c89-768febd58fe2","019cf6fe-235e-7d95-bb9b-b011d2fe188e","","null","
                <div class=""stimulus-container"">
                    <img src=""images/schematic_sequence/hotel_scheme/hotel_scheme_9.png"" class=""exp-image"">
                    <div class=""question-area"">
                        <p style=""font-size: 20px; font-weight: bold; margin: 0;"">Is there a person in this image?</p>
                    </div>
                </div>","null","main_experiment_trial","9","hotel_scheme","schematic_sequence","","","","",""
"","","","","","html-keyboard-response","98","520916","0.0-98.0","A99BD59C13C74E678DBBBCECDF90A207","019cf70b-0856-7241-8c89-768febd58fe2","019cf6fe-235e-7d95-bb9b-b011d2fe188e","","null","
                <div class=""stimulus-container"">
                    <img src=""images/schematic_sequence/hotel_scheme/hotel_scheme_ten.png"" class=""exp-image"">
                    <div class=""question-area""></div> 
                </div>","null","","","","","","","","",""
"","","","","","html-button-response","99","523477","0.0-99.0","A99BD59C13C74E678DBBBCECDF90A207","019cf70b-0856-7241-8c89-768febd58fe2","019cf6fe-235e-7d95-bb9b-b011d2fe188e","","2558","
                <div class=""stimulus-container"">
                    <img src=""images/schematic_sequence/hotel_scheme/hotel_scheme_ten.png"" class=""exp-image"">
                    <div class=""question-area"">
                        <p style=""font-size: 20px; font-weight: bold; margin: 0;"">Is there a person in this image?</p>
                    </div>
                </div>","0","main_experiment_trial","ten","hotel_scheme","schematic_sequence","","","","",""
"","","","","","html-keyboard-response","100","524487","0.0-100.0","A99BD59C13C74E678DBBBCECDF90A207","019cf70b-0856-7241-8c89-768febd58fe2","019cf6fe-235e-7d95-bb9b-b011d2fe188e","","null","<div style=""background-color: white; width: 100vw; height: 100vh;""></div>","null","","","","","","","","",""
"","","","","","html-keyboard-response","101","529493","0.0-101.0","A99BD59C13C74E678DBBBCECDF90A207","019cf70b-0856-7241-8c89-768febd58fe2","019cf6fe-235e-7d95-bb9b-b011d2fe188e","","null","
                <div class=""stimulus-container"">
                    <img src=""images/schematic_sequence/interview_scheme/interview_scheme_1.png"" class=""exp-image"">
                    <div class=""question-area""></div> 
                </div>","null","","","","","","","","",""
"","","","","","html-button-response","102","530437","0.0-102.0","A99BD59C13C74E678DBBBCECDF90A207","019cf70b-0856-7241-8c89-768febd58fe2","019cf6fe-235e-7d95-bb9b-b011d2fe188e","","940","
                <div class=""stimulus-container"">
                    <img src=""images/schematic_sequence/interview_scheme/interview_scheme_1.png"" class=""exp-image"">
                    <div class=""question-area"">
                        <p style=""font-size: 20px; font-weight: bold; margin: 0;"">Is there a person in this image?</p>
                    </div>
                </div>","1","main_experiment_trial","1","interview_scheme","schematic_sequence","","","","",""
"","","","","","html-keyboard-response","103","535452","0.0-103.0","A99BD59C13C74E678DBBBCECDF90A207","019cf70b-0856-7241-8c89-768febd58fe2","019cf6fe-235e-7d95-bb9b-b011d2fe188e","","null","
                <div class=""stimulus-container"">
                    <img src=""images/schematic_sequence/interview_scheme/interview_scheme_2.png"" class=""exp-image"">
                    <div class=""question-area""></div> 
                </div>","null","","","","","","","","",""
"","","","","","html-button-response","104","536914","0.0-104.0","A99BD59C13C74E678DBBBCECDF90A207","019cf70b-0856-7241-8c89-768febd58fe2","019cf6fe-235e-7d95-bb9b-b011d2fe188e","","1460","
                <div class=""stimulus-container"">
                    <img src=""images/schematic_sequence/interview_scheme/interview_scheme_2.png"" class=""exp-image"">
                    <div class=""question-area"">
                        <p style=""font-size: 20px; font-weight: bold; margin: 0;"">Is there a person in this image?</p>
                    </div>
                </div>","1","main_experiment_trial","2","interview_scheme","schematic_sequence","","","","",""
"","","","","","html-keyboard-response","105","541928","0.0-105.0","A99BD59C13C74E678DBBBCECDF90A207","019cf70b-0856-7241-8c89-768febd58fe2","019cf6fe-235e-7d95-bb9b-b011d2fe188e","","null","
                <div class=""stimulus-container"">
                    <img src=""images/schematic_sequence/interview_scheme/interview_scheme_3.png"" class=""exp-image"">
                    <div class=""question-area""></div> 
                </div>","null","","","","","","","","",""
"","","","","","html-button-response","106","544941","0.0-106.0","A99BD59C13C74E678DBBBCECDF90A207","019cf70b-0856-7241-8c89-768febd58fe2","019cf6fe-235e-7d95-bb9b-b011d2fe188e","","null","
                <div class=""stimulus-container"">
                    <img src=""images/schematic_sequence/interview_scheme/interview_scheme_3.png"" class=""exp-image"">
                    <div class=""question-area"">
                        <p style=""font-size: 20px; font-weight: bold; margin: 0;"">Is there a person in this image?</p>
                    </div>
                </div>","null","main_experiment_trial","3","interview_scheme","schematic_sequence","","","","",""
"","","","","","html-keyboard-response","107","549957","0.0-107.0","A99BD59C13C74E678DBBBCECDF90A207","019cf70b-0856-7241-8c89-768febd58fe2","019cf6fe-235e-7d95-bb9b-b011d2fe188e","","null","
                <div class=""stimulus-container"">
                    <img src=""images/schematic_sequence/interview_scheme/interview_scheme_4.png"" class=""exp-image"">
                    <div class=""question-area""></div> 
                </div>","null","","","","","","","","",""
"","","","","","html-button-response","108","551595","0.0-108.0","A99BD59C13C74E678DBBBCECDF90A207","019cf70b-0856-7241-8c89-768febd58fe2","019cf6fe-235e-7d95-bb9b-b011d2fe188e","","1636","
                <div class=""stimulus-container"">
                    <img src=""images/schematic_sequence/interview_scheme/interview_scheme_4.png"" class=""exp-image"">
                    <div class=""question-area"">
                        <p style=""font-size: 20px; font-weight: bold; margin: 0;"">Is there a person in this image?</p>
                    </div>
                </div>","1","main_experiment_trial","4","interview_scheme","schematic_sequence","","","","",""
"","","","","","html-keyboard-response","109","556607","0.0-109.0","A99BD59C13C74E678DBBBCECDF90A207","019cf70b-0856-7241-8c89-768febd58fe2","019cf6fe-235e-7d95-bb9b-b011d2fe188e","","null","
                <div class=""stimulus-container"">
                    <img src=""images/schematic_sequence/interview_scheme/interview_scheme_5.png"" class=""exp-image"">
                    <div class=""question-area""></div> 
                </div>","null","","","","","","","","",""
"","","","","","html-button-response","110","559618","0.0-110.0","A99BD59C13C74E678DBBBCECDF90A207","019cf70b-0856-7241-8c89-768febd58fe2","019cf6fe-235e-7d95-bb9b-b011d2fe188e","","null","
                <div class=""stimulus-container"">
                    <img src=""images/schematic_sequence/interview_scheme/interview_scheme_5.png"" class=""exp-image"">
                    <div class=""question-area"">
                        <p style=""font-size: 20px; font-weight: bold; margin: 0;"">Is there a person in this image?</p>
                    </div>
                </div>","null","main_experiment_trial","5","interview_scheme","schematic_sequence","","","","",""
"","","","","","html-keyboard-response","111","564624","0.0-111.0","A99BD59C13C74E678DBBBCECDF90A207","019cf70b-0856-7241-8c89-768febd58fe2","019cf6fe-235e-7d95-bb9b-b011d2fe188e","","null","
                <div class=""stimulus-container"">
                    <img src=""images/schematic_sequence/interview_scheme/interview_scheme_6.png"" class=""exp-image"">
                    <div class=""question-area""></div> 
                </div>","null","","","","","","","","",""
"","","","","","html-button-response","112","565130","0.0-112.0","A99BD59C13C74E678DBBBCECDF90A207","019cf70b-0856-7241-8c89-768febd58fe2","019cf6fe-235e-7d95-bb9b-b011d2fe188e","","503","
                <div class=""stimulus-container"">
                    <img src=""images/schematic_sequence/interview_scheme/interview_scheme_6.png"" class=""exp-image"">
                    <div class=""question-area"">
                        <p style=""font-size: 20px; font-weight: bold; margin: 0;"">Is there a person in this image?</p>
                    </div>
                </div>","0","main_experiment_trial","6","interview_scheme","schematic_sequence","","","","",""
"","","","","","html-keyboard-response","113","570141","0.0-113.0","A99BD59C13C74E678DBBBCECDF90A207","019cf70b-0856-7241-8c89-768febd58fe2","019cf6fe-235e-7d95-bb9b-b011d2fe188e","","null","
                <div class=""stimulus-container"">
                    <img src=""images/schematic_sequence/interview_scheme/interview_scheme_7.png"" class=""exp-image"">
                    <div class=""question-area""></div> 
                </div>","null","","","","","","","","",""
"","","","","","html-button-response","114","573149","0.0-114.0","A99BD59C13C74E678DBBBCECDF90A207","019cf70b-0856-7241-8c89-768febd58fe2","019cf6fe-235e-7d95-bb9b-b011d2fe188e","","null","
                <div class=""stimulus-container"">
                    <img src=""images/schematic_sequence/interview_scheme/interview_scheme_7.png"" class=""exp-image"">
                    <div class=""question-area"">
                        <p style=""font-size: 20px; font-weight: bold; margin: 0;"">Is there a person in this image?</p>
                    </div>
                </div>","null","main_experiment_trial","7","interview_scheme","schematic_sequence","","","","",""
"","","","","","html-keyboard-response","115","578159","0.0-115.0","A99BD59C13C74E678DBBBCECDF90A207","019cf70b-0856-7241-8c89-768febd58fe2","019cf6fe-235e-7d95-bb9b-b011d2fe188e","","null","
                <div class=""stimulus-container"">
                    <img src=""images/schematic_sequence/interview_scheme/interview_scheme_8.png"" class=""exp-image"">
                    <div class=""question-area""></div> 
                </div>","null","","","","","","","","",""
"","","","","","html-button-response","116","579695","0.0-116.0","A99BD59C13C74E678DBBBCECDF90A207","019cf70b-0856-7241-8c89-768febd58fe2","019cf6fe-235e-7d95-bb9b-b011d2fe188e","","1532","
                <div class=""stimulus-container"">
                    <img src=""images/schematic_sequence/interview_scheme/interview_scheme_8.png"" class=""exp-image"">
                    <div class=""question-area"">
                        <p style=""font-size: 20px; font-weight: bold; margin: 0;"">Is there a person in this image?</p>
                    </div>
                </div>","0","main_experiment_trial","8","interview_scheme","schematic_sequence","","","","",""
"","","","","","html-keyboard-response","117","584711","0.0-117.0","A99BD59C13C74E678DBBBCECDF90A207","019cf70b-0856-7241-8c89-768febd58fe2","019cf6fe-235e-7d95-bb9b-b011d2fe188e","","null","
                <div class=""stimulus-container"">
                    <img src=""images/schematic_sequence/interview_scheme/interview_scheme_9.png"" class=""exp-image"">
                    <div class=""question-area""></div> 
                </div>","null","","","","","","","","",""
"","","","","","html-button-response","118","585792","0.0-118.0","A99BD59C13C74E678DBBBCECDF90A207","019cf70b-0856-7241-8c89-768febd58fe2","019cf6fe-235e-7d95-bb9b-b011d2fe188e","","1078","
                <div class=""stimulus-container"">
                    <img src=""images/schematic_sequence/interview_scheme/interview_scheme_9.png"" class=""exp-image"">
                    <div class=""question-area"">
                        <p style=""font-size: 20px; font-weight: bold; margin: 0;"">Is there a person in this image?</p>
                    </div>
                </div>","0","main_experiment_trial","9","interview_scheme","schematic_sequence","","","","",""
"","","","","","html-keyboard-response","119","590807","0.0-119.0","A99BD59C13C74E678DBBBCECDF90A207","019cf70b-0856-7241-8c89-768febd58fe2","019cf6fe-235e-7d95-bb9b-b011d2fe188e","","null","
                <div class=""stimulus-container"">
                    <img src=""images/schematic_sequence/interview_scheme/interview_scheme_ten.png"" class=""exp-image"">
                    <div class=""question-area""></div> 
                </div>","null","","","","","","","","",""
"","","","","","html-button-response","120","593812","0.0-120.0","A99BD59C13C74E678DBBBCECDF90A207","019cf70b-0856-7241-8c89-768febd58fe2","019cf6fe-235e-7d95-bb9b-b011d2fe188e","","null","
                <div class=""stimulus-container"">
                    <img src=""images/schematic_sequence/interview_scheme/interview_scheme_ten.png"" class=""exp-image"">
                    <div class=""question-area"">
                        <p style=""font-size: 20px; font-weight: bold; margin: 0;"">Is there a person in this image?</p>
                    </div>
                </div>","null","main_experiment_trial","ten","interview_scheme","schematic_sequence","","","","",""
"","","","","","html-keyboard-response","121","594826","0.0-121.0","A99BD59C13C74E678DBBBCECDF90A207","019cf70b-0856-7241-8c89-768febd58fe2","019cf6fe-235e-7d95-bb9b-b011d2fe188e","","null","<div style=""background-color: white; width: 100vw; height: 100vh;""></div>","null","","","","","","","","",""
"","","","","","html-keyboard-response","122","599835","0.0-122.0","A99BD59C13C74E678DBBBCECDF90A207","019cf70b-0856-7241-8c89-768febd58fe2","019cf6fe-235e-7d95-bb9b-b011d2fe188e","","null","
                <div class=""stimulus-container"">
                    <img src=""images/schematic_sequence/flight_scheme/flight_scheme_1.png"" class=""exp-image"">
                    <div class=""question-area""></div> 
                </div>","null","","","","","","","","",""
"","","","","","html-button-response","123","601769","0.0-123.0","A99BD59C13C74E678DBBBCECDF90A207","019cf70b-0856-7241-8c89-768febd58fe2","019cf6fe-235e-7d95-bb9b-b011d2fe188e","","1931","
                <div class=""stimulus-container"">
                    <img src=""images/schematic_sequence/flight_scheme/flight_scheme_1.png"" class=""exp-image"">
                    <div class=""question-area"">
                        <p style=""font-size: 20px; font-weight: bold; margin: 0;"">Is there a person in this image?</p>
                    </div>
                </div>","1","main_experiment_trial","1","flight_scheme","schematic_sequence","","","","",""
"","","","","","html-keyboard-response","124","606782","0.0-124.0","A99BD59C13C74E678DBBBCECDF90A207","019cf70b-0856-7241-8c89-768febd58fe2","019cf6fe-235e-7d95-bb9b-b011d2fe188e","","null","
                <div class=""stimulus-container"">
                    <img src=""images/schematic_sequence/flight_scheme/flight_scheme_2.png"" class=""exp-image"">
                    <div class=""question-area""></div> 
                </div>","null","","","","","","","","",""
"","","","","","html-button-response","125","609113","0.0-125.0","A99BD59C13C74E678DBBBCECDF90A207","019cf70b-0856-7241-8c89-768febd58fe2","019cf6fe-235e-7d95-bb9b-b011d2fe188e","","2328","
                <div class=""stimulus-container"">
                    <img src=""images/schematic_sequence/flight_scheme/flight_scheme_2.png"" class=""exp-image"">
                    <div class=""question-area"">
                        <p style=""font-size: 20px; font-weight: bold; margin: 0;"">Is there a person in this image?</p>
                    </div>
                </div>","1","main_experiment_trial","2","flight_scheme","schematic_sequence","","","","",""
"","","","","","html-keyboard-response","126","614128","0.0-126.0","A99BD59C13C74E678DBBBCECDF90A207","019cf70b-0856-7241-8c89-768febd58fe2","019cf6fe-235e-7d95-bb9b-b011d2fe188e","","null","
                <div class=""stimulus-container"">
                    <img src=""images/schematic_sequence/flight_scheme/flight_scheme_3.png"" class=""exp-image"">
                    <div class=""question-area""></div> 
                </div>","null","","","","","","","","",""
"","","","","","html-button-response","127","616105","0.0-127.0","A99BD59C13C74E678DBBBCECDF90A207","019cf70b-0856-7241-8c89-768febd58fe2","019cf6fe-235e-7d95-bb9b-b011d2fe188e","","1974","
                <div class=""stimulus-container"">
                    <img src=""images/schematic_sequence/flight_scheme/flight_scheme_3.png"" class=""exp-image"">
                    <div class=""question-area"">
                        <p style=""font-size: 20px; font-weight: bold; margin: 0;"">Is there a person in this image?</p>
                    </div>
                </div>","0","main_experiment_trial","3","flight_scheme","schematic_sequence","","","","",""
"","","","","","html-keyboard-response","128","621115","0.0-128.0","A99BD59C13C74E678DBBBCECDF90A207","019cf70b-0856-7241-8c89-768febd58fe2","019cf6fe-235e-7d95-bb9b-b011d2fe188e","","null","
                <div class=""stimulus-container"">
                    <img src=""images/schematic_sequence/flight_scheme/flight_scheme_4.png"" class=""exp-image"">
                    <div class=""question-area""></div> 
                </div>","null","","","","","","","","",""
"","","","","","html-button-response","129","622584","0.0-129.0","A99BD59C13C74E678DBBBCECDF90A207","019cf70b-0856-7241-8c89-768febd58fe2","019cf6fe-235e-7d95-bb9b-b011d2fe188e","","1466","
                <div class=""stimulus-container"">
                    <img src=""images/schematic_sequence/flight_scheme/flight_scheme_4.png"" class=""exp-image"">
                    <div class=""question-area"">
                        <p style=""font-size: 20px; font-weight: bold; margin: 0;"">Is there a person in this image?</p>
                    </div>
                </div>","0","main_experiment_trial","4","flight_scheme","schematic_sequence","","","","",""
"","","","","","html-keyboard-response","130","627599","0.0-130.0","A99BD59C13C74E678DBBBCECDF90A207","019cf70b-0856-7241-8c89-768febd58fe2","019cf6fe-235e-7d95-bb9b-b011d2fe188e","","null","
                <div class=""stimulus-container"">
                    <img src=""images/schematic_sequence/flight_scheme/flight_scheme_5.png"" class=""exp-image"">
                    <div class=""question-area""></div> 
                </div>","null","","","","","","","","",""
"","","","","","html-button-response","131","629748","0.0-131.0","A99BD59C13C74E678DBBBCECDF90A207","019cf70b-0856-7241-8c89-768febd58fe2","019cf6fe-235e-7d95-bb9b-b011d2fe188e","","2147","
                <div class=""stimulus-container"">
                    <img src=""images/schematic_sequence/flight_scheme/flight_scheme_5.png"" class=""exp-image"">
                    <div class=""question-area"">
                        <p style=""font-size: 20px; font-weight: bold; margin: 0;"">Is there a person in this image?</p>
                    </div>
                </div>","0","main_experiment_trial","5","flight_scheme","schematic_sequence","","","","",""
"","","","","","html-keyboard-response","132","634760","0.0-132.0","A99BD59C13C74E678DBBBCECDF90A207","019cf70b-0856-7241-8c89-768febd58fe2","019cf6fe-235e-7d95-bb9b-b011d2fe188e","","null","
                <div class=""stimulus-container"">
                    <img src=""images/schematic_sequence/flight_scheme/flight_scheme_6.png"" class=""exp-image"">
                    <div class=""question-area""></div> 
                </div>","null","","","","","","","","",""
"","","","","","html-button-response","133","635761","0.0-133.0","A99BD59C13C74E678DBBBCECDF90A207","019cf70b-0856-7241-8c89-768febd58fe2","019cf6fe-235e-7d95-bb9b-b011d2fe188e","","999","
                <div class=""stimulus-container"">
                    <img src=""images/schematic_sequence/flight_scheme/flight_scheme_6.png"" class=""exp-image"">
                    <div class=""question-area"">
                        <p style=""font-size: 20px; font-weight: bold; margin: 0;"">Is there a person in this image?</p>
                    </div>
                </div>","1","main_experiment_trial","6","flight_scheme","schematic_sequence","","","","",""
"","","","","","html-keyboard-response","134","640767","0.0-134.0","A99BD59C13C74E678DBBBCECDF90A207","019cf70b-0856-7241-8c89-768febd58fe2","019cf6fe-235e-7d95-bb9b-b011d2fe188e","","null","
                <div class=""stimulus-container"">
                    <img src=""images/schematic_sequence/flight_scheme/flight_scheme_7.png"" class=""exp-image"">
                    <div class=""question-area""></div> 
                </div>","null","","","","","","","","",""
"","","","","","html-button-response","135","643162","0.0-135.0","A99BD59C13C74E678DBBBCECDF90A207","019cf70b-0856-7241-8c89-768febd58fe2","019cf6fe-235e-7d95-bb9b-b011d2fe188e","","2393","
                <div class=""stimulus-container"">
                    <img src=""images/schematic_sequence/flight_scheme/flight_scheme_7.png"" class=""exp-image"">
                    <div class=""question-area"">
                        <p style=""font-size: 20px; font-weight: bold; margin: 0;"">Is there a person in this image?</p>
                    </div>
                </div>","1","main_experiment_trial","7","flight_scheme","schematic_sequence","","","","",""
"","","","","","html-keyboard-response","136","648180","0.0-136.0","A99BD59C13C74E678DBBBCECDF90A207","019cf70b-0856-7241-8c89-768febd58fe2","019cf6fe-235e-7d95-bb9b-b011d2fe188e","","null","
                <div class=""stimulus-container"">
                    <img src=""images/schematic_sequence/flight_scheme/flight_scheme_8.png"" class=""exp-image"">
                    <div class=""question-area""></div> 
                </div>","null","","","","","","","","",""
"","","","","","html-button-response","137","649930","0.0-137.0","A99BD59C13C74E678DBBBCECDF90A207","019cf70b-0856-7241-8c89-768febd58fe2","019cf6fe-235e-7d95-bb9b-b011d2fe188e","","1747","
                <div class=""stimulus-container"">
                    <img src=""images/schematic_sequence/flight_scheme/flight_scheme_8.png"" class=""exp-image"">
                    <div class=""question-area"">
                        <p style=""font-size: 20px; font-weight: bold; margin: 0;"">Is there a person in this image?</p>
                    </div>
                </div>","1","main_experiment_trial","8","flight_scheme","schematic_sequence","","","","",""
"","","","","","html-keyboard-response","138","654945","0.0-138.0","A99BD59C13C74E678DBBBCECDF90A207","019cf70b-0856-7241-8c89-768febd58fe2","019cf6fe-235e-7d95-bb9b-b011d2fe188e","","null","
                <div class=""stimulus-container"">
                    <img src=""images/schematic_sequence/flight_scheme/flight_scheme_9.png"" class=""exp-image"">
                    <div class=""question-area""></div> 
                </div>","null","","","","","","","","",""
"","","","","","html-button-response","139","657949","0.0-139.0","A99BD59C13C74E678DBBBCECDF90A207","019cf70b-0856-7241-8c89-768febd58fe2","019cf6fe-235e-7d95-bb9b-b011d2fe188e","","null","
                <div class=""stimulus-container"">
                    <img src=""images/schematic_sequence/flight_scheme/flight_scheme_9.png"" class=""exp-image"">
                    <div class=""question-area"">
                        <p style=""font-size: 20px; font-weight: bold; margin: 0;"">Is there a person in this image?</p>
                    </div>
                </div>","null","main_experiment_trial","9","flight_scheme","schematic_sequence","","","","",""
"","","","","","html-keyboard-response","140","662958","0.0-140.0","A99BD59C13C74E678DBBBCECDF90A207","019cf70b-0856-7241-8c89-768febd58fe2","019cf6fe-235e-7d95-bb9b-b011d2fe188e","","null","
                <div class=""stimulus-container"">
                    <img src=""images/schematic_sequence/flight_scheme/flight_scheme_ten.png"" class=""exp-image"">
                    <div class=""question-area""></div> 
                </div>","null","","","","","","","","",""
"","","","","","html-button-response","141","664516","0.0-141.0","A99BD59C13C74E678DBBBCECDF90A207","019cf70b-0856-7241-8c89-768febd58fe2","019cf6fe-235e-7d95-bb9b-b011d2fe188e","","1554","
                <div class=""stimulus-container"">
                    <img src=""images/schematic_sequence/flight_scheme/flight_scheme_ten.png"" class=""exp-image"">
                    <div class=""question-area"">
                        <p style=""font-size: 20px; font-weight: bold; margin: 0;"">Is there a person in this image?</p>
                    </div>
                </div>","0","main_experiment_trial","ten","flight_scheme","schematic_sequence","","","","",""
"","","","","","html-keyboard-response","142","665518","0.0-142.0","A99BD59C13C74E678DBBBCECDF90A207","019cf70b-0856-7241-8c89-768febd58fe2","019cf6fe-235e-7d95-bb9b-b011d2fe188e","","null","<div style=""background-color: white; width: 100vw; height: 100vh;""></div>","null","","","","","","","","",""
"","","","","","html-keyboard-response","143","670528","0.0-143.0","A99BD59C13C74E678DBBBCECDF90A207","019cf70b-0856-7241-8c89-768febd58fe2","019cf6fe-235e-7d95-bb9b-b011d2fe188e","","null","
                <div class=""stimulus-container"">
                    <img src=""images/causal_sequence/museum_causal/museum_causal_1.png"" class=""exp-image"">
                    <div class=""question-area""></div> 
                </div>","null","","","","","","","","",""
"","","","","","html-button-response","144","671187","0.0-144.0","A99BD59C13C74E678DBBBCECDF90A207","019cf70b-0856-7241-8c89-768febd58fe2","019cf6fe-235e-7d95-bb9b-b011d2fe188e","","657","
                <div class=""stimulus-container"">
                    <img src=""images/causal_sequence/museum_causal/museum_causal_1.png"" class=""exp-image"">
                    <div class=""question-area"">
                        <p style=""font-size: 20px; font-weight: bold; margin: 0;"">Is there a person in this image?</p>
                    </div>
                </div>","0","main_experiment_trial","1","museum_causal","causal_sequence","","","","",""
"","","","","","html-keyboard-response","145","676190","0.0-145.0","A99BD59C13C74E678DBBBCECDF90A207","019cf70b-0856-7241-8c89-768febd58fe2","019cf6fe-235e-7d95-bb9b-b011d2fe188e","","null","
                <div class=""stimulus-container"">
                    <img src=""images/causal_sequence/museum_causal/museum_causal_2.png"" class=""exp-image"">
                    <div class=""question-area""></div> 
                </div>","null","","","","","","","","",""
"","","","","","html-button-response","146","679196","0.0-146.0","A99BD59C13C74E678DBBBCECDF90A207","019cf70b-0856-7241-8c89-768febd58fe2","019cf6fe-235e-7d95-bb9b-b011d2fe188e","","null","
                <div class=""stimulus-container"">
                    <img src=""images/causal_sequence/museum_causal/museum_causal_2.png"" class=""exp-image"">
                    <div class=""question-area"">
                        <p style=""font-size: 20px; font-weight: bold; margin: 0;"">Is there a person in this image?</p>
                    </div>
                </div>","null","main_experiment_trial","2","museum_causal","causal_sequence","","","","",""
"","","","","","html-keyboard-response","147","684201","0.0-147.0","A99BD59C13C74E678DBBBCECDF90A207","019cf70b-0856-7241-8c89-768febd58fe2","019cf6fe-235e-7d95-bb9b-b011d2fe188e","","null","
                <div class=""stimulus-container"">
                    <img src=""images/causal_sequence/museum_causal/museum_causal_3.png"" class=""exp-image"">
                    <div class=""question-area""></div> 
                </div>","null","","","","","","","","",""
"","","","","","html-button-response","148","686287","0.0-148.0","A99BD59C13C74E678DBBBCECDF90A207","019cf70b-0856-7241-8c89-768febd58fe2","019cf6fe-235e-7d95-bb9b-b011d2fe188e","","2084","
                <div class=""stimulus-container"">
                    <img src=""images/causal_sequence/museum_causal/museum_causal_3.png"" class=""exp-image"">
                    <div class=""question-area"">
                        <p style=""font-size: 20px; font-weight: bold; margin: 0;"">Is there a person in this image?</p>
                    </div>
                </div>","0","main_experiment_trial","3","museum_causal","causal_sequence","","","","",""
"","","","","","html-keyboard-response","149","691307","0.0-149.0","A99BD59C13C74E678DBBBCECDF90A207","019cf70b-0856-7241-8c89-768febd58fe2","019cf6fe-235e-7d95-bb9b-b011d2fe188e","","null","
                <div class=""stimulus-container"">
                    <img src=""images/causal_sequence/museum_causal/museum_causal_4.png"" class=""exp-image"">
                    <div class=""question-area""></div> 
                </div>","null","","","","","","","","",""
"","","","","","html-button-response","150","694208","0.0-150.0","A99BD59C13C74E678DBBBCECDF90A207","019cf70b-0856-7241-8c89-768febd58fe2","019cf6fe-235e-7d95-bb9b-b011d2fe188e","","2898","
                <div class=""stimulus-container"">
                    <img src=""images/causal_sequence/museum_causal/museum_causal_4.png"" class=""exp-image"">
                    <div class=""question-area"">
                        <p style=""font-size: 20px; font-weight: bold; margin: 0;"">Is there a person in this image?</p>
                    </div>
                </div>","1","main_experiment_trial","4","museum_causal","causal_sequence","","","","",""
"","","","","","html-keyboard-response","151","699215","0.0-151.0","A99BD59C13C74E678DBBBCECDF90A207","019cf70b-0856-7241-8c89-768febd58fe2","019cf6fe-235e-7d95-bb9b-b011d2fe188e","","null","
                <div class=""stimulus-container"">
                    <img src=""images/causal_sequence/museum_causal/museum_causal_5.png"" class=""exp-image"">
                    <div class=""question-area""></div> 
                </div>","null","","","","","","","","",""
"","","","","","html-button-response","152","702224","0.0-152.0","A99BD59C13C74E678DBBBCECDF90A207","019cf70b-0856-7241-8c89-768febd58fe2","019cf6fe-235e-7d95-bb9b-b011d2fe188e","","null","
                <div class=""stimulus-container"">
                    <img src=""images/causal_sequence/museum_causal/museum_causal_5.png"" class=""exp-image"">
                    <div class=""question-area"">
                        <p style=""font-size: 20px; font-weight: bold; margin: 0;"">Is there a person in this image?</p>
                    </div>
                </div>","null","main_experiment_trial","5","museum_causal","causal_sequence","","","","",""
"","","","","","html-keyboard-response","153","707236","0.0-153.0","A99BD59C13C74E678DBBBCECDF90A207","019cf70b-0856-7241-8c89-768febd58fe2","019cf6fe-235e-7d95-bb9b-b011d2fe188e","","null","
                <div class=""stimulus-container"">
                    <img src=""images/causal_sequence/museum_causal/museum_causal_6.png"" class=""exp-image"">
                    <div class=""question-area""></div> 
                </div>","null","","","","","","","","",""
"","","","","","html-button-response","154","708526","0.0-154.0","A99BD59C13C74E678DBBBCECDF90A207","019cf70b-0856-7241-8c89-768febd58fe2","019cf6fe-235e-7d95-bb9b-b011d2fe188e","","1288","
                <div class=""stimulus-container"">
                    <img src=""images/causal_sequence/museum_causal/museum_causal_6.png"" class=""exp-image"">
                    <div class=""question-area"">
                        <p style=""font-size: 20px; font-weight: bold; margin: 0;"">Is there a person in this image?</p>
                    </div>
                </div>","0","main_experiment_trial","6","museum_causal","causal_sequence","","","","",""
"","","","","","html-keyboard-response","155","713545","0.0-155.0","A99BD59C13C74E678DBBBCECDF90A207","019cf70b-0856-7241-8c89-768febd58fe2","019cf6fe-235e-7d95-bb9b-b011d2fe188e","","null","
                <div class=""stimulus-container"">
                    <img src=""images/causal_sequence/museum_causal/museum_causal_7.png"" class=""exp-image"">
                    <div class=""question-area""></div> 
                </div>","null","","","","","","","","",""
"","","","","","html-button-response","156","716517","0.0-156.0","A99BD59C13C74E678DBBBCECDF90A207","019cf70b-0856-7241-8c89-768febd58fe2","019cf6fe-235e-7d95-bb9b-b011d2fe188e","","2968","
                <div class=""stimulus-container"">
                    <img src=""images/causal_sequence/museum_causal/museum_causal_7.png"" class=""exp-image"">
                    <div class=""question-area"">
                        <p style=""font-size: 20px; font-weight: bold; margin: 0;"">Is there a person in this image?</p>
                    </div>
                </div>","1","main_experiment_trial","7","museum_causal","causal_sequence","","","","",""
"","","","","","html-keyboard-response","157","721519","0.0-157.0","A99BD59C13C74E678DBBBCECDF90A207","019cf70b-0856-7241-8c89-768febd58fe2","019cf6fe-235e-7d95-bb9b-b011d2fe188e","","null","
                <div class=""stimulus-container"">
                    <img src=""images/causal_sequence/museum_causal/museum_causal_8.png"" class=""exp-image"">
                    <div class=""question-area""></div> 
                </div>","null","","","","","","","","",""
"","","","","","html-button-response","158","723976","0.0-158.0","A99BD59C13C74E678DBBBCECDF90A207","019cf70b-0856-7241-8c89-768febd58fe2","019cf6fe-235e-7d95-bb9b-b011d2fe188e","","2455","
                <div class=""stimulus-container"">
                    <img src=""images/causal_sequence/museum_causal/museum_causal_8.png"" class=""exp-image"">
                    <div class=""question-area"">
                        <p style=""font-size: 20px; font-weight: bold; margin: 0;"">Is there a person in this image?</p>
                    </div>
                </div>","0","main_experiment_trial","8","museum_causal","causal_sequence","","","","",""
"","","","","","html-keyboard-response","159","728984","0.0-159.0","A99BD59C13C74E678DBBBCECDF90A207","019cf70b-0856-7241-8c89-768febd58fe2","019cf6fe-235e-7d95-bb9b-b011d2fe188e","","null","
                <div class=""stimulus-container"">
                    <img src=""images/causal_sequence/museum_causal/museum_causal_9.png"" class=""exp-image"">
                    <div class=""question-area""></div> 
                </div>","null","","","","","","","","",""
"","","","","","html-button-response","160","730974","0.0-160.0","A99BD59C13C74E678DBBBCECDF90A207","019cf70b-0856-7241-8c89-768febd58fe2","019cf6fe-235e-7d95-bb9b-b011d2fe188e","","1988","
                <div class=""stimulus-container"">
                    <img src=""images/causal_sequence/museum_causal/museum_causal_9.png"" class=""exp-image"">
                    <div class=""question-area"">
                        <p style=""font-size: 20px; font-weight: bold; margin: 0;"">Is there a person in this image?</p>
                    </div>
                </div>","1","main_experiment_trial","9","museum_causal","causal_sequence","","","","",""
"","","","","","html-keyboard-response","161","735976","0.0-161.0","A99BD59C13C74E678DBBBCECDF90A207","019cf70b-0856-7241-8c89-768febd58fe2","019cf6fe-235e-7d95-bb9b-b011d2fe188e","","null","
                <div class=""stimulus-container"">
                    <img src=""images/causal_sequence/museum_causal/museum_causal_ten.png"" class=""exp-image"">
                    <div class=""question-area""></div> 
                </div>","null","","","","","","","","",""
"","","","","","html-button-response","162","736752","0.0-162.0","A99BD59C13C74E678DBBBCECDF90A207","019cf70b-0856-7241-8c89-768febd58fe2","019cf6fe-235e-7d95-bb9b-b011d2fe188e","","774","
                <div class=""stimulus-container"">
                    <img src=""images/causal_sequence/museum_causal/museum_causal_ten.png"" class=""exp-image"">
                    <div class=""question-area"">
                        <p style=""font-size: 20px; font-weight: bold; margin: 0;"">Is there a person in this image?</p>
                    </div>
                </div>","0","main_experiment_trial","ten","museum_causal","causal_sequence","","","","",""
"","","","","","html-keyboard-response","163","737769","0.0-163.0","A99BD59C13C74E678DBBBCECDF90A207","019cf70b-0856-7241-8c89-768febd58fe2","019cf6fe-235e-7d95-bb9b-b011d2fe188e","","null","<div style=""background-color: white; width: 100vw; height: 100vh;""></div>","null","","","","","","","","",""
"","","","","","html-keyboard-response","164","742783","0.0-164.0","A99BD59C13C74E678DBBBCECDF90A207","019cf70b-0856-7241-8c89-768febd58fe2","019cf6fe-235e-7d95-bb9b-b011d2fe188e","","null","
                <div class=""stimulus-container"">
                    <img src=""images/causal_sequence/coin_causal/coin_causal_1.png"" class=""exp-image"">
                    <div class=""question-area""></div> 
                </div>","null","","","","","","","","",""
"","","","","","html-button-response","165","743414","0.0-165.0","A99BD59C13C74E678DBBBCECDF90A207","019cf70b-0856-7241-8c89-768febd58fe2","019cf6fe-235e-7d95-bb9b-b011d2fe188e","","627","
                <div class=""stimulus-container"">
                    <img src=""images/causal_sequence/coin_causal/coin_causal_1.png"" class=""exp-image"">
                    <div class=""question-area"">
                        <p style=""font-size: 20px; font-weight: bold; margin: 0;"">Is there a person in this image?</p>
                    </div>
                </div>","0","main_experiment_trial","1","coin_causal","causal_sequence","","","","",""
"","","","","","html-keyboard-response","166","748420","0.0-166.0","A99BD59C13C74E678DBBBCECDF90A207","019cf70b-0856-7241-8c89-768febd58fe2","019cf6fe-235e-7d95-bb9b-b011d2fe188e","","null","
                <div class=""stimulus-container"">
                    <img src=""images/causal_sequence/coin_causal/coin_causal_2.png"" class=""exp-image"">
                    <div class=""question-area""></div> 
                </div>","null","","","","","","","","",""
"","","","","","html-button-response","167","750260","0.0-167.0","A99BD59C13C74E678DBBBCECDF90A207","019cf70b-0856-7241-8c89-768febd58fe2","019cf6fe-235e-7d95-bb9b-b011d2fe188e","","1835","
                <div class=""stimulus-container"">
                    <img src=""images/causal_sequence/coin_causal/coin_causal_2.png"" class=""exp-image"">
                    <div class=""question-area"">
                        <p style=""font-size: 20px; font-weight: bold; margin: 0;"">Is there a person in this image?</p>
                    </div>
                </div>","0","main_experiment_trial","2","coin_causal","causal_sequence","","","","",""
"","","","","","html-keyboard-response","168","755268","0.0-168.0","A99BD59C13C74E678DBBBCECDF90A207","019cf70b-0856-7241-8c89-768febd58fe2","019cf6fe-235e-7d95-bb9b-b011d2fe188e","","null","
                <div class=""stimulus-container"">
                    <img src=""images/causal_sequence/coin_causal/coin_causal_3.png"" class=""exp-image"">
                    <div class=""question-area""></div> 
                </div>","null","","","","","","","","",""
"","","","","","html-button-response","169","755870","0.0-169.0","A99BD59C13C74E678DBBBCECDF90A207","019cf70b-0856-7241-8c89-768febd58fe2","019cf6fe-235e-7d95-bb9b-b011d2fe188e","","599","
                <div class=""stimulus-container"">
                    <img src=""images/causal_sequence/coin_causal/coin_causal_3.png"" class=""exp-image"">
                    <div class=""question-area"">
                        <p style=""font-size: 20px; font-weight: bold; margin: 0;"">Is there a person in this image?</p>
                    </div>
                </div>","0","main_experiment_trial","3","coin_causal","causal_sequence","","","","",""
"","","","","","html-keyboard-response","170","760874","0.0-170.0","A99BD59C13C74E678DBBBCECDF90A207","019cf70b-0856-7241-8c89-768febd58fe2","019cf6fe-235e-7d95-bb9b-b011d2fe188e","","null","
                <div class=""stimulus-container"">
                    <img src=""images/causal_sequence/coin_causal/coin_causal_4.png"" class=""exp-image"">
                    <div class=""question-area""></div> 
                </div>","null","","","","","","","","",""
"","","","","","html-button-response","171","763303","0.0-171.0","A99BD59C13C74E678DBBBCECDF90A207","019cf70b-0856-7241-8c89-768febd58fe2","019cf6fe-235e-7d95-bb9b-b011d2fe188e","","2426","
                <div class=""stimulus-container"">
                    <img src=""images/causal_sequence/coin_causal/coin_causal_4.png"" class=""exp-image"">
                    <div class=""question-area"">
                        <p style=""font-size: 20px; font-weight: bold; margin: 0;"">Is there a person in this image?</p>
                    </div>
                </div>","0","main_experiment_trial","4","coin_causal","causal_sequence","","","","",""
"","","","","","html-keyboard-response","172","768310","0.0-172.0","A99BD59C13C74E678DBBBCECDF90A207","019cf70b-0856-7241-8c89-768febd58fe2","019cf6fe-235e-7d95-bb9b-b011d2fe188e","","null","
                <div class=""stimulus-container"">
                    <img src=""images/causal_sequence/coin_causal/coin_causal_5.png"" class=""exp-image"">
                    <div class=""question-area""></div> 
                </div>","null","","","","","","","","",""
"","","","","","html-button-response","173","770120","0.0-173.0","A99BD59C13C74E678DBBBCECDF90A207","019cf70b-0856-7241-8c89-768febd58fe2","019cf6fe-235e-7d95-bb9b-b011d2fe188e","","1807","
                <div class=""stimulus-container"">
                    <img src=""images/causal_sequence/coin_causal/coin_causal_5.png"" class=""exp-image"">
                    <div class=""question-area"">
                        <p style=""font-size: 20px; font-weight: bold; margin: 0;"">Is there a person in this image?</p>
                    </div>
                </div>","0","main_experiment_trial","5","coin_causal","causal_sequence","","","","",""
"","","","","","html-keyboard-response","174","775125","0.0-174.0","A99BD59C13C74E678DBBBCECDF90A207","019cf70b-0856-7241-8c89-768febd58fe2","019cf6fe-235e-7d95-bb9b-b011d2fe188e","","null","
                <div class=""stimulus-container"">
                    <img src=""images/causal_sequence/coin_causal/coin_causal_6.png"" class=""exp-image"">
                    <div class=""question-area""></div> 
                </div>","null","","","","","","","","",""
"","","","","","html-button-response","175","775936","0.0-175.0","A99BD59C13C74E678DBBBCECDF90A207","019cf70b-0856-7241-8c89-768febd58fe2","019cf6fe-235e-7d95-bb9b-b011d2fe188e","","808","
                <div class=""stimulus-container"">
                    <img src=""images/causal_sequence/coin_causal/coin_causal_6.png"" class=""exp-image"">
                    <div class=""question-area"">
                        <p style=""font-size: 20px; font-weight: bold; margin: 0;"">Is there a person in this image?</p>
                    </div>
                </div>","0","main_experiment_trial","6","coin_causal","causal_sequence","","","","",""
"","","","","","html-keyboard-response","176","780941","0.0-176.0","A99BD59C13C74E678DBBBCECDF90A207","019cf70b-0856-7241-8c89-768febd58fe2","019cf6fe-235e-7d95-bb9b-b011d2fe188e","","null","
                <div class=""stimulus-container"">
                    <img src=""images/causal_sequence/coin_causal/coin_causal_7.png"" class=""exp-image"">
                    <div class=""question-area""></div> 
                </div>","null","","","","","","","","",""
"","","","","","html-button-response","177","782288","0.0-177.0","A99BD59C13C74E678DBBBCECDF90A207","019cf70b-0856-7241-8c89-768febd58fe2","019cf6fe-235e-7d95-bb9b-b011d2fe188e","","1343","
                <div class=""stimulus-container"">
                    <img src=""images/causal_sequence/coin_causal/coin_causal_7.png"" class=""exp-image"">
                    <div class=""question-area"">
                        <p style=""font-size: 20px; font-weight: bold; margin: 0;"">Is there a person in this image?</p>
                    </div>
                </div>","1","main_experiment_trial","7","coin_causal","causal_sequence","","","","",""
"","","","","","html-keyboard-response","178","787293","0.0-178.0","A99BD59C13C74E678DBBBCECDF90A207","019cf70b-0856-7241-8c89-768febd58fe2","019cf6fe-235e-7d95-bb9b-b011d2fe188e","","null","
                <div class=""stimulus-container"">
                    <img src=""images/causal_sequence/coin_causal/coin_causal_8.png"" class=""exp-image"">
                    <div class=""question-area""></div> 
                </div>","null","","","","","","","","",""
"","","","","","html-button-response","179","790309","0.0-179.0","A99BD59C13C74E678DBBBCECDF90A207","019cf70b-0856-7241-8c89-768febd58fe2","019cf6fe-235e-7d95-bb9b-b011d2fe188e","","null","
                <div class=""stimulus-container"">
                    <img src=""images/causal_sequence/coin_causal/coin_causal_8.png"" class=""exp-image"">
                    <div class=""question-area"">
                        <p style=""font-size: 20px; font-weight: bold; margin: 0;"">Is there a person in this image?</p>
                    </div>
                </div>","null","main_experiment_trial","8","coin_causal","causal_sequence","","","","",""
"","","","","","html-keyboard-response","180","795321","0.0-180.0","A99BD59C13C74E678DBBBCECDF90A207","019cf70b-0856-7241-8c89-768febd58fe2","019cf6fe-235e-7d95-bb9b-b011d2fe188e","","null","
                <div class=""stimulus-container"">
                    <img src=""images/causal_sequence/coin_causal/coin_causal_9.png"" class=""exp-image"">
                    <div class=""question-area""></div> 
                </div>","null","","","","","","","","",""
"","","","","","html-button-response","181","796629","0.0-181.0","A99BD59C13C74E678DBBBCECDF90A207","019cf70b-0856-7241-8c89-768febd58fe2","019cf6fe-235e-7d95-bb9b-b011d2fe188e","","1306","
                <div class=""stimulus-container"">
                    <img src=""images/causal_sequence/coin_causal/coin_causal_9.png"" class=""exp-image"">
                    <div class=""question-area"">
                        <p style=""font-size: 20px; font-weight: bold; margin: 0;"">Is there a person in this image?</p>
                    </div>
                </div>","0","main_experiment_trial","9","coin_causal","causal_sequence","","","","",""
"","","","","","html-keyboard-response","182","801641","0.0-182.0","A99BD59C13C74E678DBBBCECDF90A207","019cf70b-0856-7241-8c89-768febd58fe2","019cf6fe-235e-7d95-bb9b-b011d2fe188e","","null","
                <div class=""stimulus-container"">
                    <img src=""images/causal_sequence/coin_causal/coin_causal_ten.png"" class=""exp-image"">
                    <div class=""question-area""></div> 
                </div>","null","","","","","","","","",""
"","","","","","html-button-response","183","802889","0.0-183.0","A99BD59C13C74E678DBBBCECDF90A207","019cf70b-0856-7241-8c89-768febd58fe2","019cf6fe-235e-7d95-bb9b-b011d2fe188e","","1246","
                <div class=""stimulus-container"">
                    <img src=""images/causal_sequence/coin_causal/coin_causal_ten.png"" class=""exp-image"">
                    <div class=""question-area"">
                        <p style=""font-size: 20px; font-weight: bold; margin: 0;"">Is there a person in this image?</p>
                    </div>
                </div>","0","main_experiment_trial","ten","coin_causal","causal_sequence","","","","",""
