"success","timeout","failed_images","failed_audio","failed_video","trial_type","trial_index","time_elapsed","internal_node_id","subject_id","study_id","session_id","view_history","rt","stimulus","response","task","image_index","folder","sequence_type","presentation_order","valuable_image_index","reward_type","distance_from_x","target_X","chosen_image_index","is_x_plus_dist","correct_choice"
"true","false","[]","[]","[]","preload","0","2736","0.0-0.0","C2CBD106EE174AAABF476FEF7243005A","019dac6f-1bf7-7fa8-b259-47c0818f20a5","019dac5b-243f-7307-af64-a10f53f1ef70","","","","","","","","","","","","","","","",""
"","","","","","instructions","1","7111","0.0-1.0","C2CBD106EE174AAABF476FEF7243005A","019dac6f-1bf7-7fa8-b259-47c0818f20a5","019dac5b-243f-7307-af64-a10f53f1ef70","[{""page_index"":0,""viewing_time"":4375}]","4375","","","","","","","","","","","","","",""
"","","","","","instructions","2","11738","0.0-2.0","C2CBD106EE174AAABF476FEF7243005A","019dac6f-1bf7-7fa8-b259-47c0818f20a5","019dac5b-243f-7307-af64-a10f53f1ef70","[{""page_index"":0,""viewing_time"":4626}]","4626","","","","","","","","","","","","","",""
"true","","","","","fullscreen","3","17665","0.0-3.0","C2CBD106EE174AAABF476FEF7243005A","019dac6f-1bf7-7fa8-b259-47c0818f20a5","019dac5b-243f-7307-af64-a10f53f1ef70","","4925","","","","","","","","","","","","","",""
"","","","","","instructions","4","25319","0.0-4.0","C2CBD106EE174AAABF476FEF7243005A","019dac6f-1bf7-7fa8-b259-47c0818f20a5","019dac5b-243f-7307-af64-a10f53f1ef70","[{""page_index"":0,""viewing_time"":7654}]","7654","","","","","","","","","","","","","",""
"","","","","","instructions","5","28451","0.0-5.0","C2CBD106EE174AAABF476FEF7243005A","019dac6f-1bf7-7fa8-b259-47c0818f20a5","019dac5b-243f-7307-af64-a10f53f1ef70","[{""page_index"":0,""viewing_time"":3132}]","3132","","","","","","","","","","","","","",""
"","","","","","html-keyboard-response","6","32468","0.0-6.0","C2CBD106EE174AAABF476FEF7243005A","019dac6f-1bf7-7fa8-b259-47c0818f20a5","019dac5b-243f-7307-af64-a10f53f1ef70","","null","
                <div class=""stimulus-container"">
                    <img src=""images/instructions/movie_1.png"" class=""exp-image"">
                    <div class=""question-area""></div> 
                </div>","null","","","","","","","","","","","",""
"","","","","","html-button-response","7","34345","0.0-7.0","C2CBD106EE174AAABF476FEF7243005A","019dac6f-1bf7-7fa8-b259-47c0818f20a5","019dac5b-243f-7307-af64-a10f53f1ef70","","1875","
                <div class=""stimulus-container"">
                    <img src=""images/instructions/movie_1.png"" class=""exp-image"">
                    <div class=""question-area"">
                        <p style=""font-size: 20px; font-weight: bold; margin: 0;"">Was there a person in this image?</p>
                    </div>
                </div>","0","example_question","1","","","","","","","","","",""
"","","","","","html-keyboard-response","8","38351","0.0-8.0","C2CBD106EE174AAABF476FEF7243005A","019dac6f-1bf7-7fa8-b259-47c0818f20a5","019dac5b-243f-7307-af64-a10f53f1ef70","","null","
                <div class=""stimulus-container"">
                    <img src=""images/instructions/movie_2.png"" class=""exp-image"">
                    <div class=""question-area""></div> 
                </div>","null","","","","","","","","","","","",""
"","","","","","html-button-response","9","39102","0.0-9.0","C2CBD106EE174AAABF476FEF7243005A","019dac6f-1bf7-7fa8-b259-47c0818f20a5","019dac5b-243f-7307-af64-a10f53f1ef70","","750","
                <div class=""stimulus-container"">
                    <img src=""images/instructions/movie_2.png"" class=""exp-image"">
                    <div class=""question-area"">
                        <p style=""font-size: 20px; font-weight: bold; margin: 0;"">Was there a person in this image?</p>
                    </div>
                </div>","0","example_question","2","","","","","","","","","",""
"","","","","","html-keyboard-response","10","43119","0.0-10.0","C2CBD106EE174AAABF476FEF7243005A","019dac6f-1bf7-7fa8-b259-47c0818f20a5","019dac5b-243f-7307-af64-a10f53f1ef70","","null","
                <div class=""stimulus-container"">
                    <img src=""images/instructions/movie_3.png"" class=""exp-image"">
                    <div class=""question-area""></div> 
                </div>","null","","","","","","","","","","","",""
"","","","","","html-button-response","11","43780","0.0-11.0","C2CBD106EE174AAABF476FEF7243005A","019dac6f-1bf7-7fa8-b259-47c0818f20a5","019dac5b-243f-7307-af64-a10f53f1ef70","","660","
                <div class=""stimulus-container"">
                    <img src=""images/instructions/movie_3.png"" class=""exp-image"">
                    <div class=""question-area"">
                        <p style=""font-size: 20px; font-weight: bold; margin: 0;"">Was there a person in this image?</p>
                    </div>
                </div>","0","example_question","3","","","","","","","","","",""
"","","","","","html-keyboard-response","12","47784","0.0-12.0","C2CBD106EE174AAABF476FEF7243005A","019dac6f-1bf7-7fa8-b259-47c0818f20a5","019dac5b-243f-7307-af64-a10f53f1ef70","","null","
                <div class=""stimulus-container"">
                    <img src=""images/instructions/movie_4.png"" class=""exp-image"">
                    <div class=""question-area""></div> 
                </div>","null","","","","","","","","","","","",""
"","","","","","html-button-response","13","48641","0.0-13.0","C2CBD106EE174AAABF476FEF7243005A","019dac6f-1bf7-7fa8-b259-47c0818f20a5","019dac5b-243f-7307-af64-a10f53f1ef70","","857","
                <div class=""stimulus-container"">
                    <img src=""images/instructions/movie_4.png"" class=""exp-image"">
                    <div class=""question-area"">
                        <p style=""font-size: 20px; font-weight: bold; margin: 0;"">Was there a person in this image?</p>
                    </div>
                </div>","0","example_question","4","","","","","","","","","",""
"","","","","","instructions","14","49649","0.0-14.0","C2CBD106EE174AAABF476FEF7243005A","019dac6f-1bf7-7fa8-b259-47c0818f20a5","019dac5b-243f-7307-af64-a10f53f1ef70","[{""page_index"":0,""viewing_time"":1007}]","1007","","","","","","","","","","","","","",""
"","","","","","instructions","15","52307","0.0-15.0","C2CBD106EE174AAABF476FEF7243005A","019dac6f-1bf7-7fa8-b259-47c0818f20a5","019dac5b-243f-7307-af64-a10f53f1ef70","[{""page_index"":0,""viewing_time"":2658}]","2659","","","","","","","","","","","","","",""
"","","","","","html-keyboard-response","16","57314","0.0-16.0","C2CBD106EE174AAABF476FEF7243005A","019dac6f-1bf7-7fa8-b259-47c0818f20a5","019dac5b-243f-7307-af64-a10f53f1ef70","","null","<div style=""background-color: white; width: 100vw; height: 100vh;""></div>","null","","","","","","","","","","","",""
"","","","","","html-keyboard-response","17","62320","0.0-17.0","C2CBD106EE174AAABF476FEF7243005A","019dac6f-1bf7-7fa8-b259-47c0818f20a5","019dac5b-243f-7307-af64-a10f53f1ef70","","null","
                <div class=""stimulus-container"">
                    <img src=""images/semantic_sequence/maintaining_a_car_semantic/maintaining_a_car_semantic_1.png"" class=""exp-image"">
                    <div class=""question-area""></div> 
                </div>","null","","","","","","","","","","","",""
"","","","","","html-button-response","18","63470","0.0-18.0","C2CBD106EE174AAABF476FEF7243005A","019dac6f-1bf7-7fa8-b259-47c0818f20a5","019dac5b-243f-7307-af64-a10f53f1ef70","","1149","
                <div class=""stimulus-container"">
                    <img src=""images/semantic_sequence/maintaining_a_car_semantic/maintaining_a_car_semantic_1.png"" class=""exp-image"">
                    <div class=""question-area"">
                        <p style=""font-size: 20px; font-weight: bold; margin: 0;"">Is there a person in this image?</p>
                    </div>
                </div>","0","main_experiment_trial","1","maintaining_a_car_semantic","semantic_sequence","chronological","","","","","","",""
"","","","","","html-keyboard-response","19","68476","0.0-19.0","C2CBD106EE174AAABF476FEF7243005A","019dac6f-1bf7-7fa8-b259-47c0818f20a5","019dac5b-243f-7307-af64-a10f53f1ef70","","null","
                <div class=""stimulus-container"">
                    <img src=""images/semantic_sequence/maintaining_a_car_semantic/maintaining_a_car_semantic_2.png"" class=""exp-image"">
                    <div class=""question-area""></div> 
                </div>","null","","","","","","","","","","","",""
"","","","","","html-button-response","20","69268","0.0-20.0","C2CBD106EE174AAABF476FEF7243005A","019dac6f-1bf7-7fa8-b259-47c0818f20a5","019dac5b-243f-7307-af64-a10f53f1ef70","","790","
                <div class=""stimulus-container"">
                    <img src=""images/semantic_sequence/maintaining_a_car_semantic/maintaining_a_car_semantic_2.png"" class=""exp-image"">
                    <div class=""question-area"">
                        <p style=""font-size: 20px; font-weight: bold; margin: 0;"">Is there a person in this image?</p>
                    </div>
                </div>","0","main_experiment_trial","2","maintaining_a_car_semantic","semantic_sequence","chronological","","","","","","",""
"","","","","","html-keyboard-response","21","74277","0.0-21.0","C2CBD106EE174AAABF476FEF7243005A","019dac6f-1bf7-7fa8-b259-47c0818f20a5","019dac5b-243f-7307-af64-a10f53f1ef70","","null","
                <div class=""stimulus-container"">
                    <img src=""images/semantic_sequence/maintaining_a_car_semantic/maintaining_a_car_semantic_3.png"" class=""exp-image"">
                    <div class=""question-area""></div> 
                </div>","null","","","","","","","","","","","",""
"","","","","","html-button-response","22","75217","0.0-22.0","C2CBD106EE174AAABF476FEF7243005A","019dac6f-1bf7-7fa8-b259-47c0818f20a5","019dac5b-243f-7307-af64-a10f53f1ef70","","939","
                <div class=""stimulus-container"">
                    <img src=""images/semantic_sequence/maintaining_a_car_semantic/maintaining_a_car_semantic_3.png"" class=""exp-image"">
                    <div class=""question-area"">
                        <p style=""font-size: 20px; font-weight: bold; margin: 0;"">Is there a person in this image?</p>
                    </div>
                </div>","0","main_experiment_trial","3","maintaining_a_car_semantic","semantic_sequence","chronological","","","","","","",""
"","","","","","html-keyboard-response","23","80219","0.0-23.0","C2CBD106EE174AAABF476FEF7243005A","019dac6f-1bf7-7fa8-b259-47c0818f20a5","019dac5b-243f-7307-af64-a10f53f1ef70","","null","
                <div class=""stimulus-container"">
                    <img src=""images/semantic_sequence/maintaining_a_car_semantic/maintaining_a_car_semantic_4.png"" class=""exp-image"">
                    <div class=""question-area""></div> 
                </div>","null","","","","","","","","","","","",""
"","","","","","html-button-response","24","81689","0.0-24.0","C2CBD106EE174AAABF476FEF7243005A","019dac6f-1bf7-7fa8-b259-47c0818f20a5","019dac5b-243f-7307-af64-a10f53f1ef70","","1469","
                <div class=""stimulus-container"">
                    <img src=""images/semantic_sequence/maintaining_a_car_semantic/maintaining_a_car_semantic_4.png"" class=""exp-image"">
                    <div class=""question-area"">
                        <p style=""font-size: 20px; font-weight: bold; margin: 0;"">Is there a person in this image?</p>
                    </div>
                </div>","0","main_experiment_trial","4","maintaining_a_car_semantic","semantic_sequence","chronological","","","","","","",""
"","","","","","html-keyboard-response","25","86705","0.0-25.0","C2CBD106EE174AAABF476FEF7243005A","019dac6f-1bf7-7fa8-b259-47c0818f20a5","019dac5b-243f-7307-af64-a10f53f1ef70","","null","
                <div class=""stimulus-container"">
                    <img src=""images/semantic_sequence/maintaining_a_car_semantic/maintaining_a_car_semantic_5.png"" class=""exp-image"">
                    <div class=""question-area""></div> 
                </div>","null","","","","","","","","","","","",""
"","","","","","html-button-response","26","87636","0.0-26.0","C2CBD106EE174AAABF476FEF7243005A","019dac6f-1bf7-7fa8-b259-47c0818f20a5","019dac5b-243f-7307-af64-a10f53f1ef70","","930","
                <div class=""stimulus-container"">
                    <img src=""images/semantic_sequence/maintaining_a_car_semantic/maintaining_a_car_semantic_5.png"" class=""exp-image"">
                    <div class=""question-area"">
                        <p style=""font-size: 20px; font-weight: bold; margin: 0;"">Is there a person in this image?</p>
                    </div>
                </div>","0","main_experiment_trial","5","maintaining_a_car_semantic","semantic_sequence","chronological","","","","","","",""
"","","","","","html-keyboard-response","27","92643","0.0-27.0","C2CBD106EE174AAABF476FEF7243005A","019dac6f-1bf7-7fa8-b259-47c0818f20a5","019dac5b-243f-7307-af64-a10f53f1ef70","","null","
                <div class=""stimulus-container"">
                    <img src=""images/semantic_sequence/maintaining_a_car_semantic/maintaining_a_car_semantic_6.png"" class=""exp-image"">
                    <div class=""question-area""></div> 
                </div>","null","","","","","","","","","","","",""
"","","","","","html-button-response","28","92954","0.0-28.0","C2CBD106EE174AAABF476FEF7243005A","019dac6f-1bf7-7fa8-b259-47c0818f20a5","019dac5b-243f-7307-af64-a10f53f1ef70","","311","
                <div class=""stimulus-container"">
                    <img src=""images/semantic_sequence/maintaining_a_car_semantic/maintaining_a_car_semantic_6.png"" class=""exp-image"">
                    <div class=""question-area"">
                        <p style=""font-size: 20px; font-weight: bold; margin: 0;"">Is there a person in this image?</p>
                    </div>
                </div>","0","main_experiment_trial","6","maintaining_a_car_semantic","semantic_sequence","chronological","","","","","","",""
"","","","","","html-keyboard-response","29","97964","0.0-29.0","C2CBD106EE174AAABF476FEF7243005A","019dac6f-1bf7-7fa8-b259-47c0818f20a5","019dac5b-243f-7307-af64-a10f53f1ef70","","null","
                <div class=""stimulus-container"">
                    <img src=""images/semantic_sequence/maintaining_a_car_semantic/maintaining_a_car_semantic_7.png"" class=""exp-image"">
                    <div class=""question-area""></div> 
                </div>","null","","","","","","","","","","","",""
"","","","","","html-button-response","30","98291","0.0-30.0","C2CBD106EE174AAABF476FEF7243005A","019dac6f-1bf7-7fa8-b259-47c0818f20a5","019dac5b-243f-7307-af64-a10f53f1ef70","","326","
                <div class=""stimulus-container"">
                    <img src=""images/semantic_sequence/maintaining_a_car_semantic/maintaining_a_car_semantic_7.png"" class=""exp-image"">
                    <div class=""question-area"">
                        <p style=""font-size: 20px; font-weight: bold; margin: 0;"">Is there a person in this image?</p>
                    </div>
                </div>","0","main_experiment_trial","7","maintaining_a_car_semantic","semantic_sequence","chronological","","","","","","",""
"","","","","","html-keyboard-response","31","103298","0.0-31.0","C2CBD106EE174AAABF476FEF7243005A","019dac6f-1bf7-7fa8-b259-47c0818f20a5","019dac5b-243f-7307-af64-a10f53f1ef70","","null","
                <div class=""stimulus-container"">
                    <img src=""images/semantic_sequence/maintaining_a_car_semantic/maintaining_a_car_semantic_8.png"" class=""exp-image"">
                    <div class=""question-area""></div> 
                </div>","null","","","","","","","","","","","",""
"","","","","","html-button-response","32","103595","0.0-32.0","C2CBD106EE174AAABF476FEF7243005A","019dac6f-1bf7-7fa8-b259-47c0818f20a5","019dac5b-243f-7307-af64-a10f53f1ef70","","297","
                <div class=""stimulus-container"">
                    <img src=""images/semantic_sequence/maintaining_a_car_semantic/maintaining_a_car_semantic_8.png"" class=""exp-image"">
                    <div class=""question-area"">
                        <p style=""font-size: 20px; font-weight: bold; margin: 0;"">Is there a person in this image?</p>
                    </div>
                </div>","0","main_experiment_trial","8","maintaining_a_car_semantic","semantic_sequence","chronological","","","","","","",""
"","","","","","html-keyboard-response","33","108600","0.0-33.0","C2CBD106EE174AAABF476FEF7243005A","019dac6f-1bf7-7fa8-b259-47c0818f20a5","019dac5b-243f-7307-af64-a10f53f1ef70","","null","
                <div class=""stimulus-container"">
                    <img src=""images/semantic_sequence/maintaining_a_car_semantic/maintaining_a_car_semantic_9.png"" class=""exp-image"">
                    <div class=""question-area""></div> 
                </div>","null","","","","","","","","","","","",""
"","","","","","html-button-response","34","109050","0.0-34.0","C2CBD106EE174AAABF476FEF7243005A","019dac6f-1bf7-7fa8-b259-47c0818f20a5","019dac5b-243f-7307-af64-a10f53f1ef70","","449","
                <div class=""stimulus-container"">
                    <img src=""images/semantic_sequence/maintaining_a_car_semantic/maintaining_a_car_semantic_9.png"" class=""exp-image"">
                    <div class=""question-area"">
                        <p style=""font-size: 20px; font-weight: bold; margin: 0;"">Is there a person in this image?</p>
                    </div>
                </div>","0","main_experiment_trial","9","maintaining_a_car_semantic","semantic_sequence","chronological","","","","","","",""
"","","","","","html-keyboard-response","35","114062","0.0-35.0","C2CBD106EE174AAABF476FEF7243005A","019dac6f-1bf7-7fa8-b259-47c0818f20a5","019dac5b-243f-7307-af64-a10f53f1ef70","","null","
                <div class=""stimulus-container"">
                    <img src=""images/semantic_sequence/maintaining_a_car_semantic/maintaining_a_car_semantic_ten.png"" class=""exp-image"">
                    <div class=""question-area""></div> 
                </div>","null","","","","","","","","","","","",""
"","","","","","html-button-response","36","114335","0.0-36.0","C2CBD106EE174AAABF476FEF7243005A","019dac6f-1bf7-7fa8-b259-47c0818f20a5","019dac5b-243f-7307-af64-a10f53f1ef70","","272","
                <div class=""stimulus-container"">
                    <img src=""images/semantic_sequence/maintaining_a_car_semantic/maintaining_a_car_semantic_ten.png"" class=""exp-image"">
                    <div class=""question-area"">
                        <p style=""font-size: 20px; font-weight: bold; margin: 0;"">Is there a person in this image?</p>
                    </div>
                </div>","0","main_experiment_trial","ten","maintaining_a_car_semantic","semantic_sequence","chronological","","","","","","",""
"","","","","","html-keyboard-response","37","119336","0.0-37.0","C2CBD106EE174AAABF476FEF7243005A","019dac6f-1bf7-7fa8-b259-47c0818f20a5","019dac5b-243f-7307-af64-a10f53f1ef70","","null","<div style=""background-color: white; width: 100vw; height: 100vh;""></div>","null","","","","","","","","","","","",""
"","","","","","html-keyboard-response","38","124337","0.0-38.0","C2CBD106EE174AAABF476FEF7243005A","019dac6f-1bf7-7fa8-b259-47c0818f20a5","019dac5b-243f-7307-af64-a10f53f1ef70","","null","
                <div class=""stimulus-container"">
                    <img src=""images/causal_sequence/package_causal/package_causal_1.png"" class=""exp-image"">
                    <div class=""question-area""></div> 
                </div>","null","","","","","","","","","","","",""
"","","","","","html-button-response","39","125749","0.0-39.0","C2CBD106EE174AAABF476FEF7243005A","019dac6f-1bf7-7fa8-b259-47c0818f20a5","019dac5b-243f-7307-af64-a10f53f1ef70","","1411","
                <div class=""stimulus-container"">
                    <img src=""images/causal_sequence/package_causal/package_causal_1.png"" class=""exp-image"">
                    <div class=""question-area"">
                        <p style=""font-size: 20px; font-weight: bold; margin: 0;"">Is there a person in this image?</p>
                    </div>
                </div>","0","main_experiment_trial","1","package_causal","causal_sequence","chronological","","","","","","",""
"","","","","","html-keyboard-response","40","130752","0.0-40.0","C2CBD106EE174AAABF476FEF7243005A","019dac6f-1bf7-7fa8-b259-47c0818f20a5","019dac5b-243f-7307-af64-a10f53f1ef70","","null","
                <div class=""stimulus-container"">
                    <img src=""images/causal_sequence/package_causal/package_causal_2.png"" class=""exp-image"">
                    <div class=""question-area""></div> 
                </div>","null","","","","","","","","","","","",""
"","","","","","html-button-response","41","131543","0.0-41.0","C2CBD106EE174AAABF476FEF7243005A","019dac6f-1bf7-7fa8-b259-47c0818f20a5","019dac5b-243f-7307-af64-a10f53f1ef70","","790","
                <div class=""stimulus-container"">
                    <img src=""images/causal_sequence/package_causal/package_causal_2.png"" class=""exp-image"">
                    <div class=""question-area"">
                        <p style=""font-size: 20px; font-weight: bold; margin: 0;"">Is there a person in this image?</p>
                    </div>
                </div>","0","main_experiment_trial","2","package_causal","causal_sequence","chronological","","","","","","",""
"","","","","","html-keyboard-response","42","136556","0.0-42.0","C2CBD106EE174AAABF476FEF7243005A","019dac6f-1bf7-7fa8-b259-47c0818f20a5","019dac5b-243f-7307-af64-a10f53f1ef70","","null","
                <div class=""stimulus-container"">
                    <img src=""images/causal_sequence/package_causal/package_causal_3.png"" class=""exp-image"">
                    <div class=""question-area""></div> 
                </div>","null","","","","","","","","","","","",""
"","","","","","html-button-response","43","136833","0.0-43.0","C2CBD106EE174AAABF476FEF7243005A","019dac6f-1bf7-7fa8-b259-47c0818f20a5","019dac5b-243f-7307-af64-a10f53f1ef70","","276","
                <div class=""stimulus-container"">
                    <img src=""images/causal_sequence/package_causal/package_causal_3.png"" class=""exp-image"">
                    <div class=""question-area"">
                        <p style=""font-size: 20px; font-weight: bold; margin: 0;"">Is there a person in this image?</p>
                    </div>
                </div>","0","main_experiment_trial","3","package_causal","causal_sequence","chronological","","","","","","",""
"","","","","","html-keyboard-response","44","141844","0.0-44.0","C2CBD106EE174AAABF476FEF7243005A","019dac6f-1bf7-7fa8-b259-47c0818f20a5","019dac5b-243f-7307-af64-a10f53f1ef70","","null","
                <div class=""stimulus-container"">
                    <img src=""images/causal_sequence/package_causal/package_causal_4.png"" class=""exp-image"">
                    <div class=""question-area""></div> 
                </div>","null","","","","","","","","","","","",""
"","","","","","html-button-response","45","142419","0.0-45.0","C2CBD106EE174AAABF476FEF7243005A","019dac6f-1bf7-7fa8-b259-47c0818f20a5","019dac5b-243f-7307-af64-a10f53f1ef70","","575","
                <div class=""stimulus-container"">
                    <img src=""images/causal_sequence/package_causal/package_causal_4.png"" class=""exp-image"">
                    <div class=""question-area"">
                        <p style=""font-size: 20px; font-weight: bold; margin: 0;"">Is there a person in this image?</p>
                    </div>
                </div>","1","main_experiment_trial","4","package_causal","causal_sequence","chronological","","","","","","",""
"","","","","","html-keyboard-response","46","147433","0.0-46.0","C2CBD106EE174AAABF476FEF7243005A","019dac6f-1bf7-7fa8-b259-47c0818f20a5","019dac5b-243f-7307-af64-a10f53f1ef70","","null","
                <div class=""stimulus-container"">
                    <img src=""images/causal_sequence/package_causal/package_causal_5.png"" class=""exp-image"">
                    <div class=""question-area""></div> 
                </div>","null","","","","","","","","","","","",""
"","","","","","html-button-response","47","147937","0.0-47.0","C2CBD106EE174AAABF476FEF7243005A","019dac6f-1bf7-7fa8-b259-47c0818f20a5","019dac5b-243f-7307-af64-a10f53f1ef70","","503","
                <div class=""stimulus-container"">
                    <img src=""images/causal_sequence/package_causal/package_causal_5.png"" class=""exp-image"">
                    <div class=""question-area"">
                        <p style=""font-size: 20px; font-weight: bold; margin: 0;"">Is there a person in this image?</p>
                    </div>
                </div>","0","main_experiment_trial","5","package_causal","causal_sequence","chronological","","","","","","",""
"","","","","","html-keyboard-response","48","152946","0.0-48.0","C2CBD106EE174AAABF476FEF7243005A","019dac6f-1bf7-7fa8-b259-47c0818f20a5","019dac5b-243f-7307-af64-a10f53f1ef70","","null","
                <div class=""stimulus-container"">
                    <img src=""images/causal_sequence/package_causal/package_causal_6.png"" class=""exp-image"">
                    <div class=""question-area""></div> 
                </div>","null","","","","","","","","","","","",""
"","","","","","html-button-response","49","153478","0.0-49.0","C2CBD106EE174AAABF476FEF7243005A","019dac6f-1bf7-7fa8-b259-47c0818f20a5","019dac5b-243f-7307-af64-a10f53f1ef70","","531","
                <div class=""stimulus-container"">
                    <img src=""images/causal_sequence/package_causal/package_causal_6.png"" class=""exp-image"">
                    <div class=""question-area"">
                        <p style=""font-size: 20px; font-weight: bold; margin: 0;"">Is there a person in this image?</p>
                    </div>
                </div>","0","main_experiment_trial","6","package_causal","causal_sequence","chronological","","","","","","",""
"","","","","","html-keyboard-response","50","158482","0.0-50.0","C2CBD106EE174AAABF476FEF7243005A","019dac6f-1bf7-7fa8-b259-47c0818f20a5","019dac5b-243f-7307-af64-a10f53f1ef70","","null","
                <div class=""stimulus-container"">
                    <img src=""images/causal_sequence/package_causal/package_causal_7.png"" class=""exp-image"">
                    <div class=""question-area""></div> 
                </div>","null","","","","","","","","","","","",""
"","","","","","html-button-response","51","159429","0.0-51.0","C2CBD106EE174AAABF476FEF7243005A","019dac6f-1bf7-7fa8-b259-47c0818f20a5","019dac5b-243f-7307-af64-a10f53f1ef70","","947","
                <div class=""stimulus-container"">
                    <img src=""images/causal_sequence/package_causal/package_causal_7.png"" class=""exp-image"">
                    <div class=""question-area"">
                        <p style=""font-size: 20px; font-weight: bold; margin: 0;"">Is there a person in this image?</p>
                    </div>
                </div>","0","main_experiment_trial","7","package_causal","causal_sequence","chronological","","","","","","",""
"","","","","","html-keyboard-response","52","164432","0.0-52.0","C2CBD106EE174AAABF476FEF7243005A","019dac6f-1bf7-7fa8-b259-47c0818f20a5","019dac5b-243f-7307-af64-a10f53f1ef70","","null","
                <div class=""stimulus-container"">
                    <img src=""images/causal_sequence/package_causal/package_causal_8.png"" class=""exp-image"">
                    <div class=""question-area""></div> 
                </div>","null","","","","","","","","","","","",""
"","","","","","html-button-response","53","164816","0.0-53.0","C2CBD106EE174AAABF476FEF7243005A","019dac6f-1bf7-7fa8-b259-47c0818f20a5","019dac5b-243f-7307-af64-a10f53f1ef70","","383","
                <div class=""stimulus-container"">
                    <img src=""images/causal_sequence/package_causal/package_causal_8.png"" class=""exp-image"">
                    <div class=""question-area"">
                        <p style=""font-size: 20px; font-weight: bold; margin: 0;"">Is there a person in this image?</p>
                    </div>
                </div>","0","main_experiment_trial","8","package_causal","causal_sequence","chronological","","","","","","",""
"","","","","","html-keyboard-response","54","169825","0.0-54.0","C2CBD106EE174AAABF476FEF7243005A","019dac6f-1bf7-7fa8-b259-47c0818f20a5","019dac5b-243f-7307-af64-a10f53f1ef70","","null","
                <div class=""stimulus-container"">
                    <img src=""images/causal_sequence/package_causal/package_causal_9.png"" class=""exp-image"">
                    <div class=""question-area""></div> 
                </div>","null","","","","","","","","","","","",""
"","","","","","html-button-response","55","170144","0.0-55.0","C2CBD106EE174AAABF476FEF7243005A","019dac6f-1bf7-7fa8-b259-47c0818f20a5","019dac5b-243f-7307-af64-a10f53f1ef70","","319","
                <div class=""stimulus-container"">
                    <img src=""images/causal_sequence/package_causal/package_causal_9.png"" class=""exp-image"">
                    <div class=""question-area"">
                        <p style=""font-size: 20px; font-weight: bold; margin: 0;"">Is there a person in this image?</p>
                    </div>
                </div>","0","main_experiment_trial","9","package_causal","causal_sequence","chronological","","","","","","",""
"","","","","","html-keyboard-response","56","175152","0.0-56.0","C2CBD106EE174AAABF476FEF7243005A","019dac6f-1bf7-7fa8-b259-47c0818f20a5","019dac5b-243f-7307-af64-a10f53f1ef70","","null","
                <div class=""stimulus-container"">
                    <img src=""images/causal_sequence/package_causal/package_causal_ten.png"" class=""exp-image"">
                    <div class=""question-area""></div> 
                </div>","null","","","","","","","","","","","",""
"","","","","","html-button-response","57","175625","0.0-57.0","C2CBD106EE174AAABF476FEF7243005A","019dac6f-1bf7-7fa8-b259-47c0818f20a5","019dac5b-243f-7307-af64-a10f53f1ef70","","472","
                <div class=""stimulus-container"">
                    <img src=""images/causal_sequence/package_causal/package_causal_ten.png"" class=""exp-image"">
                    <div class=""question-area"">
                        <p style=""font-size: 20px; font-weight: bold; margin: 0;"">Is there a person in this image?</p>
                    </div>
                </div>","0","main_experiment_trial","ten","package_causal","causal_sequence","chronological","","","","","","",""
"","","","","","html-keyboard-response","58","180633","0.0-58.0","C2CBD106EE174AAABF476FEF7243005A","019dac6f-1bf7-7fa8-b259-47c0818f20a5","019dac5b-243f-7307-af64-a10f53f1ef70","","null","<div style=""background-color: white; width: 100vw; height: 100vh;""></div>","null","","","","","","","","","","","",""
"","","","","","html-keyboard-response","59","185645","0.0-59.0","C2CBD106EE174AAABF476FEF7243005A","019dac6f-1bf7-7fa8-b259-47c0818f20a5","019dac5b-243f-7307-af64-a10f53f1ef70","","null","
                <div class=""stimulus-container"">
                    <img src=""images/semantic_sequence/self_care_activities_semantic/self_care_activities_semantic_1.png"" class=""exp-image"">
                    <div class=""question-area""></div> 
                </div>","null","","","","","","","","","","","",""
"","","","","","html-button-response","60","186601","0.0-60.0","C2CBD106EE174AAABF476FEF7243005A","019dac6f-1bf7-7fa8-b259-47c0818f20a5","019dac5b-243f-7307-af64-a10f53f1ef70","","955","
                <div class=""stimulus-container"">
                    <img src=""images/semantic_sequence/self_care_activities_semantic/self_care_activities_semantic_1.png"" class=""exp-image"">
                    <div class=""question-area"">
                        <p style=""font-size: 20px; font-weight: bold; margin: 0;"">Is there a person in this image?</p>
                    </div>
                </div>","0","main_experiment_trial","1","self_care_activities_semantic","semantic_sequence","chronological","","","","","","",""
"","","","","","html-keyboard-response","61","191611","0.0-61.0","C2CBD106EE174AAABF476FEF7243005A","019dac6f-1bf7-7fa8-b259-47c0818f20a5","019dac5b-243f-7307-af64-a10f53f1ef70","","null","
                <div class=""stimulus-container"">
                    <img src=""images/semantic_sequence/self_care_activities_semantic/self_care_activities_semantic_2.png"" class=""exp-image"">
                    <div class=""question-area""></div> 
                </div>","null","","","","","","","","","","","",""
"","","","","","html-button-response","62","191984","0.0-62.0","C2CBD106EE174AAABF476FEF7243005A","019dac6f-1bf7-7fa8-b259-47c0818f20a5","019dac5b-243f-7307-af64-a10f53f1ef70","","372","
                <div class=""stimulus-container"">
                    <img src=""images/semantic_sequence/self_care_activities_semantic/self_care_activities_semantic_2.png"" class=""exp-image"">
                    <div class=""question-area"">
                        <p style=""font-size: 20px; font-weight: bold; margin: 0;"">Is there a person in this image?</p>
                    </div>
                </div>","0","main_experiment_trial","2","self_care_activities_semantic","semantic_sequence","chronological","","","","","","",""
"","","","","","html-keyboard-response","63","196987","0.0-63.0","C2CBD106EE174AAABF476FEF7243005A","019dac6f-1bf7-7fa8-b259-47c0818f20a5","019dac5b-243f-7307-af64-a10f53f1ef70","","null","
                <div class=""stimulus-container"">
                    <img src=""images/semantic_sequence/self_care_activities_semantic/self_care_activities_semantic_3.png"" class=""exp-image"">
                    <div class=""question-area""></div> 
                </div>","null","","","","","","","","","","","",""
"","","","","","html-button-response","64","197988","0.0-64.0","C2CBD106EE174AAABF476FEF7243005A","019dac6f-1bf7-7fa8-b259-47c0818f20a5","019dac5b-243f-7307-af64-a10f53f1ef70","","1000","
                <div class=""stimulus-container"">
                    <img src=""images/semantic_sequence/self_care_activities_semantic/self_care_activities_semantic_3.png"" class=""exp-image"">
                    <div class=""question-area"">
                        <p style=""font-size: 20px; font-weight: bold; margin: 0;"">Is there a person in this image?</p>
                    </div>
                </div>","0","main_experiment_trial","3","self_care_activities_semantic","semantic_sequence","chronological","","","","","","",""
"","","","","","html-keyboard-response","65","202988","0.0-65.0","C2CBD106EE174AAABF476FEF7243005A","019dac6f-1bf7-7fa8-b259-47c0818f20a5","019dac5b-243f-7307-af64-a10f53f1ef70","","null","
                <div class=""stimulus-container"">
                    <img src=""images/semantic_sequence/self_care_activities_semantic/self_care_activities_semantic_4.png"" class=""exp-image"">
                    <div class=""question-area""></div> 
                </div>","null","","","","","","","","","","","",""
"","","","","","html-button-response","66","203261","0.0-66.0","C2CBD106EE174AAABF476FEF7243005A","019dac6f-1bf7-7fa8-b259-47c0818f20a5","019dac5b-243f-7307-af64-a10f53f1ef70","","272","
                <div class=""stimulus-container"">
                    <img src=""images/semantic_sequence/self_care_activities_semantic/self_care_activities_semantic_4.png"" class=""exp-image"">
                    <div class=""question-area"">
                        <p style=""font-size: 20px; font-weight: bold; margin: 0;"">Is there a person in this image?</p>
                    </div>
                </div>","0","main_experiment_trial","4","self_care_activities_semantic","semantic_sequence","chronological","","","","","","",""
"","","","","","html-keyboard-response","67","208267","0.0-67.0","C2CBD106EE174AAABF476FEF7243005A","019dac6f-1bf7-7fa8-b259-47c0818f20a5","019dac5b-243f-7307-af64-a10f53f1ef70","","null","
                <div class=""stimulus-container"">
                    <img src=""images/semantic_sequence/self_care_activities_semantic/self_care_activities_semantic_5.png"" class=""exp-image"">
                    <div class=""question-area""></div> 
                </div>","null","","","","","","","","","","","",""
"","","","","","html-button-response","68","208604","0.0-68.0","C2CBD106EE174AAABF476FEF7243005A","019dac6f-1bf7-7fa8-b259-47c0818f20a5","019dac5b-243f-7307-af64-a10f53f1ef70","","336","
                <div class=""stimulus-container"">
                    <img src=""images/semantic_sequence/self_care_activities_semantic/self_care_activities_semantic_5.png"" class=""exp-image"">
                    <div class=""question-area"">
                        <p style=""font-size: 20px; font-weight: bold; margin: 0;"">Is there a person in this image?</p>
                    </div>
                </div>","0","main_experiment_trial","5","self_care_activities_semantic","semantic_sequence","chronological","","","","","","",""
"","","","","","html-keyboard-response","69","213620","0.0-69.0","C2CBD106EE174AAABF476FEF7243005A","019dac6f-1bf7-7fa8-b259-47c0818f20a5","019dac5b-243f-7307-af64-a10f53f1ef70","","null","
                <div class=""stimulus-container"">
                    <img src=""images/semantic_sequence/self_care_activities_semantic/self_care_activities_semantic_6.png"" class=""exp-image"">
                    <div class=""question-area""></div> 
                </div>","null","","","","","","","","","","","",""
"","","","","","html-button-response","70","214237","0.0-70.0","C2CBD106EE174AAABF476FEF7243005A","019dac6f-1bf7-7fa8-b259-47c0818f20a5","019dac5b-243f-7307-af64-a10f53f1ef70","","616","
                <div class=""stimulus-container"">
                    <img src=""images/semantic_sequence/self_care_activities_semantic/self_care_activities_semantic_6.png"" class=""exp-image"">
                    <div class=""question-area"">
                        <p style=""font-size: 20px; font-weight: bold; margin: 0;"">Is there a person in this image?</p>
                    </div>
                </div>","1","main_experiment_trial","6","self_care_activities_semantic","semantic_sequence","chronological","","","","","","",""
"","","","","","html-keyboard-response","71","219239","0.0-71.0","C2CBD106EE174AAABF476FEF7243005A","019dac6f-1bf7-7fa8-b259-47c0818f20a5","019dac5b-243f-7307-af64-a10f53f1ef70","","null","
                <div class=""stimulus-container"">
                    <img src=""images/semantic_sequence/self_care_activities_semantic/self_care_activities_semantic_7.png"" class=""exp-image"">
                    <div class=""question-area""></div> 
                </div>","null","","","","","","","","","","","",""
"","","","","","html-button-response","72","219835","0.0-72.0","C2CBD106EE174AAABF476FEF7243005A","019dac6f-1bf7-7fa8-b259-47c0818f20a5","019dac5b-243f-7307-af64-a10f53f1ef70","","595","
                <div class=""stimulus-container"">
                    <img src=""images/semantic_sequence/self_care_activities_semantic/self_care_activities_semantic_7.png"" class=""exp-image"">
                    <div class=""question-area"">
                        <p style=""font-size: 20px; font-weight: bold; margin: 0;"">Is there a person in this image?</p>
                    </div>
                </div>","0","main_experiment_trial","7","self_care_activities_semantic","semantic_sequence","chronological","","","","","","",""
"","","","","","html-keyboard-response","73","224850","0.0-73.0","C2CBD106EE174AAABF476FEF7243005A","019dac6f-1bf7-7fa8-b259-47c0818f20a5","019dac5b-243f-7307-af64-a10f53f1ef70","","null","
                <div class=""stimulus-container"">
                    <img src=""images/semantic_sequence/self_care_activities_semantic/self_care_activities_semantic_8.png"" class=""exp-image"">
                    <div class=""question-area""></div> 
                </div>","null","","","","","","","","","","","",""
"","","","","","html-button-response","74","225581","0.0-74.0","C2CBD106EE174AAABF476FEF7243005A","019dac6f-1bf7-7fa8-b259-47c0818f20a5","019dac5b-243f-7307-af64-a10f53f1ef70","","730","
                <div class=""stimulus-container"">
                    <img src=""images/semantic_sequence/self_care_activities_semantic/self_care_activities_semantic_8.png"" class=""exp-image"">
                    <div class=""question-area"">
                        <p style=""font-size: 20px; font-weight: bold; margin: 0;"">Is there a person in this image?</p>
                    </div>
                </div>","0","main_experiment_trial","8","self_care_activities_semantic","semantic_sequence","chronological","","","","","","",""
"","","","","","html-keyboard-response","75","230592","0.0-75.0","C2CBD106EE174AAABF476FEF7243005A","019dac6f-1bf7-7fa8-b259-47c0818f20a5","019dac5b-243f-7307-af64-a10f53f1ef70","","null","
                <div class=""stimulus-container"">
                    <img src=""images/semantic_sequence/self_care_activities_semantic/self_care_activities_semantic_9.png"" class=""exp-image"">
                    <div class=""question-area""></div> 
                </div>","null","","","","","","","","","","","",""
"","","","","","html-button-response","76","231553","0.0-76.0","C2CBD106EE174AAABF476FEF7243005A","019dac6f-1bf7-7fa8-b259-47c0818f20a5","019dac5b-243f-7307-af64-a10f53f1ef70","","961","
                <div class=""stimulus-container"">
                    <img src=""images/semantic_sequence/self_care_activities_semantic/self_care_activities_semantic_9.png"" class=""exp-image"">
                    <div class=""question-area"">
                        <p style=""font-size: 20px; font-weight: bold; margin: 0;"">Is there a person in this image?</p>
                    </div>
                </div>","0","main_experiment_trial","9","self_care_activities_semantic","semantic_sequence","chronological","","","","","","",""
"","","","","","html-keyboard-response","77","236556","0.0-77.0","C2CBD106EE174AAABF476FEF7243005A","019dac6f-1bf7-7fa8-b259-47c0818f20a5","019dac5b-243f-7307-af64-a10f53f1ef70","","null","
                <div class=""stimulus-container"">
                    <img src=""images/semantic_sequence/self_care_activities_semantic/self_care_activities_semantic_ten.png"" class=""exp-image"">
                    <div class=""question-area""></div> 
                </div>","null","","","","","","","","","","","",""
"","","","","","html-button-response","78","237616","0.0-78.0","C2CBD106EE174AAABF476FEF7243005A","019dac6f-1bf7-7fa8-b259-47c0818f20a5","019dac5b-243f-7307-af64-a10f53f1ef70","","1059","
                <div class=""stimulus-container"">
                    <img src=""images/semantic_sequence/self_care_activities_semantic/self_care_activities_semantic_ten.png"" class=""exp-image"">
                    <div class=""question-area"">
                        <p style=""font-size: 20px; font-weight: bold; margin: 0;"">Is there a person in this image?</p>
                    </div>
                </div>","0","main_experiment_trial","ten","self_care_activities_semantic","semantic_sequence","chronological","","","","","","",""
"","","","","","html-keyboard-response","79","242619","0.0-79.0","C2CBD106EE174AAABF476FEF7243005A","019dac6f-1bf7-7fa8-b259-47c0818f20a5","019dac5b-243f-7307-af64-a10f53f1ef70","","null","<div style=""background-color: white; width: 100vw; height: 100vh;""></div>","null","","","","","","","","","","","",""
"","","","","","html-keyboard-response","80","247620","0.0-80.0","C2CBD106EE174AAABF476FEF7243005A","019dac6f-1bf7-7fa8-b259-47c0818f20a5","019dac5b-243f-7307-af64-a10f53f1ef70","","null","
                <div class=""stimulus-container"">
                    <img src=""images/semantic_sequence/visiting_cities_semantic/visiting_cities_semantic_1.png"" class=""exp-image"">
                    <div class=""question-area""></div> 
                </div>","null","","","","","","","","","","","",""
"","","","","","html-button-response","81","250623","0.0-81.0","C2CBD106EE174AAABF476FEF7243005A","019dac6f-1bf7-7fa8-b259-47c0818f20a5","019dac5b-243f-7307-af64-a10f53f1ef70","","null","
                <div class=""stimulus-container"">
                    <img src=""images/semantic_sequence/visiting_cities_semantic/visiting_cities_semantic_1.png"" class=""exp-image"">
                    <div class=""question-area"">
                        <p style=""font-size: 20px; font-weight: bold; margin: 0;"">Is there a person in this image?</p>
                    </div>
                </div>","null","main_experiment_trial","1","visiting_cities_semantic","semantic_sequence","chronological","","","","","","",""
"","","","","","html-keyboard-response","82","255634","0.0-82.0","C2CBD106EE174AAABF476FEF7243005A","019dac6f-1bf7-7fa8-b259-47c0818f20a5","019dac5b-243f-7307-af64-a10f53f1ef70","","null","
                <div class=""stimulus-container"">
                    <img src=""images/semantic_sequence/visiting_cities_semantic/visiting_cities_semantic_2.png"" class=""exp-image"">
                    <div class=""question-area""></div> 
                </div>","null","","","","","","","","","","","",""
"","","","","","html-button-response","83","256106","0.0-83.0","C2CBD106EE174AAABF476FEF7243005A","019dac6f-1bf7-7fa8-b259-47c0818f20a5","019dac5b-243f-7307-af64-a10f53f1ef70","","470","
                <div class=""stimulus-container"">
                    <img src=""images/semantic_sequence/visiting_cities_semantic/visiting_cities_semantic_2.png"" class=""exp-image"">
                    <div class=""question-area"">
                        <p style=""font-size: 20px; font-weight: bold; margin: 0;"">Is there a person in this image?</p>
                    </div>
                </div>","1","main_experiment_trial","2","visiting_cities_semantic","semantic_sequence","chronological","","","","","","",""
"","","","","","html-keyboard-response","84","261121","0.0-84.0","C2CBD106EE174AAABF476FEF7243005A","019dac6f-1bf7-7fa8-b259-47c0818f20a5","019dac5b-243f-7307-af64-a10f53f1ef70","","null","
                <div class=""stimulus-container"">
                    <img src=""images/semantic_sequence/visiting_cities_semantic/visiting_cities_semantic_3.png"" class=""exp-image"">
                    <div class=""question-area""></div> 
                </div>","null","","","","","","","","","","","",""
"","","","","","html-button-response","85","261422","0.0-85.0","C2CBD106EE174AAABF476FEF7243005A","019dac6f-1bf7-7fa8-b259-47c0818f20a5","019dac5b-243f-7307-af64-a10f53f1ef70","","300","
                <div class=""stimulus-container"">
                    <img src=""images/semantic_sequence/visiting_cities_semantic/visiting_cities_semantic_3.png"" class=""exp-image"">
                    <div class=""question-area"">
                        <p style=""font-size: 20px; font-weight: bold; margin: 0;"">Is there a person in this image?</p>
                    </div>
                </div>","1","main_experiment_trial","3","visiting_cities_semantic","semantic_sequence","chronological","","","","","","",""
"","","","","","html-keyboard-response","86","266429","0.0-86.0","C2CBD106EE174AAABF476FEF7243005A","019dac6f-1bf7-7fa8-b259-47c0818f20a5","019dac5b-243f-7307-af64-a10f53f1ef70","","null","
                <div class=""stimulus-container"">
                    <img src=""images/semantic_sequence/visiting_cities_semantic/visiting_cities_semantic_4.png"" class=""exp-image"">
                    <div class=""question-area""></div> 
                </div>","null","","","","","","","","","","","",""
"","","","","","html-button-response","87","266796","0.0-87.0","C2CBD106EE174AAABF476FEF7243005A","019dac6f-1bf7-7fa8-b259-47c0818f20a5","019dac5b-243f-7307-af64-a10f53f1ef70","","366","
                <div class=""stimulus-container"">
                    <img src=""images/semantic_sequence/visiting_cities_semantic/visiting_cities_semantic_4.png"" class=""exp-image"">
                    <div class=""question-area"">
                        <p style=""font-size: 20px; font-weight: bold; margin: 0;"">Is there a person in this image?</p>
                    </div>
                </div>","1","main_experiment_trial","4","visiting_cities_semantic","semantic_sequence","chronological","","","","","","",""
"","","","","","html-keyboard-response","88","271810","0.0-88.0","C2CBD106EE174AAABF476FEF7243005A","019dac6f-1bf7-7fa8-b259-47c0818f20a5","019dac5b-243f-7307-af64-a10f53f1ef70","","null","
                <div class=""stimulus-container"">
                    <img src=""images/semantic_sequence/visiting_cities_semantic/visiting_cities_semantic_5.png"" class=""exp-image"">
                    <div class=""question-area""></div> 
                </div>","null","","","","","","","","","","","",""
"","","","","","html-button-response","89","272148","0.0-89.0","C2CBD106EE174AAABF476FEF7243005A","019dac6f-1bf7-7fa8-b259-47c0818f20a5","019dac5b-243f-7307-af64-a10f53f1ef70","","338","
                <div class=""stimulus-container"">
                    <img src=""images/semantic_sequence/visiting_cities_semantic/visiting_cities_semantic_5.png"" class=""exp-image"">
                    <div class=""question-area"">
                        <p style=""font-size: 20px; font-weight: bold; margin: 0;"">Is there a person in this image?</p>
                    </div>
                </div>","1","main_experiment_trial","5","visiting_cities_semantic","semantic_sequence","chronological","","","","","","",""
"","","","","","html-keyboard-response","90","277163","0.0-90.0","C2CBD106EE174AAABF476FEF7243005A","019dac6f-1bf7-7fa8-b259-47c0818f20a5","019dac5b-243f-7307-af64-a10f53f1ef70","","null","
                <div class=""stimulus-container"">
                    <img src=""images/semantic_sequence/visiting_cities_semantic/visiting_cities_semantic_6.png"" class=""exp-image"">
                    <div class=""question-area""></div> 
                </div>","null","","","","","","","","","","","",""
"","","","","","html-button-response","91","277493","0.0-91.0","C2CBD106EE174AAABF476FEF7243005A","019dac6f-1bf7-7fa8-b259-47c0818f20a5","019dac5b-243f-7307-af64-a10f53f1ef70","","329","
                <div class=""stimulus-container"">
                    <img src=""images/semantic_sequence/visiting_cities_semantic/visiting_cities_semantic_6.png"" class=""exp-image"">
                    <div class=""question-area"">
                        <p style=""font-size: 20px; font-weight: bold; margin: 0;"">Is there a person in this image?</p>
                    </div>
                </div>","1","main_experiment_trial","6","visiting_cities_semantic","semantic_sequence","chronological","","","","","","",""
"","","","","","html-keyboard-response","92","282499","0.0-92.0","C2CBD106EE174AAABF476FEF7243005A","019dac6f-1bf7-7fa8-b259-47c0818f20a5","019dac5b-243f-7307-af64-a10f53f1ef70","","null","
                <div class=""stimulus-container"">
                    <img src=""images/semantic_sequence/visiting_cities_semantic/visiting_cities_semantic_7.png"" class=""exp-image"">
                    <div class=""question-area""></div> 
                </div>","null","","","","","","","","","","","",""
"","","","","","html-button-response","93","283148","0.0-93.0","C2CBD106EE174AAABF476FEF7243005A","019dac6f-1bf7-7fa8-b259-47c0818f20a5","019dac5b-243f-7307-af64-a10f53f1ef70","","649","
                <div class=""stimulus-container"">
                    <img src=""images/semantic_sequence/visiting_cities_semantic/visiting_cities_semantic_7.png"" class=""exp-image"">
                    <div class=""question-area"">
                        <p style=""font-size: 20px; font-weight: bold; margin: 0;"">Is there a person in this image?</p>
                    </div>
                </div>","0","main_experiment_trial","7","visiting_cities_semantic","semantic_sequence","chronological","","","","","","",""
"","","","","","html-keyboard-response","94","288153","0.0-94.0","C2CBD106EE174AAABF476FEF7243005A","019dac6f-1bf7-7fa8-b259-47c0818f20a5","019dac5b-243f-7307-af64-a10f53f1ef70","","null","
                <div class=""stimulus-container"">
                    <img src=""images/semantic_sequence/visiting_cities_semantic/visiting_cities_semantic_8.png"" class=""exp-image"">
                    <div class=""question-area""></div> 
                </div>","null","","","","","","","","","","","",""
"","","","","","html-button-response","95","288509","0.0-95.0","C2CBD106EE174AAABF476FEF7243005A","019dac6f-1bf7-7fa8-b259-47c0818f20a5","019dac5b-243f-7307-af64-a10f53f1ef70","","355","
                <div class=""stimulus-container"">
                    <img src=""images/semantic_sequence/visiting_cities_semantic/visiting_cities_semantic_8.png"" class=""exp-image"">
                    <div class=""question-area"">
                        <p style=""font-size: 20px; font-weight: bold; margin: 0;"">Is there a person in this image?</p>
                    </div>
                </div>","0","main_experiment_trial","8","visiting_cities_semantic","semantic_sequence","chronological","","","","","","",""
"","","","","","html-keyboard-response","96","293518","0.0-96.0","C2CBD106EE174AAABF476FEF7243005A","019dac6f-1bf7-7fa8-b259-47c0818f20a5","019dac5b-243f-7307-af64-a10f53f1ef70","","null","
                <div class=""stimulus-container"">
                    <img src=""images/semantic_sequence/visiting_cities_semantic/visiting_cities_semantic_9.png"" class=""exp-image"">
                    <div class=""question-area""></div> 
                </div>","null","","","","","","","","","","","",""
"","","","","","html-button-response","97","294340","0.0-97.0","C2CBD106EE174AAABF476FEF7243005A","019dac6f-1bf7-7fa8-b259-47c0818f20a5","019dac5b-243f-7307-af64-a10f53f1ef70","","822","
                <div class=""stimulus-container"">
                    <img src=""images/semantic_sequence/visiting_cities_semantic/visiting_cities_semantic_9.png"" class=""exp-image"">
                    <div class=""question-area"">
                        <p style=""font-size: 20px; font-weight: bold; margin: 0;"">Is there a person in this image?</p>
                    </div>
                </div>","0","main_experiment_trial","9","visiting_cities_semantic","semantic_sequence","chronological","","","","","","",""
"","","","","","html-keyboard-response","98","299341","0.0-98.0","C2CBD106EE174AAABF476FEF7243005A","019dac6f-1bf7-7fa8-b259-47c0818f20a5","019dac5b-243f-7307-af64-a10f53f1ef70","","null","
                <div class=""stimulus-container"">
                    <img src=""images/semantic_sequence/visiting_cities_semantic/visiting_cities_semantic_ten.png"" class=""exp-image"">
                    <div class=""question-area""></div> 
                </div>","null","","","","","","","","","","","",""
"","","","","","html-button-response","99","300071","0.0-99.0","C2CBD106EE174AAABF476FEF7243005A","019dac6f-1bf7-7fa8-b259-47c0818f20a5","019dac5b-243f-7307-af64-a10f53f1ef70","","729","
                <div class=""stimulus-container"">
                    <img src=""images/semantic_sequence/visiting_cities_semantic/visiting_cities_semantic_ten.png"" class=""exp-image"">
                    <div class=""question-area"">
                        <p style=""font-size: 20px; font-weight: bold; margin: 0;"">Is there a person in this image?</p>
                    </div>
                </div>","1","main_experiment_trial","ten","visiting_cities_semantic","semantic_sequence","chronological","","","","","","",""
"","","","","","html-keyboard-response","100","305072","0.0-100.0","C2CBD106EE174AAABF476FEF7243005A","019dac6f-1bf7-7fa8-b259-47c0818f20a5","019dac5b-243f-7307-af64-a10f53f1ef70","","null","<div style=""background-color: white; width: 100vw; height: 100vh;""></div>","null","","","","","","","","","","","",""
"","","","","","html-keyboard-response","101","310089","0.0-101.0","C2CBD106EE174AAABF476FEF7243005A","019dac6f-1bf7-7fa8-b259-47c0818f20a5","019dac5b-243f-7307-af64-a10f53f1ef70","","null","
                <div class=""stimulus-container"">
                    <img src=""images/causal_sequence/the_performance_causal/the_performance_causal_1.png"" class=""exp-image"">
                    <div class=""question-area""></div> 
                </div>","null","","","","","","","","","","","",""
"","","","","","html-button-response","102","310907","0.0-102.0","C2CBD106EE174AAABF476FEF7243005A","019dac6f-1bf7-7fa8-b259-47c0818f20a5","019dac5b-243f-7307-af64-a10f53f1ef70","","818","
                <div class=""stimulus-container"">
                    <img src=""images/causal_sequence/the_performance_causal/the_performance_causal_1.png"" class=""exp-image"">
                    <div class=""question-area"">
                        <p style=""font-size: 20px; font-weight: bold; margin: 0;"">Is there a person in this image?</p>
                    </div>
                </div>","0","main_experiment_trial","1","the_performance_causal","causal_sequence","chronological","","","","","","",""
"","","","","","html-keyboard-response","103","315912","0.0-103.0","C2CBD106EE174AAABF476FEF7243005A","019dac6f-1bf7-7fa8-b259-47c0818f20a5","019dac5b-243f-7307-af64-a10f53f1ef70","","null","
                <div class=""stimulus-container"">
                    <img src=""images/causal_sequence/the_performance_causal/the_performance_causal_2.png"" class=""exp-image"">
                    <div class=""question-area""></div> 
                </div>","null","","","","","","","","","","","",""
"","","","","","html-button-response","104","316612","0.0-104.0","C2CBD106EE174AAABF476FEF7243005A","019dac6f-1bf7-7fa8-b259-47c0818f20a5","019dac5b-243f-7307-af64-a10f53f1ef70","","700","
                <div class=""stimulus-container"">
                    <img src=""images/causal_sequence/the_performance_causal/the_performance_causal_2.png"" class=""exp-image"">
                    <div class=""question-area"">
                        <p style=""font-size: 20px; font-weight: bold; margin: 0;"">Is there a person in this image?</p>
                    </div>
                </div>","0","main_experiment_trial","2","the_performance_causal","causal_sequence","chronological","","","","","","",""
"","","","","","html-keyboard-response","105","321628","0.0-105.0","C2CBD106EE174AAABF476FEF7243005A","019dac6f-1bf7-7fa8-b259-47c0818f20a5","019dac5b-243f-7307-af64-a10f53f1ef70","","null","
                <div class=""stimulus-container"">
                    <img src=""images/causal_sequence/the_performance_causal/the_performance_causal_3.png"" class=""exp-image"">
                    <div class=""question-area""></div> 
                </div>","null","","","","","","","","","","","",""
"","","","","","html-button-response","106","322438","0.0-106.0","C2CBD106EE174AAABF476FEF7243005A","019dac6f-1bf7-7fa8-b259-47c0818f20a5","019dac5b-243f-7307-af64-a10f53f1ef70","","810","
                <div class=""stimulus-container"">
                    <img src=""images/causal_sequence/the_performance_causal/the_performance_causal_3.png"" class=""exp-image"">
                    <div class=""question-area"">
                        <p style=""font-size: 20px; font-weight: bold; margin: 0;"">Is there a person in this image?</p>
                    </div>
                </div>","0","main_experiment_trial","3","the_performance_causal","causal_sequence","chronological","","","","","","",""
"","","","","","html-keyboard-response","107","327443","0.0-107.0","C2CBD106EE174AAABF476FEF7243005A","019dac6f-1bf7-7fa8-b259-47c0818f20a5","019dac5b-243f-7307-af64-a10f53f1ef70","","null","
                <div class=""stimulus-container"">
                    <img src=""images/causal_sequence/the_performance_causal/the_performance_causal_4.png"" class=""exp-image"">
                    <div class=""question-area""></div> 
                </div>","null","","","","","","","","","","","",""
"","","","","","html-button-response","108","327906","0.0-108.0","C2CBD106EE174AAABF476FEF7243005A","019dac6f-1bf7-7fa8-b259-47c0818f20a5","019dac5b-243f-7307-af64-a10f53f1ef70","","463","
                <div class=""stimulus-container"">
                    <img src=""images/causal_sequence/the_performance_causal/the_performance_causal_4.png"" class=""exp-image"">
                    <div class=""question-area"">
                        <p style=""font-size: 20px; font-weight: bold; margin: 0;"">Is there a person in this image?</p>
                    </div>
                </div>","0","main_experiment_trial","4","the_performance_causal","causal_sequence","chronological","","","","","","",""
"","","","","","html-keyboard-response","109","332915","0.0-109.0","C2CBD106EE174AAABF476FEF7243005A","019dac6f-1bf7-7fa8-b259-47c0818f20a5","019dac5b-243f-7307-af64-a10f53f1ef70","","null","
                <div class=""stimulus-container"">
                    <img src=""images/causal_sequence/the_performance_causal/the_performance_causal_5.png"" class=""exp-image"">
                    <div class=""question-area""></div> 
                </div>","null","","","","","","","","","","","",""
"","","","","","html-button-response","110","333243","0.0-110.0","C2CBD106EE174AAABF476FEF7243005A","019dac6f-1bf7-7fa8-b259-47c0818f20a5","019dac5b-243f-7307-af64-a10f53f1ef70","","328","
                <div class=""stimulus-container"">
                    <img src=""images/causal_sequence/the_performance_causal/the_performance_causal_5.png"" class=""exp-image"">
                    <div class=""question-area"">
                        <p style=""font-size: 20px; font-weight: bold; margin: 0;"">Is there a person in this image?</p>
                    </div>
                </div>","0","main_experiment_trial","5","the_performance_causal","causal_sequence","chronological","","","","","","",""
"","","","","","html-keyboard-response","111","338249","0.0-111.0","C2CBD106EE174AAABF476FEF7243005A","019dac6f-1bf7-7fa8-b259-47c0818f20a5","019dac5b-243f-7307-af64-a10f53f1ef70","","null","
                <div class=""stimulus-container"">
                    <img src=""images/causal_sequence/the_performance_causal/the_performance_causal_6.png"" class=""exp-image"">
                    <div class=""question-area""></div> 
                </div>","null","","","","","","","","","","","",""
"","","","","","html-button-response","112","338812","0.0-112.0","C2CBD106EE174AAABF476FEF7243005A","019dac6f-1bf7-7fa8-b259-47c0818f20a5","019dac5b-243f-7307-af64-a10f53f1ef70","","562","
                <div class=""stimulus-container"">
                    <img src=""images/causal_sequence/the_performance_causal/the_performance_causal_6.png"" class=""exp-image"">
                    <div class=""question-area"">
                        <p style=""font-size: 20px; font-weight: bold; margin: 0;"">Is there a person in this image?</p>
                    </div>
                </div>","0","main_experiment_trial","6","the_performance_causal","causal_sequence","chronological","","","","","","",""
"","","","","","html-keyboard-response","113","343828","0.0-113.0","C2CBD106EE174AAABF476FEF7243005A","019dac6f-1bf7-7fa8-b259-47c0818f20a5","019dac5b-243f-7307-af64-a10f53f1ef70","","null","
                <div class=""stimulus-container"">
                    <img src=""images/causal_sequence/the_performance_causal/the_performance_causal_7.png"" class=""exp-image"">
                    <div class=""question-area""></div> 
                </div>","null","","","","","","","","","","","",""
"","","","","","html-button-response","114","344143","0.0-114.0","C2CBD106EE174AAABF476FEF7243005A","019dac6f-1bf7-7fa8-b259-47c0818f20a5","019dac5b-243f-7307-af64-a10f53f1ef70","","314","
                <div class=""stimulus-container"">
                    <img src=""images/causal_sequence/the_performance_causal/the_performance_causal_7.png"" class=""exp-image"">
                    <div class=""question-area"">
                        <p style=""font-size: 20px; font-weight: bold; margin: 0;"">Is there a person in this image?</p>
                    </div>
                </div>","0","main_experiment_trial","7","the_performance_causal","causal_sequence","chronological","","","","","","",""
"","","","","","html-keyboard-response","115","349152","0.0-115.0","C2CBD106EE174AAABF476FEF7243005A","019dac6f-1bf7-7fa8-b259-47c0818f20a5","019dac5b-243f-7307-af64-a10f53f1ef70","","null","
                <div class=""stimulus-container"">
                    <img src=""images/causal_sequence/the_performance_causal/the_performance_causal_8.png"" class=""exp-image"">
                    <div class=""question-area""></div> 
                </div>","null","","","","","","","","","","","",""
"","","","","","html-button-response","116","349619","0.0-116.0","C2CBD106EE174AAABF476FEF7243005A","019dac6f-1bf7-7fa8-b259-47c0818f20a5","019dac5b-243f-7307-af64-a10f53f1ef70","","465","
                <div class=""stimulus-container"">
                    <img src=""images/causal_sequence/the_performance_causal/the_performance_causal_8.png"" class=""exp-image"">
                    <div class=""question-area"">
                        <p style=""font-size: 20px; font-weight: bold; margin: 0;"">Is there a person in this image?</p>
                    </div>
                </div>","0","main_experiment_trial","8","the_performance_causal","causal_sequence","chronological","","","","","","",""
"","","","","","html-keyboard-response","117","354631","0.0-117.0","C2CBD106EE174AAABF476FEF7243005A","019dac6f-1bf7-7fa8-b259-47c0818f20a5","019dac5b-243f-7307-af64-a10f53f1ef70","","null","
                <div class=""stimulus-container"">
                    <img src=""images/causal_sequence/the_performance_causal/the_performance_causal_9.png"" class=""exp-image"">
                    <div class=""question-area""></div> 
                </div>","null","","","","","","","","","","","",""
"","","","","","html-button-response","118","355283","0.0-118.0","C2CBD106EE174AAABF476FEF7243005A","019dac6f-1bf7-7fa8-b259-47c0818f20a5","019dac5b-243f-7307-af64-a10f53f1ef70","","651","
                <div class=""stimulus-container"">
                    <img src=""images/causal_sequence/the_performance_causal/the_performance_causal_9.png"" class=""exp-image"">
                    <div class=""question-area"">
                        <p style=""font-size: 20px; font-weight: bold; margin: 0;"">Is there a person in this image?</p>
                    </div>
                </div>","0","main_experiment_trial","9","the_performance_causal","causal_sequence","chronological","","","","","","",""
"","","","","","html-keyboard-response","119","360291","0.0-119.0","C2CBD106EE174AAABF476FEF7243005A","019dac6f-1bf7-7fa8-b259-47c0818f20a5","019dac5b-243f-7307-af64-a10f53f1ef70","","null","
                <div class=""stimulus-container"">
                    <img src=""images/causal_sequence/the_performance_causal/the_performance_causal_ten.png"" class=""exp-image"">
                    <div class=""question-area""></div> 
                </div>","null","","","","","","","","","","","",""
"","","","","","html-button-response","120","360993","0.0-120.0","C2CBD106EE174AAABF476FEF7243005A","019dac6f-1bf7-7fa8-b259-47c0818f20a5","019dac5b-243f-7307-af64-a10f53f1ef70","","701","
                <div class=""stimulus-container"">
                    <img src=""images/causal_sequence/the_performance_causal/the_performance_causal_ten.png"" class=""exp-image"">
                    <div class=""question-area"">
                        <p style=""font-size: 20px; font-weight: bold; margin: 0;"">Is there a person in this image?</p>
                    </div>
                </div>","0","main_experiment_trial","ten","the_performance_causal","causal_sequence","chronological","","","","","","",""
"","","","","","html-keyboard-response","121","365995","0.0-121.0","C2CBD106EE174AAABF476FEF7243005A","019dac6f-1bf7-7fa8-b259-47c0818f20a5","019dac5b-243f-7307-af64-a10f53f1ef70","","null","<div style=""background-color: white; width: 100vw; height: 100vh;""></div>","null","","","","","","","","","","","",""
"","","","","","html-keyboard-response","122","371005","0.0-122.0","C2CBD106EE174AAABF476FEF7243005A","019dac6f-1bf7-7fa8-b259-47c0818f20a5","019dac5b-243f-7307-af64-a10f53f1ef70","","null","
                <div class=""stimulus-container"">
                    <img src=""images/causal_sequence/coin_causal/coin_causal_1.png"" class=""exp-image"">
                    <div class=""question-area""></div> 
                </div>","null","","","","","","","","","","","",""
"","","","","","html-button-response","123","371618","0.0-123.0","C2CBD106EE174AAABF476FEF7243005A","019dac6f-1bf7-7fa8-b259-47c0818f20a5","019dac5b-243f-7307-af64-a10f53f1ef70","","612","
                <div class=""stimulus-container"">
                    <img src=""images/causal_sequence/coin_causal/coin_causal_1.png"" class=""exp-image"">
                    <div class=""question-area"">
                        <p style=""font-size: 20px; font-weight: bold; margin: 0;"">Is there a person in this image?</p>
                    </div>
                </div>","0","main_experiment_trial","1","coin_causal","causal_sequence","chronological","","","","","","",""
"","","","","","html-keyboard-response","124","376626","0.0-124.0","C2CBD106EE174AAABF476FEF7243005A","019dac6f-1bf7-7fa8-b259-47c0818f20a5","019dac5b-243f-7307-af64-a10f53f1ef70","","null","
                <div class=""stimulus-container"">
                    <img src=""images/causal_sequence/coin_causal/coin_causal_2.png"" class=""exp-image"">
                    <div class=""question-area""></div> 
                </div>","null","","","","","","","","","","","",""
"","","","","","html-button-response","125","377510","0.0-125.0","C2CBD106EE174AAABF476FEF7243005A","019dac6f-1bf7-7fa8-b259-47c0818f20a5","019dac5b-243f-7307-af64-a10f53f1ef70","","883","
                <div class=""stimulus-container"">
                    <img src=""images/causal_sequence/coin_causal/coin_causal_2.png"" class=""exp-image"">
                    <div class=""question-area"">
                        <p style=""font-size: 20px; font-weight: bold; margin: 0;"">Is there a person in this image?</p>
                    </div>
                </div>","0","main_experiment_trial","2","coin_causal","causal_sequence","chronological","","","","","","",""
"","","","","","html-keyboard-response","126","382526","0.0-126.0","C2CBD106EE174AAABF476FEF7243005A","019dac6f-1bf7-7fa8-b259-47c0818f20a5","019dac5b-243f-7307-af64-a10f53f1ef70","","null","
                <div class=""stimulus-container"">
                    <img src=""images/causal_sequence/coin_causal/coin_causal_3.png"" class=""exp-image"">
                    <div class=""question-area""></div> 
                </div>","null","","","","","","","","","","","",""
"","","","","","html-button-response","127","383210","0.0-127.0","C2CBD106EE174AAABF476FEF7243005A","019dac6f-1bf7-7fa8-b259-47c0818f20a5","019dac5b-243f-7307-af64-a10f53f1ef70","","683","
                <div class=""stimulus-container"">
                    <img src=""images/causal_sequence/coin_causal/coin_causal_3.png"" class=""exp-image"">
                    <div class=""question-area"">
                        <p style=""font-size: 20px; font-weight: bold; margin: 0;"">Is there a person in this image?</p>
                    </div>
                </div>","0","main_experiment_trial","3","coin_causal","causal_sequence","chronological","","","","","","",""
"","","","","","html-keyboard-response","128","388215","0.0-128.0","C2CBD106EE174AAABF476FEF7243005A","019dac6f-1bf7-7fa8-b259-47c0818f20a5","019dac5b-243f-7307-af64-a10f53f1ef70","","null","
                <div class=""stimulus-container"">
                    <img src=""images/causal_sequence/coin_causal/coin_causal_4.png"" class=""exp-image"">
                    <div class=""question-area""></div> 
                </div>","null","","","","","","","","","","","",""
"","","","","","html-button-response","129","388826","0.0-129.0","C2CBD106EE174AAABF476FEF7243005A","019dac6f-1bf7-7fa8-b259-47c0818f20a5","019dac5b-243f-7307-af64-a10f53f1ef70","","609","
                <div class=""stimulus-container"">
                    <img src=""images/causal_sequence/coin_causal/coin_causal_4.png"" class=""exp-image"">
                    <div class=""question-area"">
                        <p style=""font-size: 20px; font-weight: bold; margin: 0;"">Is there a person in this image?</p>
                    </div>
                </div>","0","main_experiment_trial","4","coin_causal","causal_sequence","chronological","","","","","","",""
"","","","","","html-keyboard-response","130","393829","0.0-130.0","C2CBD106EE174AAABF476FEF7243005A","019dac6f-1bf7-7fa8-b259-47c0818f20a5","019dac5b-243f-7307-af64-a10f53f1ef70","","null","
                <div class=""stimulus-container"">
                    <img src=""images/causal_sequence/coin_causal/coin_causal_5.png"" class=""exp-image"">
                    <div class=""question-area""></div> 
                </div>","null","","","","","","","","","","","",""
"","","","","","html-button-response","131","395550","0.0-131.0","C2CBD106EE174AAABF476FEF7243005A","019dac6f-1bf7-7fa8-b259-47c0818f20a5","019dac5b-243f-7307-af64-a10f53f1ef70","","1721","
                <div class=""stimulus-container"">
                    <img src=""images/causal_sequence/coin_causal/coin_causal_5.png"" class=""exp-image"">
                    <div class=""question-area"">
                        <p style=""font-size: 20px; font-weight: bold; margin: 0;"">Is there a person in this image?</p>
                    </div>
                </div>","0","main_experiment_trial","5","coin_causal","causal_sequence","chronological","","","","","","",""
"","","","","","html-keyboard-response","132","400552","0.0-132.0","C2CBD106EE174AAABF476FEF7243005A","019dac6f-1bf7-7fa8-b259-47c0818f20a5","019dac5b-243f-7307-af64-a10f53f1ef70","","null","
                <div class=""stimulus-container"">
                    <img src=""images/causal_sequence/coin_causal/coin_causal_6.png"" class=""exp-image"">
                    <div class=""question-area""></div> 
                </div>","null","","","","","","","","","","","",""
"","","","","","html-button-response","133","401211","0.0-133.0","C2CBD106EE174AAABF476FEF7243005A","019dac6f-1bf7-7fa8-b259-47c0818f20a5","019dac5b-243f-7307-af64-a10f53f1ef70","","658","
                <div class=""stimulus-container"">
                    <img src=""images/causal_sequence/coin_causal/coin_causal_6.png"" class=""exp-image"">
                    <div class=""question-area"">
                        <p style=""font-size: 20px; font-weight: bold; margin: 0;"">Is there a person in this image?</p>
                    </div>
                </div>","0","main_experiment_trial","6","coin_causal","causal_sequence","chronological","","","","","","",""
"","","","","","html-keyboard-response","134","406225","0.0-134.0","C2CBD106EE174AAABF476FEF7243005A","019dac6f-1bf7-7fa8-b259-47c0818f20a5","019dac5b-243f-7307-af64-a10f53f1ef70","","null","
                <div class=""stimulus-container"">
                    <img src=""images/causal_sequence/coin_causal/coin_causal_7.png"" class=""exp-image"">
                    <div class=""question-area""></div> 
                </div>","null","","","","","","","","","","","",""
"","","","","","html-button-response","135","406835","0.0-135.0","C2CBD106EE174AAABF476FEF7243005A","019dac6f-1bf7-7fa8-b259-47c0818f20a5","019dac5b-243f-7307-af64-a10f53f1ef70","","610","
                <div class=""stimulus-container"">
                    <img src=""images/causal_sequence/coin_causal/coin_causal_7.png"" class=""exp-image"">
                    <div class=""question-area"">
                        <p style=""font-size: 20px; font-weight: bold; margin: 0;"">Is there a person in this image?</p>
                    </div>
                </div>","1","main_experiment_trial","7","coin_causal","causal_sequence","chronological","","","","","","",""
"","","","","","html-keyboard-response","136","411845","0.0-136.0","C2CBD106EE174AAABF476FEF7243005A","019dac6f-1bf7-7fa8-b259-47c0818f20a5","019dac5b-243f-7307-af64-a10f53f1ef70","","null","
                <div class=""stimulus-container"">
                    <img src=""images/causal_sequence/coin_causal/coin_causal_8.png"" class=""exp-image"">
                    <div class=""question-area""></div> 
                </div>","null","","","","","","","","","","","",""
"","","","","","html-button-response","137","412329","0.0-137.0","C2CBD106EE174AAABF476FEF7243005A","019dac6f-1bf7-7fa8-b259-47c0818f20a5","019dac5b-243f-7307-af64-a10f53f1ef70","","483","
                <div class=""stimulus-container"">
                    <img src=""images/causal_sequence/coin_causal/coin_causal_8.png"" class=""exp-image"">
                    <div class=""question-area"">
                        <p style=""font-size: 20px; font-weight: bold; margin: 0;"">Is there a person in this image?</p>
                    </div>
                </div>","0","main_experiment_trial","8","coin_causal","causal_sequence","chronological","","","","","","",""
"","","","","","html-keyboard-response","138","417340","0.0-138.0","C2CBD106EE174AAABF476FEF7243005A","019dac6f-1bf7-7fa8-b259-47c0818f20a5","019dac5b-243f-7307-af64-a10f53f1ef70","","null","
                <div class=""stimulus-container"">
                    <img src=""images/causal_sequence/coin_causal/coin_causal_9.png"" class=""exp-image"">
                    <div class=""question-area""></div> 
                </div>","null","","","","","","","","","","","",""
"","","","","","html-button-response","139","417762","0.0-139.0","C2CBD106EE174AAABF476FEF7243005A","019dac6f-1bf7-7fa8-b259-47c0818f20a5","019dac5b-243f-7307-af64-a10f53f1ef70","","421","
                <div class=""stimulus-container"">
                    <img src=""images/causal_sequence/coin_causal/coin_causal_9.png"" class=""exp-image"">
                    <div class=""question-area"">
                        <p style=""font-size: 20px; font-weight: bold; margin: 0;"">Is there a person in this image?</p>
                    </div>
                </div>","0","main_experiment_trial","9","coin_causal","causal_sequence","chronological","","","","","","",""
"","","","","","html-keyboard-response","140","422764","0.0-140.0","C2CBD106EE174AAABF476FEF7243005A","019dac6f-1bf7-7fa8-b259-47c0818f20a5","019dac5b-243f-7307-af64-a10f53f1ef70","","null","
                <div class=""stimulus-container"">
                    <img src=""images/causal_sequence/coin_causal/coin_causal_ten.png"" class=""exp-image"">
                    <div class=""question-area""></div> 
                </div>","null","","","","","","","","","","","",""
"","","","","","html-button-response","141","423313","0.0-141.0","C2CBD106EE174AAABF476FEF7243005A","019dac6f-1bf7-7fa8-b259-47c0818f20a5","019dac5b-243f-7307-af64-a10f53f1ef70","","548","
                <div class=""stimulus-container"">
                    <img src=""images/causal_sequence/coin_causal/coin_causal_ten.png"" class=""exp-image"">
                    <div class=""question-area"">
                        <p style=""font-size: 20px; font-weight: bold; margin: 0;"">Is there a person in this image?</p>
                    </div>
                </div>","0","main_experiment_trial","ten","coin_causal","causal_sequence","chronological","","","","","","",""
"","","","","","html-keyboard-response","142","428322","0.0-142.0","C2CBD106EE174AAABF476FEF7243005A","019dac6f-1bf7-7fa8-b259-47c0818f20a5","019dac5b-243f-7307-af64-a10f53f1ef70","","null","<div style=""background-color: white; width: 100vw; height: 100vh;""></div>","null","","","","","","","","","","","",""
"","","","","","html-keyboard-response","143","433329","0.0-143.0","C2CBD106EE174AAABF476FEF7243005A","019dac6f-1bf7-7fa8-b259-47c0818f20a5","019dac5b-243f-7307-af64-a10f53f1ef70","","null","
                <div class=""stimulus-container"">
                    <img src=""images/causal_sequence/museum_causal/museum_causal_1.png"" class=""exp-image"">
                    <div class=""question-area""></div> 
                </div>","null","","","","","","","","","","","",""
"","","","","","html-button-response","144","435744","0.0-144.0","C2CBD106EE174AAABF476FEF7243005A","019dac6f-1bf7-7fa8-b259-47c0818f20a5","019dac5b-243f-7307-af64-a10f53f1ef70","","2414","
                <div class=""stimulus-container"">
                    <img src=""images/causal_sequence/museum_causal/museum_causal_1.png"" class=""exp-image"">
                    <div class=""question-area"">
                        <p style=""font-size: 20px; font-weight: bold; margin: 0;"">Is there a person in this image?</p>
                    </div>
                </div>","0","main_experiment_trial","1","museum_causal","causal_sequence","chronological","","","","","","",""
"","","","","","html-keyboard-response","145","440751","0.0-145.0","C2CBD106EE174AAABF476FEF7243005A","019dac6f-1bf7-7fa8-b259-47c0818f20a5","019dac5b-243f-7307-af64-a10f53f1ef70","","null","
                <div class=""stimulus-container"">
                    <img src=""images/causal_sequence/museum_causal/museum_causal_2.png"" class=""exp-image"">
                    <div class=""question-area""></div> 
                </div>","null","","","","","","","","","","","",""
"","","","","","html-button-response","146","441843","0.0-146.0","C2CBD106EE174AAABF476FEF7243005A","019dac6f-1bf7-7fa8-b259-47c0818f20a5","019dac5b-243f-7307-af64-a10f53f1ef70","","1092","
                <div class=""stimulus-container"">
                    <img src=""images/causal_sequence/museum_causal/museum_causal_2.png"" class=""exp-image"">
                    <div class=""question-area"">
                        <p style=""font-size: 20px; font-weight: bold; margin: 0;"">Is there a person in this image?</p>
                    </div>
                </div>","1","main_experiment_trial","2","museum_causal","causal_sequence","chronological","","","","","","",""
"","","","","","html-keyboard-response","147","446844","0.0-147.0","C2CBD106EE174AAABF476FEF7243005A","019dac6f-1bf7-7fa8-b259-47c0818f20a5","019dac5b-243f-7307-af64-a10f53f1ef70","","null","
                <div class=""stimulus-container"">
                    <img src=""images/causal_sequence/museum_causal/museum_causal_3.png"" class=""exp-image"">
                    <div class=""question-area""></div> 
                </div>","null","","","","","","","","","","","",""
"","","","","","html-button-response","148","447856","0.0-148.0","C2CBD106EE174AAABF476FEF7243005A","019dac6f-1bf7-7fa8-b259-47c0818f20a5","019dac5b-243f-7307-af64-a10f53f1ef70","","1012","
                <div class=""stimulus-container"">
                    <img src=""images/causal_sequence/museum_causal/museum_causal_3.png"" class=""exp-image"">
                    <div class=""question-area"">
                        <p style=""font-size: 20px; font-weight: bold; margin: 0;"">Is there a person in this image?</p>
                    </div>
                </div>","0","main_experiment_trial","3","museum_causal","causal_sequence","chronological","","","","","","",""
"","","","","","html-keyboard-response","149","452860","0.0-149.0","C2CBD106EE174AAABF476FEF7243005A","019dac6f-1bf7-7fa8-b259-47c0818f20a5","019dac5b-243f-7307-af64-a10f53f1ef70","","null","
                <div class=""stimulus-container"">
                    <img src=""images/causal_sequence/museum_causal/museum_causal_4.png"" class=""exp-image"">
                    <div class=""question-area""></div> 
                </div>","null","","","","","","","","","","","",""
"","","","","","html-button-response","150","453604","0.0-150.0","C2CBD106EE174AAABF476FEF7243005A","019dac6f-1bf7-7fa8-b259-47c0818f20a5","019dac5b-243f-7307-af64-a10f53f1ef70","","744","
                <div class=""stimulus-container"">
                    <img src=""images/causal_sequence/museum_causal/museum_causal_4.png"" class=""exp-image"">
                    <div class=""question-area"">
                        <p style=""font-size: 20px; font-weight: bold; margin: 0;"">Is there a person in this image?</p>
                    </div>
                </div>","1","main_experiment_trial","4","museum_causal","causal_sequence","chronological","","","","","","",""
"","","","","","html-keyboard-response","151","458606","0.0-151.0","C2CBD106EE174AAABF476FEF7243005A","019dac6f-1bf7-7fa8-b259-47c0818f20a5","019dac5b-243f-7307-af64-a10f53f1ef70","","null","
                <div class=""stimulus-container"">
                    <img src=""images/causal_sequence/museum_causal/museum_causal_5.png"" class=""exp-image"">
                    <div class=""question-area""></div> 
                </div>","null","","","","","","","","","","","",""
"","","","","","html-button-response","152","459013","0.0-152.0","C2CBD106EE174AAABF476FEF7243005A","019dac6f-1bf7-7fa8-b259-47c0818f20a5","019dac5b-243f-7307-af64-a10f53f1ef70","","406","
                <div class=""stimulus-container"">
                    <img src=""images/causal_sequence/museum_causal/museum_causal_5.png"" class=""exp-image"">
                    <div class=""question-area"">
                        <p style=""font-size: 20px; font-weight: bold; margin: 0;"">Is there a person in this image?</p>
                    </div>
                </div>","0","main_experiment_trial","5","museum_causal","causal_sequence","chronological","","","","","","",""
"","","","","","html-keyboard-response","153","464022","0.0-153.0","C2CBD106EE174AAABF476FEF7243005A","019dac6f-1bf7-7fa8-b259-47c0818f20a5","019dac5b-243f-7307-af64-a10f53f1ef70","","null","
                <div class=""stimulus-container"">
                    <img src=""images/causal_sequence/museum_causal/museum_causal_6.png"" class=""exp-image"">
                    <div class=""question-area""></div> 
                </div>","null","","","","","","","","","","","",""
"","","","","","html-button-response","154","466566","0.0-154.0","C2CBD106EE174AAABF476FEF7243005A","019dac6f-1bf7-7fa8-b259-47c0818f20a5","019dac5b-243f-7307-af64-a10f53f1ef70","","2544","
                <div class=""stimulus-container"">
                    <img src=""images/causal_sequence/museum_causal/museum_causal_6.png"" class=""exp-image"">
                    <div class=""question-area"">
                        <p style=""font-size: 20px; font-weight: bold; margin: 0;"">Is there a person in this image?</p>
                    </div>
                </div>","0","main_experiment_trial","6","museum_causal","causal_sequence","chronological","","","","","","",""
"","","","","","html-keyboard-response","155","471569","0.0-155.0","C2CBD106EE174AAABF476FEF7243005A","019dac6f-1bf7-7fa8-b259-47c0818f20a5","019dac5b-243f-7307-af64-a10f53f1ef70","","null","
                <div class=""stimulus-container"">
                    <img src=""images/causal_sequence/museum_causal/museum_causal_7.png"" class=""exp-image"">
                    <div class=""question-area""></div> 
                </div>","null","","","","","","","","","","","",""
"","","","","","html-button-response","156","472200","0.0-156.0","C2CBD106EE174AAABF476FEF7243005A","019dac6f-1bf7-7fa8-b259-47c0818f20a5","019dac5b-243f-7307-af64-a10f53f1ef70","","629","
                <div class=""stimulus-container"">
                    <img src=""images/causal_sequence/museum_causal/museum_causal_7.png"" class=""exp-image"">
                    <div class=""question-area"">
                        <p style=""font-size: 20px; font-weight: bold; margin: 0;"">Is there a person in this image?</p>
                    </div>
                </div>","1","main_experiment_trial","7","museum_causal","causal_sequence","chronological","","","","","","",""
"","","","","","html-keyboard-response","157","477213","0.0-157.0","C2CBD106EE174AAABF476FEF7243005A","019dac6f-1bf7-7fa8-b259-47c0818f20a5","019dac5b-243f-7307-af64-a10f53f1ef70","","null","
                <div class=""stimulus-container"">
                    <img src=""images/causal_sequence/museum_causal/museum_causal_8.png"" class=""exp-image"">
                    <div class=""question-area""></div> 
                </div>","null","","","","","","","","","","","",""
"","","","","","html-button-response","158","477905","0.0-158.0","C2CBD106EE174AAABF476FEF7243005A","019dac6f-1bf7-7fa8-b259-47c0818f20a5","019dac5b-243f-7307-af64-a10f53f1ef70","","691","
                <div class=""stimulus-container"">
                    <img src=""images/causal_sequence/museum_causal/museum_causal_8.png"" class=""exp-image"">
                    <div class=""question-area"">
                        <p style=""font-size: 20px; font-weight: bold; margin: 0;"">Is there a person in this image?</p>
                    </div>
                </div>","0","main_experiment_trial","8","museum_causal","causal_sequence","chronological","","","","","","",""
"","","","","","html-keyboard-response","159","482909","0.0-159.0","C2CBD106EE174AAABF476FEF7243005A","019dac6f-1bf7-7fa8-b259-47c0818f20a5","019dac5b-243f-7307-af64-a10f53f1ef70","","null","
                <div class=""stimulus-container"">
                    <img src=""images/causal_sequence/museum_causal/museum_causal_9.png"" class=""exp-image"">
                    <div class=""question-area""></div> 
                </div>","null","","","","","","","","","","","",""
"","","","","","html-button-response","160","483244","0.0-160.0","C2CBD106EE174AAABF476FEF7243005A","019dac6f-1bf7-7fa8-b259-47c0818f20a5","019dac5b-243f-7307-af64-a10f53f1ef70","","335","
                <div class=""stimulus-container"">
                    <img src=""images/causal_sequence/museum_causal/museum_causal_9.png"" class=""exp-image"">
                    <div class=""question-area"">
                        <p style=""font-size: 20px; font-weight: bold; margin: 0;"">Is there a person in this image?</p>
                    </div>
                </div>","1","main_experiment_trial","9","museum_causal","causal_sequence","chronological","","","","","","",""
"","","","","","html-keyboard-response","161","488254","0.0-161.0","C2CBD106EE174AAABF476FEF7243005A","019dac6f-1bf7-7fa8-b259-47c0818f20a5","019dac5b-243f-7307-af64-a10f53f1ef70","","null","
                <div class=""stimulus-container"">
                    <img src=""images/causal_sequence/museum_causal/museum_causal_ten.png"" class=""exp-image"">
                    <div class=""question-area""></div> 
                </div>","null","","","","","","","","","","","",""
"","","","","","html-button-response","162","488634","0.0-162.0","C2CBD106EE174AAABF476FEF7243005A","019dac6f-1bf7-7fa8-b259-47c0818f20a5","019dac5b-243f-7307-af64-a10f53f1ef70","","378","
                <div class=""stimulus-container"">
                    <img src=""images/causal_sequence/museum_causal/museum_causal_ten.png"" class=""exp-image"">
                    <div class=""question-area"">
                        <p style=""font-size: 20px; font-weight: bold; margin: 0;"">Is there a person in this image?</p>
                    </div>
                </div>","0","main_experiment_trial","ten","museum_causal","causal_sequence","chronological","","","","","","",""
"","","","","","html-keyboard-response","163","493635","0.0-163.0","C2CBD106EE174AAABF476FEF7243005A","019dac6f-1bf7-7fa8-b259-47c0818f20a5","019dac5b-243f-7307-af64-a10f53f1ef70","","null","<div style=""background-color: white; width: 100vw; height: 100vh;""></div>","null","","","","","","","","","","","",""
"","","","","","html-keyboard-response","164","498641","0.0-164.0","C2CBD106EE174AAABF476FEF7243005A","019dac6f-1bf7-7fa8-b259-47c0818f20a5","019dac5b-243f-7307-af64-a10f53f1ef70","","null","
                <div class=""stimulus-container"">
                    <img src=""images/semantic_sequence/housework_semantic/housework_semantic_1.png"" class=""exp-image"">
                    <div class=""question-area""></div> 
                </div>","null","","","","","","","","","","","",""
"","","","","","html-button-response","165","499326","0.0-165.0","C2CBD106EE174AAABF476FEF7243005A","019dac6f-1bf7-7fa8-b259-47c0818f20a5","019dac5b-243f-7307-af64-a10f53f1ef70","","685","
                <div class=""stimulus-container"">
                    <img src=""images/semantic_sequence/housework_semantic/housework_semantic_1.png"" class=""exp-image"">
                    <div class=""question-area"">
                        <p style=""font-size: 20px; font-weight: bold; margin: 0;"">Is there a person in this image?</p>
                    </div>
                </div>","1","main_experiment_trial","1","housework_semantic","semantic_sequence","chronological","","","","","","",""
"","","","","","html-keyboard-response","166","504342","0.0-166.0","C2CBD106EE174AAABF476FEF7243005A","019dac6f-1bf7-7fa8-b259-47c0818f20a5","019dac5b-243f-7307-af64-a10f53f1ef70","","null","
                <div class=""stimulus-container"">
                    <img src=""images/semantic_sequence/housework_semantic/housework_semantic_2.png"" class=""exp-image"">
                    <div class=""question-area""></div> 
                </div>","null","","","","","","","","","","","",""
"","","","","","html-button-response","167","504826","0.0-167.0","C2CBD106EE174AAABF476FEF7243005A","019dac6f-1bf7-7fa8-b259-47c0818f20a5","019dac5b-243f-7307-af64-a10f53f1ef70","","484","
                <div class=""stimulus-container"">
                    <img src=""images/semantic_sequence/housework_semantic/housework_semantic_2.png"" class=""exp-image"">
                    <div class=""question-area"">
                        <p style=""font-size: 20px; font-weight: bold; margin: 0;"">Is there a person in this image?</p>
                    </div>
                </div>","0","main_experiment_trial","2","housework_semantic","semantic_sequence","chronological","","","","","","",""
"","","","","","html-keyboard-response","168","509829","0.0-168.0","C2CBD106EE174AAABF476FEF7243005A","019dac6f-1bf7-7fa8-b259-47c0818f20a5","019dac5b-243f-7307-af64-a10f53f1ef70","","null","
                <div class=""stimulus-container"">
                    <img src=""images/semantic_sequence/housework_semantic/housework_semantic_3.png"" class=""exp-image"">
                    <div class=""question-area""></div> 
                </div>","null","","","","","","","","","","","",""
"","","","","","html-button-response","169","510222","0.0-169.0","C2CBD106EE174AAABF476FEF7243005A","019dac6f-1bf7-7fa8-b259-47c0818f20a5","019dac5b-243f-7307-af64-a10f53f1ef70","","393","
                <div class=""stimulus-container"">
                    <img src=""images/semantic_sequence/housework_semantic/housework_semantic_3.png"" class=""exp-image"">
                    <div class=""question-area"">
                        <p style=""font-size: 20px; font-weight: bold; margin: 0;"">Is there a person in this image?</p>
                    </div>
                </div>","0","main_experiment_trial","3","housework_semantic","semantic_sequence","chronological","","","","","","",""
"","","","","","html-keyboard-response","170","515235","0.0-170.0","C2CBD106EE174AAABF476FEF7243005A","019dac6f-1bf7-7fa8-b259-47c0818f20a5","019dac5b-243f-7307-af64-a10f53f1ef70","","null","
                <div class=""stimulus-container"">
                    <img src=""images/semantic_sequence/housework_semantic/housework_semantic_4.png"" class=""exp-image"">
                    <div class=""question-area""></div> 
                </div>","null","","","","","","","","","","","",""
"","","","","","html-button-response","171","515589","0.0-171.0","C2CBD106EE174AAABF476FEF7243005A","019dac6f-1bf7-7fa8-b259-47c0818f20a5","019dac5b-243f-7307-af64-a10f53f1ef70","","353","
                <div class=""stimulus-container"">
                    <img src=""images/semantic_sequence/housework_semantic/housework_semantic_4.png"" class=""exp-image"">
                    <div class=""question-area"">
                        <p style=""font-size: 20px; font-weight: bold; margin: 0;"">Is there a person in this image?</p>
                    </div>
                </div>","0","main_experiment_trial","4","housework_semantic","semantic_sequence","chronological","","","","","","",""
"","","","","","html-keyboard-response","172","520602","0.0-172.0","C2CBD106EE174AAABF476FEF7243005A","019dac6f-1bf7-7fa8-b259-47c0818f20a5","019dac5b-243f-7307-af64-a10f53f1ef70","","null","
                <div class=""stimulus-container"">
                    <img src=""images/semantic_sequence/housework_semantic/housework_semantic_5.png"" class=""exp-image"">
                    <div class=""question-area""></div> 
                </div>","null","","","","","","","","","","","",""
"","","","","","html-button-response","173","520980","0.0-173.0","C2CBD106EE174AAABF476FEF7243005A","019dac6f-1bf7-7fa8-b259-47c0818f20a5","019dac5b-243f-7307-af64-a10f53f1ef70","","378","
                <div class=""stimulus-container"">
                    <img src=""images/semantic_sequence/housework_semantic/housework_semantic_5.png"" class=""exp-image"">
                    <div class=""question-area"">
                        <p style=""font-size: 20px; font-weight: bold; margin: 0;"">Is there a person in this image?</p>
                    </div>
                </div>","0","main_experiment_trial","5","housework_semantic","semantic_sequence","chronological","","","","","","",""
"","","","","","html-keyboard-response","174","525993","0.0-174.0","C2CBD106EE174AAABF476FEF7243005A","019dac6f-1bf7-7fa8-b259-47c0818f20a5","019dac5b-243f-7307-af64-a10f53f1ef70","","null","
                <div class=""stimulus-container"">
                    <img src=""images/semantic_sequence/housework_semantic/housework_semantic_6.png"" class=""exp-image"">
                    <div class=""question-area""></div> 
                </div>","null","","","","","","","","","","","",""
"","","","","","html-button-response","175","526797","0.0-175.0","C2CBD106EE174AAABF476FEF7243005A","019dac6f-1bf7-7fa8-b259-47c0818f20a5","019dac5b-243f-7307-af64-a10f53f1ef70","","804","
                <div class=""stimulus-container"">
                    <img src=""images/semantic_sequence/housework_semantic/housework_semantic_6.png"" class=""exp-image"">
                    <div class=""question-area"">
                        <p style=""font-size: 20px; font-weight: bold; margin: 0;"">Is there a person in this image?</p>
                    </div>
                </div>","0","main_experiment_trial","6","housework_semantic","semantic_sequence","chronological","","","","","","",""
"","","","","","html-keyboard-response","176","531798","0.0-176.0","C2CBD106EE174AAABF476FEF7243005A","019dac6f-1bf7-7fa8-b259-47c0818f20a5","019dac5b-243f-7307-af64-a10f53f1ef70","","null","
                <div class=""stimulus-container"">
                    <img src=""images/semantic_sequence/housework_semantic/housework_semantic_7.png"" class=""exp-image"">
