"success","timeout","failed_images","failed_audio","failed_video","trial_type","trial_index","time_elapsed","internal_node_id","subject_id","study_id","session_id","view_history","rt","stimulus","response","task","image_index","folder","sequence_type","presentation_order","valuable_image_index","reward_type","correct_choice","distance_from_x","target_X","chosen_image_index","is_x_plus_dist"
"true","false","[]","[]","[]","preload","0","1948","0.0-0.0","8969C74D93EB4893B0BAD7C2C6D3860E","019d6b2b-7929-7471-a92a-b6d0265ba3bc","019d6b28-084c-76dd-a1cb-5ac041bdee9a","","","","","","","","","","","","","","","",""
"","","","","","instructions","1","5156","0.0-1.0","8969C74D93EB4893B0BAD7C2C6D3860E","019d6b2b-7929-7471-a92a-b6d0265ba3bc","019d6b28-084c-76dd-a1cb-5ac041bdee9a","[{""page_index"":0,""viewing_time"":3207}]","3207","","","","","","","","","","","","","",""
"","","","","","instructions","2","17478","0.0-2.0","8969C74D93EB4893B0BAD7C2C6D3860E","019d6b2b-7929-7471-a92a-b6d0265ba3bc","019d6b28-084c-76dd-a1cb-5ac041bdee9a","[{""page_index"":0,""viewing_time"":12322}]","12322","","","","","","","","","","","","","",""
"true","","","","","fullscreen","3","20400","0.0-3.0","8969C74D93EB4893B0BAD7C2C6D3860E","019d6b2b-7929-7471-a92a-b6d0265ba3bc","019d6b28-084c-76dd-a1cb-5ac041bdee9a","","1919","","","","","","","","","","","","","",""
"","","","","","instructions","4","39399","0.0-4.0","8969C74D93EB4893B0BAD7C2C6D3860E","019d6b2b-7929-7471-a92a-b6d0265ba3bc","019d6b28-084c-76dd-a1cb-5ac041bdee9a","[{""page_index"":0,""viewing_time"":18999}]","18999","","","","","","","","","","","","","",""
"","","","","","instructions","5","48570","0.0-5.0","8969C74D93EB4893B0BAD7C2C6D3860E","019d6b2b-7929-7471-a92a-b6d0265ba3bc","019d6b28-084c-76dd-a1cb-5ac041bdee9a","[{""page_index"":0,""viewing_time"":9170}]","9170","","","","","","","","","","","","","",""
"","","","","","html-keyboard-response","6","52580","0.0-6.0","8969C74D93EB4893B0BAD7C2C6D3860E","019d6b2b-7929-7471-a92a-b6d0265ba3bc","019d6b28-084c-76dd-a1cb-5ac041bdee9a","","null","
            <div class=""stimulus-container"">
                <img src=""images/instructions/movie_1.png"" class=""exp-image"">
                <div class=""question-area""></div> 
            </div>","null","","","","","","","","","","","",""
"","","","","","html-button-response","7","54595","0.0-7.0","8969C74D93EB4893B0BAD7C2C6D3860E","019d6b2b-7929-7471-a92a-b6d0265ba3bc","019d6b28-084c-76dd-a1cb-5ac041bdee9a","","2013","
            <div class=""stimulus-container"">
                <img src=""images/instructions/movie_1.png"" class=""exp-image"">
                <div class=""question-area"">
                    <p style=""font-size: 20px; font-weight: bold; margin: 0;"">Was there a person in this image?</p>
                </div>
            </div>","0","example_question","1","","","","","","","","","",""
"","","","","","html-keyboard-response","8","58597","0.0-8.0","8969C74D93EB4893B0BAD7C2C6D3860E","019d6b2b-7929-7471-a92a-b6d0265ba3bc","019d6b28-084c-76dd-a1cb-5ac041bdee9a","","null","
            <div class=""stimulus-container"">
                <img src=""images/instructions/movie_2.png"" class=""exp-image"">
                <div class=""question-area""></div> 
            </div>","null","","","","","","","","","","","",""
"","","","","","html-button-response","9","59797","0.0-9.0","8969C74D93EB4893B0BAD7C2C6D3860E","019d6b2b-7929-7471-a92a-b6d0265ba3bc","019d6b28-084c-76dd-a1cb-5ac041bdee9a","","1199","
            <div class=""stimulus-container"">
                <img src=""images/instructions/movie_2.png"" class=""exp-image"">
                <div class=""question-area"">
                    <p style=""font-size: 20px; font-weight: bold; margin: 0;"">Was there a person in this image?</p>
                </div>
            </div>","0","example_question","2","","","","","","","","","",""
"","","","","","html-keyboard-response","10","63803","0.0-10.0","8969C74D93EB4893B0BAD7C2C6D3860E","019d6b2b-7929-7471-a92a-b6d0265ba3bc","019d6b28-084c-76dd-a1cb-5ac041bdee9a","","null","
            <div class=""stimulus-container"">
                <img src=""images/instructions/movie_3.png"" class=""exp-image"">
                <div class=""question-area""></div> 
            </div>","null","","","","","","","","","","","",""
"","","","","","html-button-response","11","65140","0.0-11.0","8969C74D93EB4893B0BAD7C2C6D3860E","019d6b2b-7929-7471-a92a-b6d0265ba3bc","019d6b28-084c-76dd-a1cb-5ac041bdee9a","","1336","
            <div class=""stimulus-container"">
                <img src=""images/instructions/movie_3.png"" class=""exp-image"">
                <div class=""question-area"">
                    <p style=""font-size: 20px; font-weight: bold; margin: 0;"">Was there a person in this image?</p>
                </div>
            </div>","0","example_question","3","","","","","","","","","",""
"","","","","","html-keyboard-response","12","69153","0.0-12.0","8969C74D93EB4893B0BAD7C2C6D3860E","019d6b2b-7929-7471-a92a-b6d0265ba3bc","019d6b28-084c-76dd-a1cb-5ac041bdee9a","","null","
            <div class=""stimulus-container"">
                <img src=""images/instructions/movie_4.png"" class=""exp-image"">
                <div class=""question-area""></div> 
            </div>","null","","","","","","","","","","","",""
"","","","","","html-button-response","13","70425","0.0-13.0","8969C74D93EB4893B0BAD7C2C6D3860E","019d6b2b-7929-7471-a92a-b6d0265ba3bc","019d6b28-084c-76dd-a1cb-5ac041bdee9a","","1270","
            <div class=""stimulus-container"">
                <img src=""images/instructions/movie_4.png"" class=""exp-image"">
                <div class=""question-area"">
                    <p style=""font-size: 20px; font-weight: bold; margin: 0;"">Was there a person in this image?</p>
                </div>
            </div>","0","example_question","4","","","","","","","","","",""
"","","","","","instructions","14","72625","0.0-14.0","8969C74D93EB4893B0BAD7C2C6D3860E","019d6b2b-7929-7471-a92a-b6d0265ba3bc","019d6b28-084c-76dd-a1cb-5ac041bdee9a","[{""page_index"":0,""viewing_time"":2199}]","2200","","","","","","","","","","","","","",""
"","","","","","instructions","15","79747","0.0-15.0","8969C74D93EB4893B0BAD7C2C6D3860E","019d6b2b-7929-7471-a92a-b6d0265ba3bc","019d6b28-084c-76dd-a1cb-5ac041bdee9a","[{""page_index"":0,""viewing_time"":7121}]","7121","","","","","","","","","","","","","",""
"","","","","","html-keyboard-response","16","84751","0.0-16.0","8969C74D93EB4893B0BAD7C2C6D3860E","019d6b2b-7929-7471-a92a-b6d0265ba3bc","019d6b28-084c-76dd-a1cb-5ac041bdee9a","","null","<div style=""background-color: white; width: 100vw; height: 100vh;""></div>","null","","","","","","","","","","","",""
"","","","","","html-keyboard-response","17","89767","0.0-17.0","8969C74D93EB4893B0BAD7C2C6D3860E","019d6b2b-7929-7471-a92a-b6d0265ba3bc","019d6b28-084c-76dd-a1cb-5ac041bdee9a","","null","
                <div class=""stimulus-container"">
                    <img src=""semantic_sequence_notimeline/professions_semantic/professions_semantic_1.png"" class=""exp-image"">
                    <div class=""question-area""></div> 
                </div>","null","","","","","","","","","","","",""
"","","","","","html-button-response","18","91096","0.0-18.0","8969C74D93EB4893B0BAD7C2C6D3860E","019d6b2b-7929-7471-a92a-b6d0265ba3bc","019d6b28-084c-76dd-a1cb-5ac041bdee9a","","1327","
                <div class=""stimulus-container"">
                    <img src=""semantic_sequence_notimeline/professions_semantic/professions_semantic_1.png"" class=""exp-image"">
                    <div class=""question-area"">
                        <p style=""font-size: 20px; font-weight: bold; margin: 0;"">Is there a person in this image?</p>
                    </div>
                </div>","0","main_experiment_trial","1","professions_semantic","semantic_sequence_notimeline","chronological","","","","","","",""
"","","","","","html-keyboard-response","19","96100","0.0-19.0","8969C74D93EB4893B0BAD7C2C6D3860E","019d6b2b-7929-7471-a92a-b6d0265ba3bc","019d6b28-084c-76dd-a1cb-5ac041bdee9a","","null","
                <div class=""stimulus-container"">
                    <img src=""semantic_sequence_notimeline/professions_semantic/professions_semantic_2.png"" class=""exp-image"">
                    <div class=""question-area""></div> 
                </div>","null","","","","","","","","","","","",""
"","","","","","html-button-response","20","97140","0.0-20.0","8969C74D93EB4893B0BAD7C2C6D3860E","019d6b2b-7929-7471-a92a-b6d0265ba3bc","019d6b28-084c-76dd-a1cb-5ac041bdee9a","","1037","
                <div class=""stimulus-container"">
                    <img src=""semantic_sequence_notimeline/professions_semantic/professions_semantic_2.png"" class=""exp-image"">
                    <div class=""question-area"">
                        <p style=""font-size: 20px; font-weight: bold; margin: 0;"">Is there a person in this image?</p>
                    </div>
                </div>","0","main_experiment_trial","2","professions_semantic","semantic_sequence_notimeline","chronological","","","","","","",""
"","","","","","html-keyboard-response","21","102144","0.0-21.0","8969C74D93EB4893B0BAD7C2C6D3860E","019d6b2b-7929-7471-a92a-b6d0265ba3bc","019d6b28-084c-76dd-a1cb-5ac041bdee9a","","null","
                <div class=""stimulus-container"">
                    <img src=""semantic_sequence_notimeline/professions_semantic/professions_semantic_3.png"" class=""exp-image"">
                    <div class=""question-area""></div> 
                </div>","null","","","","","","","","","","","",""
"","","","","","html-button-response","22","103136","0.0-22.0","8969C74D93EB4893B0BAD7C2C6D3860E","019d6b2b-7929-7471-a92a-b6d0265ba3bc","019d6b28-084c-76dd-a1cb-5ac041bdee9a","","990","
                <div class=""stimulus-container"">
                    <img src=""semantic_sequence_notimeline/professions_semantic/professions_semantic_3.png"" class=""exp-image"">
                    <div class=""question-area"">
                        <p style=""font-size: 20px; font-weight: bold; margin: 0;"">Is there a person in this image?</p>
                    </div>
                </div>","0","main_experiment_trial","3","professions_semantic","semantic_sequence_notimeline","chronological","","","","","","",""
"","","","","","html-keyboard-response","23","108145","0.0-23.0","8969C74D93EB4893B0BAD7C2C6D3860E","019d6b2b-7929-7471-a92a-b6d0265ba3bc","019d6b28-084c-76dd-a1cb-5ac041bdee9a","","null","
                <div class=""stimulus-container"">
                    <img src=""semantic_sequence_notimeline/professions_semantic/professions_semantic_4.png"" class=""exp-image"">
                    <div class=""question-area""></div> 
                </div>","null","","","","","","","","","","","",""
"","","","","","html-button-response","24","108896","0.0-24.0","8969C74D93EB4893B0BAD7C2C6D3860E","019d6b2b-7929-7471-a92a-b6d0265ba3bc","019d6b28-084c-76dd-a1cb-5ac041bdee9a","","749","
                <div class=""stimulus-container"">
                    <img src=""semantic_sequence_notimeline/professions_semantic/professions_semantic_4.png"" class=""exp-image"">
                    <div class=""question-area"">
                        <p style=""font-size: 20px; font-weight: bold; margin: 0;"">Is there a person in this image?</p>
                    </div>
                </div>","0","main_experiment_trial","4","professions_semantic","semantic_sequence_notimeline","chronological","","","","","","",""
"","","","","","html-keyboard-response","25","113904","0.0-25.0","8969C74D93EB4893B0BAD7C2C6D3860E","019d6b2b-7929-7471-a92a-b6d0265ba3bc","019d6b28-084c-76dd-a1cb-5ac041bdee9a","","null","
                <div class=""stimulus-container"">
                    <img src=""semantic_sequence_notimeline/professions_semantic/professions_semantic_5.png"" class=""exp-image"">
                    <div class=""question-area""></div> 
                </div>","null","","","","","","","","","","","",""
"","","","","","html-button-response","26","114968","0.0-26.0","8969C74D93EB4893B0BAD7C2C6D3860E","019d6b2b-7929-7471-a92a-b6d0265ba3bc","019d6b28-084c-76dd-a1cb-5ac041bdee9a","","1063","
                <div class=""stimulus-container"">
                    <img src=""semantic_sequence_notimeline/professions_semantic/professions_semantic_5.png"" class=""exp-image"">
                    <div class=""question-area"">
                        <p style=""font-size: 20px; font-weight: bold; margin: 0;"">Is there a person in this image?</p>
                    </div>
                </div>","0","main_experiment_trial","5","professions_semantic","semantic_sequence_notimeline","chronological","","","","","","",""
"","","","","","html-keyboard-response","27","119974","0.0-27.0","8969C74D93EB4893B0BAD7C2C6D3860E","019d6b2b-7929-7471-a92a-b6d0265ba3bc","019d6b28-084c-76dd-a1cb-5ac041bdee9a","","null","
                <div class=""stimulus-container"">
                    <img src=""semantic_sequence_notimeline/professions_semantic/professions_semantic_6.png"" class=""exp-image"">
                    <div class=""question-area""></div> 
                </div>","null","","","","","","","","","","","",""
"","","","","","html-button-response","28","121056","0.0-28.0","8969C74D93EB4893B0BAD7C2C6D3860E","019d6b2b-7929-7471-a92a-b6d0265ba3bc","019d6b28-084c-76dd-a1cb-5ac041bdee9a","","1081","
                <div class=""stimulus-container"">
                    <img src=""semantic_sequence_notimeline/professions_semantic/professions_semantic_6.png"" class=""exp-image"">
                    <div class=""question-area"">
                        <p style=""font-size: 20px; font-weight: bold; margin: 0;"">Is there a person in this image?</p>
                    </div>
                </div>","0","main_experiment_trial","6","professions_semantic","semantic_sequence_notimeline","chronological","","","","","","",""
"","","","","","html-keyboard-response","29","126063","0.0-29.0","8969C74D93EB4893B0BAD7C2C6D3860E","019d6b2b-7929-7471-a92a-b6d0265ba3bc","019d6b28-084c-76dd-a1cb-5ac041bdee9a","","null","
                <div class=""stimulus-container"">
                    <img src=""semantic_sequence_notimeline/professions_semantic/professions_semantic_7.png"" class=""exp-image"">
                    <div class=""question-area""></div> 
                </div>","null","","","","","","","","","","","",""
"","","","","","html-button-response","30","127155","0.0-30.0","8969C74D93EB4893B0BAD7C2C6D3860E","019d6b2b-7929-7471-a92a-b6d0265ba3bc","019d6b28-084c-76dd-a1cb-5ac041bdee9a","","1091","
                <div class=""stimulus-container"">
                    <img src=""semantic_sequence_notimeline/professions_semantic/professions_semantic_7.png"" class=""exp-image"">
                    <div class=""question-area"">
                        <p style=""font-size: 20px; font-weight: bold; margin: 0;"">Is there a person in this image?</p>
                    </div>
                </div>","0","main_experiment_trial","7","professions_semantic","semantic_sequence_notimeline","chronological","","","","","","",""
"","","","","","html-keyboard-response","31","132169","0.0-31.0","8969C74D93EB4893B0BAD7C2C6D3860E","019d6b2b-7929-7471-a92a-b6d0265ba3bc","019d6b28-084c-76dd-a1cb-5ac041bdee9a","","null","
                <div class=""stimulus-container"">
                    <img src=""semantic_sequence_notimeline/professions_semantic/professions_semantic_8.png"" class=""exp-image"">
                    <div class=""question-area""></div> 
                </div>","null","","","","","","","","","","","",""
"","","","","","html-button-response","32","133387","0.0-32.0","8969C74D93EB4893B0BAD7C2C6D3860E","019d6b2b-7929-7471-a92a-b6d0265ba3bc","019d6b28-084c-76dd-a1cb-5ac041bdee9a","","1217","
                <div class=""stimulus-container"">
                    <img src=""semantic_sequence_notimeline/professions_semantic/professions_semantic_8.png"" class=""exp-image"">
                    <div class=""question-area"">
                        <p style=""font-size: 20px; font-weight: bold; margin: 0;"">Is there a person in this image?</p>
                    </div>
                </div>","0","main_experiment_trial","8","professions_semantic","semantic_sequence_notimeline","chronological","","","","","","",""
"","","","","","html-keyboard-response","33","138402","0.0-33.0","8969C74D93EB4893B0BAD7C2C6D3860E","019d6b2b-7929-7471-a92a-b6d0265ba3bc","019d6b28-084c-76dd-a1cb-5ac041bdee9a","","null","
                <div class=""stimulus-container"">
                    <img src=""semantic_sequence_notimeline/professions_semantic/professions_semantic_9.png"" class=""exp-image"">
                    <div class=""question-area""></div> 
                </div>","null","","","","","","","","","","","",""
"","","","","","html-button-response","34","139835","0.0-34.0","8969C74D93EB4893B0BAD7C2C6D3860E","019d6b2b-7929-7471-a92a-b6d0265ba3bc","019d6b28-084c-76dd-a1cb-5ac041bdee9a","","1431","
                <div class=""stimulus-container"">
                    <img src=""semantic_sequence_notimeline/professions_semantic/professions_semantic_9.png"" class=""exp-image"">
                    <div class=""question-area"">
                        <p style=""font-size: 20px; font-weight: bold; margin: 0;"">Is there a person in this image?</p>
                    </div>
                </div>","0","main_experiment_trial","9","professions_semantic","semantic_sequence_notimeline","chronological","","","","","","",""
"","","","","","html-keyboard-response","35","144837","0.0-35.0","8969C74D93EB4893B0BAD7C2C6D3860E","019d6b2b-7929-7471-a92a-b6d0265ba3bc","019d6b28-084c-76dd-a1cb-5ac041bdee9a","","null","
                <div class=""stimulus-container"">
                    <img src=""semantic_sequence_notimeline/professions_semantic/professions_semantic_ten.png"" class=""exp-image"">
                    <div class=""question-area""></div> 
                </div>","null","","","","","","","","","","","",""
"","","","","","html-button-response","36","146308","0.0-36.0","8969C74D93EB4893B0BAD7C2C6D3860E","019d6b2b-7929-7471-a92a-b6d0265ba3bc","019d6b28-084c-76dd-a1cb-5ac041bdee9a","","1470","
                <div class=""stimulus-container"">
                    <img src=""semantic_sequence_notimeline/professions_semantic/professions_semantic_ten.png"" class=""exp-image"">
                    <div class=""question-area"">
                        <p style=""font-size: 20px; font-weight: bold; margin: 0;"">Is there a person in this image?</p>
                    </div>
                </div>","0","main_experiment_trial","ten","professions_semantic","semantic_sequence_notimeline","chronological","","","","","","",""
"","","","","","html-keyboard-response","37","151324","0.0-37.0","8969C74D93EB4893B0BAD7C2C6D3860E","019d6b2b-7929-7471-a92a-b6d0265ba3bc","019d6b28-084c-76dd-a1cb-5ac041bdee9a","","null","<div style=""background-color: white; width: 100vw; height: 100vh;""></div>","null","","","","","","","","","","","",""
"","","","","","html-keyboard-response","38","156326","0.0-38.0","8969C74D93EB4893B0BAD7C2C6D3860E","019d6b2b-7929-7471-a92a-b6d0265ba3bc","019d6b28-084c-76dd-a1cb-5ac041bdee9a","","null","
                <div class=""stimulus-container"">
                    <img src=""images/causal_sequence/museum_causal/museum_causal_1.png"" class=""exp-image"">
                    <div class=""question-area""></div> 
                </div>","null","","","","","","","","","","","",""
"","","","","","html-button-response","39","157471","0.0-39.0","8969C74D93EB4893B0BAD7C2C6D3860E","019d6b2b-7929-7471-a92a-b6d0265ba3bc","019d6b28-084c-76dd-a1cb-5ac041bdee9a","","1144","
                <div class=""stimulus-container"">
                    <img src=""images/causal_sequence/museum_causal/museum_causal_1.png"" class=""exp-image"">
                    <div class=""question-area"">
                        <p style=""font-size: 20px; font-weight: bold; margin: 0;"">Is there a person in this image?</p>
                    </div>
                </div>","0","main_experiment_trial","1","museum_causal","causal_sequence","chronological","","","","","","",""
"","","","","","html-keyboard-response","40","162483","0.0-40.0","8969C74D93EB4893B0BAD7C2C6D3860E","019d6b2b-7929-7471-a92a-b6d0265ba3bc","019d6b28-084c-76dd-a1cb-5ac041bdee9a","","null","
                <div class=""stimulus-container"">
                    <img src=""images/causal_sequence/museum_causal/museum_causal_2.png"" class=""exp-image"">
                    <div class=""question-area""></div> 
                </div>","null","","","","","","","","","","","",""
"","","","","","html-button-response","41","163773","0.0-41.0","8969C74D93EB4893B0BAD7C2C6D3860E","019d6b2b-7929-7471-a92a-b6d0265ba3bc","019d6b28-084c-76dd-a1cb-5ac041bdee9a","","1289","
                <div class=""stimulus-container"">
                    <img src=""images/causal_sequence/museum_causal/museum_causal_2.png"" class=""exp-image"">
                    <div class=""question-area"">
                        <p style=""font-size: 20px; font-weight: bold; margin: 0;"">Is there a person in this image?</p>
                    </div>
                </div>","1","main_experiment_trial","2","museum_causal","causal_sequence","chronological","","","","","","",""
"","","","","","html-keyboard-response","42","168782","0.0-42.0","8969C74D93EB4893B0BAD7C2C6D3860E","019d6b2b-7929-7471-a92a-b6d0265ba3bc","019d6b28-084c-76dd-a1cb-5ac041bdee9a","","null","
                <div class=""stimulus-container"">
                    <img src=""images/causal_sequence/museum_causal/museum_causal_3.png"" class=""exp-image"">
                    <div class=""question-area""></div> 
                </div>","null","","","","","","","","","","","",""
"","","","","","html-button-response","43","169836","0.0-43.0","8969C74D93EB4893B0BAD7C2C6D3860E","019d6b2b-7929-7471-a92a-b6d0265ba3bc","019d6b28-084c-76dd-a1cb-5ac041bdee9a","","1053","
                <div class=""stimulus-container"">
                    <img src=""images/causal_sequence/museum_causal/museum_causal_3.png"" class=""exp-image"">
                    <div class=""question-area"">
                        <p style=""font-size: 20px; font-weight: bold; margin: 0;"">Is there a person in this image?</p>
                    </div>
                </div>","0","main_experiment_trial","3","museum_causal","causal_sequence","chronological","","","","","","",""
"","","","","","html-keyboard-response","44","174847","0.0-44.0","8969C74D93EB4893B0BAD7C2C6D3860E","019d6b2b-7929-7471-a92a-b6d0265ba3bc","019d6b28-084c-76dd-a1cb-5ac041bdee9a","","null","
                <div class=""stimulus-container"">
                    <img src=""images/causal_sequence/museum_causal/museum_causal_4.png"" class=""exp-image"">
                    <div class=""question-area""></div> 
                </div>","null","","","","","","","","","","","",""
"","","","","","html-button-response","45","176048","0.0-45.0","8969C74D93EB4893B0BAD7C2C6D3860E","019d6b2b-7929-7471-a92a-b6d0265ba3bc","019d6b28-084c-76dd-a1cb-5ac041bdee9a","","1199","
                <div class=""stimulus-container"">
                    <img src=""images/causal_sequence/museum_causal/museum_causal_4.png"" class=""exp-image"">
                    <div class=""question-area"">
                        <p style=""font-size: 20px; font-weight: bold; margin: 0;"">Is there a person in this image?</p>
                    </div>
                </div>","1","main_experiment_trial","4","museum_causal","causal_sequence","chronological","","","","","","",""
"","","","","","html-keyboard-response","46","181057","0.0-46.0","8969C74D93EB4893B0BAD7C2C6D3860E","019d6b2b-7929-7471-a92a-b6d0265ba3bc","019d6b28-084c-76dd-a1cb-5ac041bdee9a","","null","
                <div class=""stimulus-container"">
                    <img src=""images/causal_sequence/museum_causal/museum_causal_5.png"" class=""exp-image"">
                    <div class=""question-area""></div> 
                </div>","null","","","","","","","","","","","",""
"","","","","","html-button-response","47","182210","0.0-47.0","8969C74D93EB4893B0BAD7C2C6D3860E","019d6b2b-7929-7471-a92a-b6d0265ba3bc","019d6b28-084c-76dd-a1cb-5ac041bdee9a","","1153","
                <div class=""stimulus-container"">
                    <img src=""images/causal_sequence/museum_causal/museum_causal_5.png"" class=""exp-image"">
                    <div class=""question-area"">
                        <p style=""font-size: 20px; font-weight: bold; margin: 0;"">Is there a person in this image?</p>
                    </div>
                </div>","0","main_experiment_trial","5","museum_causal","causal_sequence","chronological","","","","","","",""
"","","","","","html-keyboard-response","48","187215","0.0-48.0","8969C74D93EB4893B0BAD7C2C6D3860E","019d6b2b-7929-7471-a92a-b6d0265ba3bc","019d6b28-084c-76dd-a1cb-5ac041bdee9a","","null","
                <div class=""stimulus-container"">
                    <img src=""images/causal_sequence/museum_causal/museum_causal_6.png"" class=""exp-image"">
                    <div class=""question-area""></div> 
                </div>","null","","","","","","","","","","","",""
"","","","","","html-button-response","49","188487","0.0-49.0","8969C74D93EB4893B0BAD7C2C6D3860E","019d6b2b-7929-7471-a92a-b6d0265ba3bc","019d6b28-084c-76dd-a1cb-5ac041bdee9a","","1271","
                <div class=""stimulus-container"">
                    <img src=""images/causal_sequence/museum_causal/museum_causal_6.png"" class=""exp-image"">
                    <div class=""question-area"">
                        <p style=""font-size: 20px; font-weight: bold; margin: 0;"">Is there a person in this image?</p>
                    </div>
                </div>","0","main_experiment_trial","6","museum_causal","causal_sequence","chronological","","","","","","",""
"","","","","","html-keyboard-response","50","193489","0.0-50.0","8969C74D93EB4893B0BAD7C2C6D3860E","019d6b2b-7929-7471-a92a-b6d0265ba3bc","019d6b28-084c-76dd-a1cb-5ac041bdee9a","","null","
                <div class=""stimulus-container"">
                    <img src=""images/causal_sequence/museum_causal/museum_causal_7.png"" class=""exp-image"">
                    <div class=""question-area""></div> 
                </div>","null","","","","","","","","","","","",""
"","","","","","html-button-response","51","194581","0.0-51.0","8969C74D93EB4893B0BAD7C2C6D3860E","019d6b2b-7929-7471-a92a-b6d0265ba3bc","019d6b28-084c-76dd-a1cb-5ac041bdee9a","","1091","
                <div class=""stimulus-container"">
                    <img src=""images/causal_sequence/museum_causal/museum_causal_7.png"" class=""exp-image"">
                    <div class=""question-area"">
                        <p style=""font-size: 20px; font-weight: bold; margin: 0;"">Is there a person in this image?</p>
                    </div>
                </div>","1","main_experiment_trial","7","museum_causal","causal_sequence","chronological","","","","","","",""
"","","","","","html-keyboard-response","52","199583","0.0-52.0","8969C74D93EB4893B0BAD7C2C6D3860E","019d6b2b-7929-7471-a92a-b6d0265ba3bc","019d6b28-084c-76dd-a1cb-5ac041bdee9a","","null","
                <div class=""stimulus-container"">
                    <img src=""images/causal_sequence/museum_causal/museum_causal_8.png"" class=""exp-image"">
                    <div class=""question-area""></div> 
                </div>","null","","","","","","","","","","","",""
"","","","","","html-button-response","53","200764","0.0-53.0","8969C74D93EB4893B0BAD7C2C6D3860E","019d6b2b-7929-7471-a92a-b6d0265ba3bc","019d6b28-084c-76dd-a1cb-5ac041bdee9a","","1179","
                <div class=""stimulus-container"">
                    <img src=""images/causal_sequence/museum_causal/museum_causal_8.png"" class=""exp-image"">
                    <div class=""question-area"">
                        <p style=""font-size: 20px; font-weight: bold; margin: 0;"">Is there a person in this image?</p>
                    </div>
                </div>","0","main_experiment_trial","8","museum_causal","causal_sequence","chronological","","","","","","",""
"","","","","","html-keyboard-response","54","205766","0.0-54.0","8969C74D93EB4893B0BAD7C2C6D3860E","019d6b2b-7929-7471-a92a-b6d0265ba3bc","019d6b28-084c-76dd-a1cb-5ac041bdee9a","","null","
                <div class=""stimulus-container"">
                    <img src=""images/causal_sequence/museum_causal/museum_causal_9.png"" class=""exp-image"">
                    <div class=""question-area""></div> 
                </div>","null","","","","","","","","","","","",""
"","","","","","html-button-response","55","207336","0.0-55.0","8969C74D93EB4893B0BAD7C2C6D3860E","019d6b2b-7929-7471-a92a-b6d0265ba3bc","019d6b28-084c-76dd-a1cb-5ac041bdee9a","","1568","
                <div class=""stimulus-container"">
                    <img src=""images/causal_sequence/museum_causal/museum_causal_9.png"" class=""exp-image"">
                    <div class=""question-area"">
                        <p style=""font-size: 20px; font-weight: bold; margin: 0;"">Is there a person in this image?</p>
                    </div>
                </div>","1","main_experiment_trial","9","museum_causal","causal_sequence","chronological","","","","","","",""
"","","","","","html-keyboard-response","56","212352","0.0-56.0","8969C74D93EB4893B0BAD7C2C6D3860E","019d6b2b-7929-7471-a92a-b6d0265ba3bc","019d6b28-084c-76dd-a1cb-5ac041bdee9a","","null","
                <div class=""stimulus-container"">
                    <img src=""images/causal_sequence/museum_causal/museum_causal_ten.png"" class=""exp-image"">
                    <div class=""question-area""></div> 
                </div>","null","","","","","","","","","","","",""
"","","","","","html-button-response","57","213611","0.0-57.0","8969C74D93EB4893B0BAD7C2C6D3860E","019d6b2b-7929-7471-a92a-b6d0265ba3bc","019d6b28-084c-76dd-a1cb-5ac041bdee9a","","1257","
                <div class=""stimulus-container"">
                    <img src=""images/causal_sequence/museum_causal/museum_causal_ten.png"" class=""exp-image"">
                    <div class=""question-area"">
                        <p style=""font-size: 20px; font-weight: bold; margin: 0;"">Is there a person in this image?</p>
                    </div>
                </div>","0","main_experiment_trial","ten","museum_causal","causal_sequence","chronological","","","","","","",""
"","","","","","html-keyboard-response","58","218628","0.0-58.0","8969C74D93EB4893B0BAD7C2C6D3860E","019d6b2b-7929-7471-a92a-b6d0265ba3bc","019d6b28-084c-76dd-a1cb-5ac041bdee9a","","null","<div style=""background-color: white; width: 100vw; height: 100vh;""></div>","null","","","","","","","","","","","",""
"","","","","","html-keyboard-response","59","223631","0.0-59.0","8969C74D93EB4893B0BAD7C2C6D3860E","019d6b2b-7929-7471-a92a-b6d0265ba3bc","019d6b28-084c-76dd-a1cb-5ac041bdee9a","","null","
                <div class=""stimulus-container"">
                    <img src=""semantic_sequence_notimeline/fruits_semantic/fruits_semantic_1.png"" class=""exp-image"">
                    <div class=""question-area""></div> 
                </div>","null","","","","","","","","","","","",""
"","","","","","html-button-response","60","224592","0.0-60.0","8969C74D93EB4893B0BAD7C2C6D3860E","019d6b2b-7929-7471-a92a-b6d0265ba3bc","019d6b28-084c-76dd-a1cb-5ac041bdee9a","","960","
                <div class=""stimulus-container"">
                    <img src=""semantic_sequence_notimeline/fruits_semantic/fruits_semantic_1.png"" class=""exp-image"">
                    <div class=""question-area"">
                        <p style=""font-size: 20px; font-weight: bold; margin: 0;"">Is there a person in this image?</p>
                    </div>
                </div>","1","main_experiment_trial","1","fruits_semantic","semantic_sequence_notimeline","chronological","","","","","","",""
"","","","","","html-keyboard-response","61","229600","0.0-61.0","8969C74D93EB4893B0BAD7C2C6D3860E","019d6b2b-7929-7471-a92a-b6d0265ba3bc","019d6b28-084c-76dd-a1cb-5ac041bdee9a","","null","
                <div class=""stimulus-container"">
                    <img src=""semantic_sequence_notimeline/fruits_semantic/fruits_semantic_2.png"" class=""exp-image"">
                    <div class=""question-area""></div> 
                </div>","null","","","","","","","","","","","",""
"","","","","","html-button-response","62","231217","0.0-62.0","8969C74D93EB4893B0BAD7C2C6D3860E","019d6b2b-7929-7471-a92a-b6d0265ba3bc","019d6b28-084c-76dd-a1cb-5ac041bdee9a","","1617","
                <div class=""stimulus-container"">
                    <img src=""semantic_sequence_notimeline/fruits_semantic/fruits_semantic_2.png"" class=""exp-image"">
                    <div class=""question-area"">
                        <p style=""font-size: 20px; font-weight: bold; margin: 0;"">Is there a person in this image?</p>
                    </div>
                </div>","1","main_experiment_trial","2","fruits_semantic","semantic_sequence_notimeline","chronological","","","","","","",""
"","","","","","html-keyboard-response","63","236226","0.0-63.0","8969C74D93EB4893B0BAD7C2C6D3860E","019d6b2b-7929-7471-a92a-b6d0265ba3bc","019d6b28-084c-76dd-a1cb-5ac041bdee9a","","null","
                <div class=""stimulus-container"">
                    <img src=""semantic_sequence_notimeline/fruits_semantic/fruits_semantic_3.png"" class=""exp-image"">
                    <div class=""question-area""></div> 
                </div>","null","","","","","","","","","","","",""
"","","","","","html-button-response","64","237235","0.0-64.0","8969C74D93EB4893B0BAD7C2C6D3860E","019d6b2b-7929-7471-a92a-b6d0265ba3bc","019d6b28-084c-76dd-a1cb-5ac041bdee9a","","1008","
                <div class=""stimulus-container"">
                    <img src=""semantic_sequence_notimeline/fruits_semantic/fruits_semantic_3.png"" class=""exp-image"">
                    <div class=""question-area"">
                        <p style=""font-size: 20px; font-weight: bold; margin: 0;"">Is there a person in this image?</p>
                    </div>
                </div>","1","main_experiment_trial","3","fruits_semantic","semantic_sequence_notimeline","chronological","","","","","","",""
"","","","","","html-keyboard-response","65","242237","0.0-65.0","8969C74D93EB4893B0BAD7C2C6D3860E","019d6b2b-7929-7471-a92a-b6d0265ba3bc","019d6b28-084c-76dd-a1cb-5ac041bdee9a","","null","
                <div class=""stimulus-container"">
                    <img src=""semantic_sequence_notimeline/fruits_semantic/fruits_semantic_4.png"" class=""exp-image"">
                    <div class=""question-area""></div> 
                </div>","null","","","","","","","","","","","",""
"","","","","","html-button-response","66","243187","0.0-66.0","8969C74D93EB4893B0BAD7C2C6D3860E","019d6b2b-7929-7471-a92a-b6d0265ba3bc","019d6b28-084c-76dd-a1cb-5ac041bdee9a","","948","
                <div class=""stimulus-container"">
                    <img src=""semantic_sequence_notimeline/fruits_semantic/fruits_semantic_4.png"" class=""exp-image"">
                    <div class=""question-area"">
                        <p style=""font-size: 20px; font-weight: bold; margin: 0;"">Is there a person in this image?</p>
                    </div>
                </div>","1","main_experiment_trial","4","fruits_semantic","semantic_sequence_notimeline","chronological","","","","","","",""
"","","","","","html-keyboard-response","67","248201","0.0-67.0","8969C74D93EB4893B0BAD7C2C6D3860E","019d6b2b-7929-7471-a92a-b6d0265ba3bc","019d6b28-084c-76dd-a1cb-5ac041bdee9a","","null","
                <div class=""stimulus-container"">
                    <img src=""semantic_sequence_notimeline/fruits_semantic/fruits_semantic_5.png"" class=""exp-image"">
                    <div class=""question-area""></div> 
                </div>","null","","","","","","","","","","","",""
"","","","","","html-button-response","68","249845","0.0-68.0","8969C74D93EB4893B0BAD7C2C6D3860E","019d6b2b-7929-7471-a92a-b6d0265ba3bc","019d6b28-084c-76dd-a1cb-5ac041bdee9a","","1642","
                <div class=""stimulus-container"">
                    <img src=""semantic_sequence_notimeline/fruits_semantic/fruits_semantic_5.png"" class=""exp-image"">
                    <div class=""question-area"">
                        <p style=""font-size: 20px; font-weight: bold; margin: 0;"">Is there a person in this image?</p>
                    </div>
                </div>","1","main_experiment_trial","5","fruits_semantic","semantic_sequence_notimeline","chronological","","","","","","",""
"","","","","","html-keyboard-response","69","254851","0.0-69.0","8969C74D93EB4893B0BAD7C2C6D3860E","019d6b2b-7929-7471-a92a-b6d0265ba3bc","019d6b28-084c-76dd-a1cb-5ac041bdee9a","","null","
                <div class=""stimulus-container"">
                    <img src=""semantic_sequence_notimeline/fruits_semantic/fruits_semantic_6.png"" class=""exp-image"">
                    <div class=""question-area""></div> 
                </div>","null","","","","","","","","","","","",""
"","","","","","html-button-response","70","255916","0.0-70.0","8969C74D93EB4893B0BAD7C2C6D3860E","019d6b2b-7929-7471-a92a-b6d0265ba3bc","019d6b28-084c-76dd-a1cb-5ac041bdee9a","","1064","
                <div class=""stimulus-container"">
                    <img src=""semantic_sequence_notimeline/fruits_semantic/fruits_semantic_6.png"" class=""exp-image"">
                    <div class=""question-area"">
                        <p style=""font-size: 20px; font-weight: bold; margin: 0;"">Is there a person in this image?</p>
                    </div>
                </div>","1","main_experiment_trial","6","fruits_semantic","semantic_sequence_notimeline","chronological","","","","","","",""
"","","","","","html-keyboard-response","71","260930","0.0-71.0","8969C74D93EB4893B0BAD7C2C6D3860E","019d6b2b-7929-7471-a92a-b6d0265ba3bc","019d6b28-084c-76dd-a1cb-5ac041bdee9a","","null","
                <div class=""stimulus-container"">
                    <img src=""semantic_sequence_notimeline/fruits_semantic/fruits_semantic_7.png"" class=""exp-image"">
                    <div class=""question-area""></div> 
                </div>","null","","","","","","","","","","","",""
"","","","","","html-button-response","72","261947","0.0-72.0","8969C74D93EB4893B0BAD7C2C6D3860E","019d6b2b-7929-7471-a92a-b6d0265ba3bc","019d6b28-084c-76dd-a1cb-5ac041bdee9a","","1015","
                <div class=""stimulus-container"">
                    <img src=""semantic_sequence_notimeline/fruits_semantic/fruits_semantic_7.png"" class=""exp-image"">
                    <div class=""question-area"">
                        <p style=""font-size: 20px; font-weight: bold; margin: 0;"">Is there a person in this image?</p>
                    </div>
                </div>","1","main_experiment_trial","7","fruits_semantic","semantic_sequence_notimeline","chronological","","","","","","",""
"","","","","","html-keyboard-response","73","266961","0.0-73.0","8969C74D93EB4893B0BAD7C2C6D3860E","019d6b2b-7929-7471-a92a-b6d0265ba3bc","019d6b28-084c-76dd-a1cb-5ac041bdee9a","","null","
                <div class=""stimulus-container"">
                    <img src=""semantic_sequence_notimeline/fruits_semantic/fruits_semantic_8.png"" class=""exp-image"">
                    <div class=""question-area""></div> 
                </div>","null","","","","","","","","","","","",""
"","","","","","html-button-response","74","268182","0.0-74.0","8969C74D93EB4893B0BAD7C2C6D3860E","019d6b2b-7929-7471-a92a-b6d0265ba3bc","019d6b28-084c-76dd-a1cb-5ac041bdee9a","","1220","
                <div class=""stimulus-container"">
                    <img src=""semantic_sequence_notimeline/fruits_semantic/fruits_semantic_8.png"" class=""exp-image"">
                    <div class=""question-area"">
                        <p style=""font-size: 20px; font-weight: bold; margin: 0;"">Is there a person in this image?</p>
                    </div>
                </div>","1","main_experiment_trial","8","fruits_semantic","semantic_sequence_notimeline","chronological","","","","","","",""
"","","","","","html-keyboard-response","75","273186","0.0-75.0","8969C74D93EB4893B0BAD7C2C6D3860E","019d6b2b-7929-7471-a92a-b6d0265ba3bc","019d6b28-084c-76dd-a1cb-5ac041bdee9a","","null","
                <div class=""stimulus-container"">
                    <img src=""semantic_sequence_notimeline/fruits_semantic/fruits_semantic_9.png"" class=""exp-image"">
                    <div class=""question-area""></div> 
                </div>","null","","","","","","","","","","","",""
"","","","","","html-button-response","76","274579","0.0-76.0","8969C74D93EB4893B0BAD7C2C6D3860E","019d6b2b-7929-7471-a92a-b6d0265ba3bc","019d6b28-084c-76dd-a1cb-5ac041bdee9a","","1392","
                <div class=""stimulus-container"">
                    <img src=""semantic_sequence_notimeline/fruits_semantic/fruits_semantic_9.png"" class=""exp-image"">
                    <div class=""question-area"">
                        <p style=""font-size: 20px; font-weight: bold; margin: 0;"">Is there a person in this image?</p>
                    </div>
                </div>","1","main_experiment_trial","9","fruits_semantic","semantic_sequence_notimeline","chronological","","","","","","",""
"","","","","","html-keyboard-response","77","279593","0.0-77.0","8969C74D93EB4893B0BAD7C2C6D3860E","019d6b2b-7929-7471-a92a-b6d0265ba3bc","019d6b28-084c-76dd-a1cb-5ac041bdee9a","","null","
                <div class=""stimulus-container"">
                    <img src=""semantic_sequence_notimeline/fruits_semantic/fruits_semantic_ten.png"" class=""exp-image"">
                    <div class=""question-area""></div> 
                </div>","null","","","","","","","","","","","",""
"","","","","","html-button-response","78","281047","0.0-78.0","8969C74D93EB4893B0BAD7C2C6D3860E","019d6b2b-7929-7471-a92a-b6d0265ba3bc","019d6b28-084c-76dd-a1cb-5ac041bdee9a","","1453","
                <div class=""stimulus-container"">
                    <img src=""semantic_sequence_notimeline/fruits_semantic/fruits_semantic_ten.png"" class=""exp-image"">
                    <div class=""question-area"">
                        <p style=""font-size: 20px; font-weight: bold; margin: 0;"">Is there a person in this image?</p>
                    </div>
                </div>","1","main_experiment_trial","ten","fruits_semantic","semantic_sequence_notimeline","chronological","","","","","","",""
"","","","","","html-keyboard-response","79","286056","0.0-79.0","8969C74D93EB4893B0BAD7C2C6D3860E","019d6b2b-7929-7471-a92a-b6d0265ba3bc","019d6b28-084c-76dd-a1cb-5ac041bdee9a","","null","<div style=""background-color: white; width: 100vw; height: 100vh;""></div>","null","","","","","","","","","","","",""
"","","","","","html-keyboard-response","80","291064","0.0-80.0","8969C74D93EB4893B0BAD7C2C6D3860E","019d6b2b-7929-7471-a92a-b6d0265ba3bc","019d6b28-084c-76dd-a1cb-5ac041bdee9a","","null","
                <div class=""stimulus-container"">
                    <img src=""semantic_sequence_notimeline/transportation_semantic/transportation_semantic_1.png"" class=""exp-image"">
                    <div class=""question-area""></div> 
                </div>","null","","","","","","","","","","","",""
"","","","","","html-button-response","81","292236","0.0-81.0","8969C74D93EB4893B0BAD7C2C6D3860E","019d6b2b-7929-7471-a92a-b6d0265ba3bc","019d6b28-084c-76dd-a1cb-5ac041bdee9a","","1171","
                <div class=""stimulus-container"">
                    <img src=""semantic_sequence_notimeline/transportation_semantic/transportation_semantic_1.png"" class=""exp-image"">
                    <div class=""question-area"">
                        <p style=""font-size: 20px; font-weight: bold; margin: 0;"">Is there a person in this image?</p>
                    </div>
                </div>","1","main_experiment_trial","1","transportation_semantic","semantic_sequence_notimeline","chronological","","","","","","",""
"","","","","","html-keyboard-response","82","297242","0.0-82.0","8969C74D93EB4893B0BAD7C2C6D3860E","019d6b2b-7929-7471-a92a-b6d0265ba3bc","019d6b28-084c-76dd-a1cb-5ac041bdee9a","","null","
                <div class=""stimulus-container"">
                    <img src=""semantic_sequence_notimeline/transportation_semantic/transportation_semantic_2.png"" class=""exp-image"">
                    <div class=""question-area""></div> 
                </div>","null","","","","","","","","","","","",""
"","","","","","html-button-response","83","298339","0.0-83.0","8969C74D93EB4893B0BAD7C2C6D3860E","019d6b2b-7929-7471-a92a-b6d0265ba3bc","019d6b28-084c-76dd-a1cb-5ac041bdee9a","","1095","
                <div class=""stimulus-container"">
                    <img src=""semantic_sequence_notimeline/transportation_semantic/transportation_semantic_2.png"" class=""exp-image"">
                    <div class=""question-area"">
                        <p style=""font-size: 20px; font-weight: bold; margin: 0;"">Is there a person in this image?</p>
                    </div>
                </div>","1","main_experiment_trial","2","transportation_semantic","semantic_sequence_notimeline","chronological","","","","","","",""
"","","","","","html-keyboard-response","84","303351","0.0-84.0","8969C74D93EB4893B0BAD7C2C6D3860E","019d6b2b-7929-7471-a92a-b6d0265ba3bc","019d6b28-084c-76dd-a1cb-5ac041bdee9a","","null","
                <div class=""stimulus-container"">
                    <img src=""semantic_sequence_notimeline/transportation_semantic/transportation_semantic_3.png"" class=""exp-image"">
                    <div class=""question-area""></div> 
                </div>","null","","","","","","","","","","","",""
"","","","","","html-button-response","85","304832","0.0-85.0","8969C74D93EB4893B0BAD7C2C6D3860E","019d6b2b-7929-7471-a92a-b6d0265ba3bc","019d6b28-084c-76dd-a1cb-5ac041bdee9a","","1480","
                <div class=""stimulus-container"">
                    <img src=""semantic_sequence_notimeline/transportation_semantic/transportation_semantic_3.png"" class=""exp-image"">
                    <div class=""question-area"">
                        <p style=""font-size: 20px; font-weight: bold; margin: 0;"">Is there a person in this image?</p>
                    </div>
                </div>","1","main_experiment_trial","3","transportation_semantic","semantic_sequence_notimeline","chronological","","","","","","",""
"","","","","","html-keyboard-response","86","309835","0.0-86.0","8969C74D93EB4893B0BAD7C2C6D3860E","019d6b2b-7929-7471-a92a-b6d0265ba3bc","019d6b28-084c-76dd-a1cb-5ac041bdee9a","","null","
                <div class=""stimulus-container"">
                    <img src=""semantic_sequence_notimeline/transportation_semantic/transportation_semantic_4.png"" class=""exp-image"">
                    <div class=""question-area""></div> 
                </div>","null","","","","","","","","","","","",""
"","","","","","html-button-response","87","310912","0.0-87.0","8969C74D93EB4893B0BAD7C2C6D3860E","019d6b2b-7929-7471-a92a-b6d0265ba3bc","019d6b28-084c-76dd-a1cb-5ac041bdee9a","","1076","
                <div class=""stimulus-container"">
                    <img src=""semantic_sequence_notimeline/transportation_semantic/transportation_semantic_4.png"" class=""exp-image"">
                    <div class=""question-area"">
                        <p style=""font-size: 20px; font-weight: bold; margin: 0;"">Is there a person in this image?</p>
                    </div>
                </div>","1","main_experiment_trial","4","transportation_semantic","semantic_sequence_notimeline","chronological","","","","","","",""
"","","","","","html-keyboard-response","88","315916","0.0-88.0","8969C74D93EB4893B0BAD7C2C6D3860E","019d6b2b-7929-7471-a92a-b6d0265ba3bc","019d6b28-084c-76dd-a1cb-5ac041bdee9a","","null","
                <div class=""stimulus-container"">
                    <img src=""semantic_sequence_notimeline/transportation_semantic/transportation_semantic_5.png"" class=""exp-image"">
                    <div class=""question-area""></div> 
                </div>","null","","","","","","","","","","","",""
"","","","","","html-button-response","89","317201","0.0-89.0","8969C74D93EB4893B0BAD7C2C6D3860E","019d6b2b-7929-7471-a92a-b6d0265ba3bc","019d6b28-084c-76dd-a1cb-5ac041bdee9a","","1284","
                <div class=""stimulus-container"">
                    <img src=""semantic_sequence_notimeline/transportation_semantic/transportation_semantic_5.png"" class=""exp-image"">
                    <div class=""question-area"">
                        <p style=""font-size: 20px; font-weight: bold; margin: 0;"">Is there a person in this image?</p>
                    </div>
                </div>","1","main_experiment_trial","5","transportation_semantic","semantic_sequence_notimeline","chronological","","","","","","",""
"","","","","","html-keyboard-response","90","322209","0.0-90.0","8969C74D93EB4893B0BAD7C2C6D3860E","019d6b2b-7929-7471-a92a-b6d0265ba3bc","019d6b28-084c-76dd-a1cb-5ac041bdee9a","","null","
                <div class=""stimulus-container"">
                    <img src=""semantic_sequence_notimeline/transportation_semantic/transportation_semantic_6.png"" class=""exp-image"">
                    <div class=""question-area""></div> 
                </div>","null","","","","","","","","","","","",""
"","","","","","html-button-response","91","325225","0.0-91.0","8969C74D93EB4893B0BAD7C2C6D3860E","019d6b2b-7929-7471-a92a-b6d0265ba3bc","019d6b28-084c-76dd-a1cb-5ac041bdee9a","","null","
                <div class=""stimulus-container"">
                    <img src=""semantic_sequence_notimeline/transportation_semantic/transportation_semantic_6.png"" class=""exp-image"">
                    <div class=""question-area"">
                        <p style=""font-size: 20px; font-weight: bold; margin: 0;"">Is there a person in this image?</p>
                    </div>
                </div>","null","main_experiment_trial","6","transportation_semantic","semantic_sequence_notimeline","chronological","","","","","","",""
"","","","","","html-keyboard-response","92","330241","0.0-92.0","8969C74D93EB4893B0BAD7C2C6D3860E","019d6b2b-7929-7471-a92a-b6d0265ba3bc","019d6b28-084c-76dd-a1cb-5ac041bdee9a","","null","
                <div class=""stimulus-container"">
                    <img src=""semantic_sequence_notimeline/transportation_semantic/transportation_semantic_7.png"" class=""exp-image"">
                    <div class=""question-area""></div> 
                </div>","null","","","","","","","","","","","",""
"","","","","","html-button-response","93","331337","0.0-93.0","8969C74D93EB4893B0BAD7C2C6D3860E","019d6b2b-7929-7471-a92a-b6d0265ba3bc","019d6b28-084c-76dd-a1cb-5ac041bdee9a","","1094","
                <div class=""stimulus-container"">
                    <img src=""semantic_sequence_notimeline/transportation_semantic/transportation_semantic_7.png"" class=""exp-image"">
                    <div class=""question-area"">
                        <p style=""font-size: 20px; font-weight: bold; margin: 0;"">Is there a person in this image?</p>
                    </div>
                </div>","1","main_experiment_trial","7","transportation_semantic","semantic_sequence_notimeline","chronological","","","","","","",""
"","","","","","html-keyboard-response","94","336349","0.0-94.0","8969C74D93EB4893B0BAD7C2C6D3860E","019d6b2b-7929-7471-a92a-b6d0265ba3bc","019d6b28-084c-76dd-a1cb-5ac041bdee9a","","null","
                <div class=""stimulus-container"">
                    <img src=""semantic_sequence_notimeline/transportation_semantic/transportation_semantic_8.png"" class=""exp-image"">
                    <div class=""question-area""></div> 
                </div>","null","","","","","","","","","","","",""
"","","","","","html-button-response","95","338264","0.0-95.0","8969C74D93EB4893B0BAD7C2C6D3860E","019d6b2b-7929-7471-a92a-b6d0265ba3bc","019d6b28-084c-76dd-a1cb-5ac041bdee9a","","1914","
                <div class=""stimulus-container"">
                    <img src=""semantic_sequence_notimeline/transportation_semantic/transportation_semantic_8.png"" class=""exp-image"">
                    <div class=""question-area"">
                        <p style=""font-size: 20px; font-weight: bold; margin: 0;"">Is there a person in this image?</p>
                    </div>
                </div>","1","main_experiment_trial","8","transportation_semantic","semantic_sequence_notimeline","chronological","","","","","","",""
"","","","","","html-keyboard-response","96","343269","0.0-96.0","8969C74D93EB4893B0BAD7C2C6D3860E","019d6b2b-7929-7471-a92a-b6d0265ba3bc","019d6b28-084c-76dd-a1cb-5ac041bdee9a","","null","
                <div class=""stimulus-container"">
                    <img src=""semantic_sequence_notimeline/transportation_semantic/transportation_semantic_9.png"" class=""exp-image"">
                    <div class=""question-area""></div> 
                </div>","null","","","","","","","","","","","",""
"","","","","","html-button-response","97","344326","0.0-97.0","8969C74D93EB4893B0BAD7C2C6D3860E","019d6b2b-7929-7471-a92a-b6d0265ba3bc","019d6b28-084c-76dd-a1cb-5ac041bdee9a","","1055","
                <div class=""stimulus-container"">
                    <img src=""semantic_sequence_notimeline/transportation_semantic/transportation_semantic_9.png"" class=""exp-image"">
                    <div class=""question-area"">
                        <p style=""font-size: 20px; font-weight: bold; margin: 0;"">Is there a person in this image?</p>
                    </div>
                </div>","1","main_experiment_trial","9","transportation_semantic","semantic_sequence_notimeline","chronological","","","","","","",""
"","","","","","html-keyboard-response","98","349331","0.0-98.0","8969C74D93EB4893B0BAD7C2C6D3860E","019d6b2b-7929-7471-a92a-b6d0265ba3bc","019d6b28-084c-76dd-a1cb-5ac041bdee9a","","null","
                <div class=""stimulus-container"">
                    <img src=""semantic_sequence_notimeline/transportation_semantic/transportation_semantic_ten.png"" class=""exp-image"">
                    <div class=""question-area""></div> 
                </div>","null","","","","","","","","","","","",""
"","","","","","html-button-response","99","350229","0.0-99.0","8969C74D93EB4893B0BAD7C2C6D3860E","019d6b2b-7929-7471-a92a-b6d0265ba3bc","019d6b28-084c-76dd-a1cb-5ac041bdee9a","","896","
                <div class=""stimulus-container"">
                    <img src=""semantic_sequence_notimeline/transportation_semantic/transportation_semantic_ten.png"" class=""exp-image"">
                    <div class=""question-area"">
                        <p style=""font-size: 20px; font-weight: bold; margin: 0;"">Is there a person in this image?</p>
                    </div>
                </div>","1","main_experiment_trial","ten","transportation_semantic","semantic_sequence_notimeline","chronological","","","","","","",""
"","","","","","html-keyboard-response","100","355246","0.0-100.0","8969C74D93EB4893B0BAD7C2C6D3860E","019d6b2b-7929-7471-a92a-b6d0265ba3bc","019d6b28-084c-76dd-a1cb-5ac041bdee9a","","null","<div style=""background-color: white; width: 100vw; height: 100vh;""></div>","null","","","","","","","","","","","",""
"","","","","","html-keyboard-response","101","360254","0.0-101.0","8969C74D93EB4893B0BAD7C2C6D3860E","019d6b2b-7929-7471-a92a-b6d0265ba3bc","019d6b28-084c-76dd-a1cb-5ac041bdee9a","","null","
                <div class=""stimulus-container"">
                    <img src=""semantic_sequence_notimeline/household_objects_semantic/household_objects_semantic_1.png"" class=""exp-image"">
                    <div class=""question-area""></div> 
                </div>","null","","","","","","","","","","","",""
"","","","","","html-button-response","102","363135","0.0-102.0","8969C74D93EB4893B0BAD7C2C6D3860E","019d6b2b-7929-7471-a92a-b6d0265ba3bc","019d6b28-084c-76dd-a1cb-5ac041bdee9a","","2879","
                <div class=""stimulus-container"">
                    <img src=""semantic_sequence_notimeline/household_objects_semantic/household_objects_semantic_1.png"" class=""exp-image"">
                    <div class=""question-area"">
                        <p style=""font-size: 20px; font-weight: bold; margin: 0;"">Is there a person in this image?</p>
                    </div>
                </div>","1","main_experiment_trial","1","household_objects_semantic","semantic_sequence_notimeline","chronological","","","","","","",""
"","","","","","html-keyboard-response","103","368144","0.0-103.0","8969C74D93EB4893B0BAD7C2C6D3860E","019d6b2b-7929-7471-a92a-b6d0265ba3bc","019d6b28-084c-76dd-a1cb-5ac041bdee9a","","null","
                <div class=""stimulus-container"">
                    <img src=""semantic_sequence_notimeline/household_objects_semantic/household_objects_semantic_2.png"" class=""exp-image"">
                    <div class=""question-area""></div> 
                </div>","null","","","","","","","","","","","",""
"","","","","","html-button-response","104","370187","0.0-104.0","8969C74D93EB4893B0BAD7C2C6D3860E","019d6b2b-7929-7471-a92a-b6d0265ba3bc","019d6b28-084c-76dd-a1cb-5ac041bdee9a","","2041","
                <div class=""stimulus-container"">
                    <img src=""semantic_sequence_notimeline/household_objects_semantic/household_objects_semantic_2.png"" class=""exp-image"">
                    <div class=""question-area"">
                        <p style=""font-size: 20px; font-weight: bold; margin: 0;"">Is there a person in this image?</p>
                    </div>
                </div>","1","main_experiment_trial","2","household_objects_semantic","semantic_sequence_notimeline","chronological","","","","","","",""
"","","","","","html-keyboard-response","105","375200","0.0-105.0","8969C74D93EB4893B0BAD7C2C6D3860E","019d6b2b-7929-7471-a92a-b6d0265ba3bc","019d6b28-084c-76dd-a1cb-5ac041bdee9a","","null","
                <div class=""stimulus-container"">
                    <img src=""semantic_sequence_notimeline/household_objects_semantic/household_objects_semantic_3.png"" class=""exp-image"">
                    <div class=""question-area""></div> 
                </div>","null","","","","","","","","","","","",""
"","","","","","html-button-response","106","378216","0.0-106.0","8969C74D93EB4893B0BAD7C2C6D3860E","019d6b2b-7929-7471-a92a-b6d0265ba3bc","019d6b28-084c-76dd-a1cb-5ac041bdee9a","","null","
                <div class=""stimulus-container"">
                    <img src=""semantic_sequence_notimeline/household_objects_semantic/household_objects_semantic_3.png"" class=""exp-image"">
                    <div class=""question-area"">
                        <p style=""font-size: 20px; font-weight: bold; margin: 0;"">Is there a person in this image?</p>
                    </div>
                </div>","null","main_experiment_trial","3","household_objects_semantic","semantic_sequence_notimeline","chronological","","","","","","",""
"","","","","","html-keyboard-response","107","383233","0.0-107.0","8969C74D93EB4893B0BAD7C2C6D3860E","019d6b2b-7929-7471-a92a-b6d0265ba3bc","019d6b28-084c-76dd-a1cb-5ac041bdee9a","","null","
                <div class=""stimulus-container"">
                    <img src=""semantic_sequence_notimeline/household_objects_semantic/household_objects_semantic_4.png"" class=""exp-image"">
                    <div class=""question-area""></div> 
                </div>","null","","","","","","","","","","","",""
"","","","","","html-button-response","108","383939","0.0-108.0","8969C74D93EB4893B0BAD7C2C6D3860E","019d6b2b-7929-7471-a92a-b6d0265ba3bc","019d6b28-084c-76dd-a1cb-5ac041bdee9a","","704","
                <div class=""stimulus-container"">
                    <img src=""semantic_sequence_notimeline/household_objects_semantic/household_objects_semantic_4.png"" class=""exp-image"">
                    <div class=""question-area"">
                        <p style=""font-size: 20px; font-weight: bold; margin: 0;"">Is there a person in this image?</p>
                    </div>
                </div>","1","main_experiment_trial","4","household_objects_semantic","semantic_sequence_notimeline","chronological","","","","","","",""
"","","","","","html-keyboard-response","109","388951","0.0-109.0","8969C74D93EB4893B0BAD7C2C6D3860E","019d6b2b-7929-7471-a92a-b6d0265ba3bc","019d6b28-084c-76dd-a1cb-5ac041bdee9a","","null","
                <div class=""stimulus-container"">
                    <img src=""semantic_sequence_notimeline/household_objects_semantic/household_objects_semantic_5.png"" class=""exp-image"">
                    <div class=""question-area""></div> 
                </div>","null","","","","","","","","","","","",""
"","","","","","html-button-response","110","390083","0.0-110.0","8969C74D93EB4893B0BAD7C2C6D3860E","019d6b2b-7929-7471-a92a-b6d0265ba3bc","019d6b28-084c-76dd-a1cb-5ac041bdee9a","","1131","
                <div class=""stimulus-container"">
                    <img src=""semantic_sequence_notimeline/household_objects_semantic/household_objects_semantic_5.png"" class=""exp-image"">
                    <div class=""question-area"">
                        <p style=""font-size: 20px; font-weight: bold; margin: 0;"">Is there a person in this image?</p>
                    </div>
                </div>","1","main_experiment_trial","5","household_objects_semantic","semantic_sequence_notimeline","chronological","","","","","","",""
"","","","","","html-keyboard-response","111","395089","0.0-111.0","8969C74D93EB4893B0BAD7C2C6D3860E","019d6b2b-7929-7471-a92a-b6d0265ba3bc","019d6b28-084c-76dd-a1cb-5ac041bdee9a","","null","
                <div class=""stimulus-container"">
                    <img src=""semantic_sequence_notimeline/household_objects_semantic/household_objects_semantic_6.png"" class=""exp-image"">
                    <div class=""question-area""></div> 
                </div>","null","","","","","","","","","","","",""
"","","","","","html-button-response","112","395864","0.0-112.0","8969C74D93EB4893B0BAD7C2C6D3860E","019d6b2b-7929-7471-a92a-b6d0265ba3bc","019d6b28-084c-76dd-a1cb-5ac041bdee9a","","774","
                <div class=""stimulus-container"">
                    <img src=""semantic_sequence_notimeline/household_objects_semantic/household_objects_semantic_6.png"" class=""exp-image"">
                    <div class=""question-area"">
                        <p style=""font-size: 20px; font-weight: bold; margin: 0;"">Is there a person in this image?</p>
                    </div>
                </div>","1","main_experiment_trial","6","household_objects_semantic","semantic_sequence_notimeline","chronological","","","","","","",""
"","","","","","html-keyboard-response","113","400878","0.0-113.0","8969C74D93EB4893B0BAD7C2C6D3860E","019d6b2b-7929-7471-a92a-b6d0265ba3bc","019d6b28-084c-76dd-a1cb-5ac041bdee9a","","null","
                <div class=""stimulus-container"">
                    <img src=""semantic_sequence_notimeline/household_objects_semantic/household_objects_semantic_7.png"" class=""exp-image"">
                    <div class=""question-area""></div> 
                </div>","null","","","","","","","","","","","",""
"","","","","","html-button-response","114","401499","0.0-114.0","8969C74D93EB4893B0BAD7C2C6D3860E","019d6b2b-7929-7471-a92a-b6d0265ba3bc","019d6b28-084c-76dd-a1cb-5ac041bdee9a","","620","
                <div class=""stimulus-container"">
                    <img src=""semantic_sequence_notimeline/household_objects_semantic/household_objects_semantic_7.png"" class=""exp-image"">
                    <div class=""question-area"">
                        <p style=""font-size: 20px; font-weight: bold; margin: 0;"">Is there a person in this image?</p>
                    </div>
                </div>","1","main_experiment_trial","7","household_objects_semantic","semantic_sequence_notimeline","chronological","","","","","","",""
"","","","","","html-keyboard-response","115","406505","0.0-115.0","8969C74D93EB4893B0BAD7C2C6D3860E","019d6b2b-7929-7471-a92a-b6d0265ba3bc","019d6b28-084c-76dd-a1cb-5ac041bdee9a","","null","
                <div class=""stimulus-container"">
                    <img src=""semantic_sequence_notimeline/household_objects_semantic/household_objects_semantic_8.png"" class=""exp-image"">
                    <div class=""question-area""></div> 
                </div>","null","","","","","","","","","","","",""
"","","","","","html-button-response","116","407541","0.0-116.0","8969C74D93EB4893B0BAD7C2C6D3860E","019d6b2b-7929-7471-a92a-b6d0265ba3bc","019d6b28-084c-76dd-a1cb-5ac041bdee9a","","1032","
                <div class=""stimulus-container"">
                    <img src=""semantic_sequence_notimeline/household_objects_semantic/household_objects_semantic_8.png"" class=""exp-image"">
                    <div class=""question-area"">
                        <p style=""font-size: 20px; font-weight: bold; margin: 0;"">Is there a person in this image?</p>
                    </div>
                </div>","1","main_experiment_trial","8","household_objects_semantic","semantic_sequence_notimeline","chronological","","","","","","",""
"","","","","","html-keyboard-response","117","412549","0.0-117.0","8969C74D93EB4893B0BAD7C2C6D3860E","019d6b2b-7929-7471-a92a-b6d0265ba3bc","019d6b28-084c-76dd-a1cb-5ac041bdee9a","","null","
                <div class=""stimulus-container"">
                    <img src=""semantic_sequence_notimeline/household_objects_semantic/household_objects_semantic_9.png"" class=""exp-image"">
                    <div class=""question-area""></div> 
                </div>","null","","","","","","","","","","","",""
"","","","","","html-button-response","118","413595","0.0-118.0","8969C74D93EB4893B0BAD7C2C6D3860E","019d6b2b-7929-7471-a92a-b6d0265ba3bc","019d6b28-084c-76dd-a1cb-5ac041bdee9a","","1045","
                <div class=""stimulus-container"">
                    <img src=""semantic_sequence_notimeline/household_objects_semantic/household_objects_semantic_9.png"" class=""exp-image"">
                    <div class=""question-area"">
                        <p style=""font-size: 20px; font-weight: bold; margin: 0;"">Is there a person in this image?</p>
                    </div>
                </div>","1","main_experiment_trial","9","household_objects_semantic","semantic_sequence_notimeline","chronological","","","","","","",""
"","","","","","html-keyboard-response","119","418598","0.0-119.0","8969C74D93EB4893B0BAD7C2C6D3860E","019d6b2b-7929-7471-a92a-b6d0265ba3bc","019d6b28-084c-76dd-a1cb-5ac041bdee9a","","null","
                <div class=""stimulus-container"">
                    <img src=""semantic_sequence_notimeline/household_objects_semantic/household_objects_semantic_ten.png"" class=""exp-image"">
                    <div class=""question-area""></div> 
                </div>","null","","","","","","","","","","","",""
"","","","","","html-button-response","120","419559","0.0-120.0","8969C74D93EB4893B0BAD7C2C6D3860E","019d6b2b-7929-7471-a92a-b6d0265ba3bc","019d6b28-084c-76dd-a1cb-5ac041bdee9a","","957","
                <div class=""stimulus-container"">
                    <img src=""semantic_sequence_notimeline/household_objects_semantic/household_objects_semantic_ten.png"" class=""exp-image"">
                    <div class=""question-area"">
                        <p style=""font-size: 20px; font-weight: bold; margin: 0;"">Is there a person in this image?</p>
                    </div>
                </div>","1","main_experiment_trial","ten","household_objects_semantic","semantic_sequence_notimeline","chronological","","","","","","",""
"","","","","","html-keyboard-response","121","424566","0.0-121.0","8969C74D93EB4893B0BAD7C2C6D3860E","019d6b2b-7929-7471-a92a-b6d0265ba3bc","019d6b28-084c-76dd-a1cb-5ac041bdee9a","","null","<div style=""background-color: white; width: 100vw; height: 100vh;""></div>","null","","","","","","","","","","","",""
"","","","","","html-keyboard-response","122","429568","0.0-122.0","8969C74D93EB4893B0BAD7C2C6D3860E","019d6b2b-7929-7471-a92a-b6d0265ba3bc","019d6b28-084c-76dd-a1cb-5ac041bdee9a","","null","
                <div class=""stimulus-container"">
                    <img src=""images/causal_sequence/coin_causal/coin_causal_1.png"" class=""exp-image"">
                    <div class=""question-area""></div> 
                </div>","null","","","","","","","","","","","",""
"","","","","","html-button-response","123","430693","0.0-123.0","8969C74D93EB4893B0BAD7C2C6D3860E","019d6b2b-7929-7471-a92a-b6d0265ba3bc","019d6b28-084c-76dd-a1cb-5ac041bdee9a","","1123","
                <div class=""stimulus-container"">
                    <img src=""images/causal_sequence/coin_causal/coin_causal_1.png"" class=""exp-image"">
                    <div class=""question-area"">
                        <p style=""font-size: 20px; font-weight: bold; margin: 0;"">Is there a person in this image?</p>
                    </div>
                </div>","0","main_experiment_trial","1","coin_causal","causal_sequence","chronological","","","","","","",""
"","","","","","html-keyboard-response","124","435696","0.0-124.0","8969C74D93EB4893B0BAD7C2C6D3860E","019d6b2b-7929-7471-a92a-b6d0265ba3bc","019d6b28-084c-76dd-a1cb-5ac041bdee9a","","null","
                <div class=""stimulus-container"">
                    <img src=""images/causal_sequence/coin_causal/coin_causal_2.png"" class=""exp-image"">
                    <div class=""question-area""></div> 
                </div>","null","","","","","","","","","","","",""
"","","","","","html-button-response","125","436575","0.0-125.0","8969C74D93EB4893B0BAD7C2C6D3860E","019d6b2b-7929-7471-a92a-b6d0265ba3bc","019d6b28-084c-76dd-a1cb-5ac041bdee9a","","878","
                <div class=""stimulus-container"">
                    <img src=""images/causal_sequence/coin_causal/coin_causal_2.png"" class=""exp-image"">
                    <div class=""question-area"">
                        <p style=""font-size: 20px; font-weight: bold; margin: 0;"">Is there a person in this image?</p>
                    </div>
                </div>","0","main_experiment_trial","2","coin_causal","causal_sequence","chronological","","","","","","",""
"","","","","","html-keyboard-response","126","441577","0.0-126.0","8969C74D93EB4893B0BAD7C2C6D3860E","019d6b2b-7929-7471-a92a-b6d0265ba3bc","019d6b28-084c-76dd-a1cb-5ac041bdee9a","","null","
                <div class=""stimulus-container"">
                    <img src=""images/causal_sequence/coin_causal/coin_causal_3.png"" class=""exp-image"">
                    <div class=""question-area""></div> 
                </div>","null","","","","","","","","","","","",""
"","","","","","html-button-response","127","442582","0.0-127.0","8969C74D93EB4893B0BAD7C2C6D3860E","019d6b2b-7929-7471-a92a-b6d0265ba3bc","019d6b28-084c-76dd-a1cb-5ac041bdee9a","","1003","
                <div class=""stimulus-container"">
                    <img src=""images/causal_sequence/coin_causal/coin_causal_3.png"" class=""exp-image"">
                    <div class=""question-area"">
                        <p style=""font-size: 20px; font-weight: bold; margin: 0;"">Is there a person in this image?</p>
                    </div>
                </div>","0","main_experiment_trial","3","coin_causal","causal_sequence","chronological","","","","","","",""
"","","","","","html-keyboard-response","128","447598","0.0-128.0","8969C74D93EB4893B0BAD7C2C6D3860E","019d6b2b-7929-7471-a92a-b6d0265ba3bc","019d6b28-084c-76dd-a1cb-5ac041bdee9a","","null","
                <div class=""stimulus-container"">
                    <img src=""images/causal_sequence/coin_causal/coin_causal_4.png"" class=""exp-image"">
                    <div class=""question-area""></div> 
                </div>","null","","","","","","","","","","","",""
"","","","","","html-button-response","129","449379","0.0-129.0","8969C74D93EB4893B0BAD7C2C6D3860E","019d6b2b-7929-7471-a92a-b6d0265ba3bc","019d6b28-084c-76dd-a1cb-5ac041bdee9a","","1780","
                <div class=""stimulus-container"">
                    <img src=""images/causal_sequence/coin_causal/coin_causal_4.png"" class=""exp-image"">
                    <div class=""question-area"">
                        <p style=""font-size: 20px; font-weight: bold; margin: 0;"">Is there a person in this image?</p>
                    </div>
                </div>","0","main_experiment_trial","4","coin_causal","causal_sequence","chronological","","","","","","",""
"","","","","","html-keyboard-response","130","454396","0.0-130.0","8969C74D93EB4893B0BAD7C2C6D3860E","019d6b2b-7929-7471-a92a-b6d0265ba3bc","019d6b28-084c-76dd-a1cb-5ac041bdee9a","","null","
                <div class=""stimulus-container"">
                    <img src=""images/causal_sequence/coin_causal/coin_causal_5.png"" class=""exp-image"">
                    <div class=""question-area""></div> 
                </div>","null","","","","","","","","","","","",""
"","","","","","html-button-response","131","455822","0.0-131.0","8969C74D93EB4893B0BAD7C2C6D3860E","019d6b2b-7929-7471-a92a-b6d0265ba3bc","019d6b28-084c-76dd-a1cb-5ac041bdee9a","","1425","
                <div class=""stimulus-container"">
                    <img src=""images/causal_sequence/coin_causal/coin_causal_5.png"" class=""exp-image"">
                    <div class=""question-area"">
                        <p style=""font-size: 20px; font-weight: bold; margin: 0;"">Is there a person in this image?</p>
                    </div>
                </div>","0","main_experiment_trial","5","coin_causal","causal_sequence","chronological","","","","","","",""
"","","","","","html-keyboard-response","132","460824","0.0-132.0","8969C74D93EB4893B0BAD7C2C6D3860E","019d6b2b-7929-7471-a92a-b6d0265ba3bc","019d6b28-084c-76dd-a1cb-5ac041bdee9a","","null","
                <div class=""stimulus-container"">
                    <img src=""images/causal_sequence/coin_causal/coin_causal_6.png"" class=""exp-image"">
                    <div class=""question-area""></div> 
                </div>","null","","","","","","","","","","","",""
"","","","","","html-button-response","133","461758","0.0-133.0","8969C74D93EB4893B0BAD7C2C6D3860E","019d6b2b-7929-7471-a92a-b6d0265ba3bc","019d6b28-084c-76dd-a1cb-5ac041bdee9a","","933","
                <div class=""stimulus-container"">
                    <img src=""images/causal_sequence/coin_causal/coin_causal_6.png"" class=""exp-image"">
                    <div class=""question-area"">
                        <p style=""font-size: 20px; font-weight: bold; margin: 0;"">Is there a person in this image?</p>
                    </div>
                </div>","0","main_experiment_trial","6","coin_causal","causal_sequence","chronological","","","","","","",""
"","","","","","html-keyboard-response","134","466774","0.0-134.0","8969C74D93EB4893B0BAD7C2C6D3860E","019d6b2b-7929-7471-a92a-b6d0265ba3bc","019d6b28-084c-76dd-a1cb-5ac041bdee9a","","null","
                <div class=""stimulus-container"">
                    <img src=""images/causal_sequence/coin_causal/coin_causal_7.png"" class=""exp-image"">
                    <div class=""question-area""></div> 
                </div>","null","","","","","","","","","","","",""
"","","","","","html-button-response","135","467874","0.0-135.0","8969C74D93EB4893B0BAD7C2C6D3860E","019d6b2b-7929-7471-a92a-b6d0265ba3bc","019d6b28-084c-76dd-a1cb-5ac041bdee9a","","1099","
                <div class=""stimulus-container"">
                    <img src=""images/causal_sequence/coin_causal/coin_causal_7.png"" class=""exp-image"">
                    <div class=""question-area"">
                        <p style=""font-size: 20px; font-weight: bold; margin: 0;"">Is there a person in this image?</p>
                    </div>
                </div>","1","main_experiment_trial","7","coin_causal","causal_sequence","chronological","","","","","","",""
"","","","","","html-keyboard-response","136","472882","0.0-136.0","8969C74D93EB4893B0BAD7C2C6D3860E","019d6b2b-7929-7471-a92a-b6d0265ba3bc","019d6b28-084c-76dd-a1cb-5ac041bdee9a","","null","
                <div class=""stimulus-container"">
                    <img src=""images/causal_sequence/coin_causal/coin_causal_8.png"" class=""exp-image"">
                    <div class=""question-area""></div> 
                </div>","null","","","","","","","","","","","",""
"","","","","","html-button-response","137","474262","0.0-137.0","8969C74D93EB4893B0BAD7C2C6D3860E","019d6b2b-7929-7471-a92a-b6d0265ba3bc","019d6b28-084c-76dd-a1cb-5ac041bdee9a","","1379","
                <div class=""stimulus-container"">
                    <img src=""images/causal_sequence/coin_causal/coin_causal_8.png"" class=""exp-image"">
                    <div class=""question-area"">
                        <p style=""font-size: 20px; font-weight: bold; margin: 0;"">Is there a person in this image?</p>
                    </div>
                </div>","0","main_experiment_trial","8","coin_causal","causal_sequence","chronological","","","","","","",""
"","","","","","html-keyboard-response","138","479264","0.0-138.0","8969C74D93EB4893B0BAD7C2C6D3860E","019d6b2b-7929-7471-a92a-b6d0265ba3bc","019d6b28-084c-76dd-a1cb-5ac041bdee9a","","null","
                <div class=""stimulus-container"">
                    <img src=""images/causal_sequence/coin_causal/coin_causal_9.png"" class=""exp-image"">
                    <div class=""question-area""></div> 
                </div>","null","","","","","","","","","","","",""
"","","","","","html-button-response","139","480340","0.0-139.0","8969C74D93EB4893B0BAD7C2C6D3860E","019d6b2b-7929-7471-a92a-b6d0265ba3bc","019d6b28-084c-76dd-a1cb-5ac041bdee9a","","1075","
                <div class=""stimulus-container"">
                    <img src=""images/causal_sequence/coin_causal/coin_causal_9.png"" class=""exp-image"">
                    <div class=""question-area"">
                        <p style=""font-size: 20px; font-weight: bold; margin: 0;"">Is there a person in this image?</p>
                    </div>
                </div>","0","main_experiment_trial","9","coin_causal","causal_sequence","chronological","","","","","","",""
"","","","","","html-keyboard-response","140","485342","0.0-140.0","8969C74D93EB4893B0BAD7C2C6D3860E","019d6b2b-7929-7471-a92a-b6d0265ba3bc","019d6b28-084c-76dd-a1cb-5ac041bdee9a","","null","
                <div class=""stimulus-container"">
                    <img src=""images/causal_sequence/coin_causal/coin_causal_ten.png"" class=""exp-image"">
                    <div class=""question-area""></div> 
                </div>","null","","","","","","","","","","","",""
"","","","","","html-button-response","141","486399","0.0-141.0","8969C74D93EB4893B0BAD7C2C6D3860E","019d6b2b-7929-7471-a92a-b6d0265ba3bc","019d6b28-084c-76dd-a1cb-5ac041bdee9a","","1055","
                <div class=""stimulus-container"">
                    <img src=""images/causal_sequence/coin_causal/coin_causal_ten.png"" class=""exp-image"">
                    <div class=""question-area"">
                        <p style=""font-size: 20px; font-weight: bold; margin: 0;"">Is there a person in this image?</p>
                    </div>
                </div>","0","main_experiment_trial","ten","coin_causal","causal_sequence","chronological","","","","","","",""
"","","","","","html-keyboard-response","142","491408","0.0-142.0","8969C74D93EB4893B0BAD7C2C6D3860E","019d6b2b-7929-7471-a92a-b6d0265ba3bc","019d6b28-084c-76dd-a1cb-5ac041bdee9a","","null","<div style=""background-color: white; width: 100vw; height: 100vh;""></div>","null","","","","","","","","","","","",""
"","","","","","html-keyboard-response","143","496417","0.0-143.0","8969C74D93EB4893B0BAD7C2C6D3860E","019d6b2b-7929-7471-a92a-b6d0265ba3bc","019d6b28-084c-76dd-a1cb-5ac041bdee9a","","null","
                <div class=""stimulus-container"">
                    <img src=""semantic_sequence_notimeline/clothing_semantic/clothing_semantic_1.png"" class=""exp-image"">
                    <div class=""question-area""></div> 
                </div>","null","","","","","","","","","","","",""
"","","","","","html-button-response","144","497700","0.0-144.0","8969C74D93EB4893B0BAD7C2C6D3860E","019d6b2b-7929-7471-a92a-b6d0265ba3bc","019d6b28-084c-76dd-a1cb-5ac041bdee9a","","1282","
                <div class=""stimulus-container"">
                    <img src=""semantic_sequence_notimeline/clothing_semantic/clothing_semantic_1.png"" class=""exp-image"">
                    <div class=""question-area"">
                        <p style=""font-size: 20px; font-weight: bold; margin: 0;"">Is there a person in this image?</p>
                    </div>
                </div>","1","main_experiment_trial","1","clothing_semantic","semantic_sequence_notimeline","chronological","","","","","","",""
"","","","","","html-keyboard-response","145","502707","0.0-145.0","8969C74D93EB4893B0BAD7C2C6D3860E","019d6b2b-7929-7471-a92a-b6d0265ba3bc","019d6b28-084c-76dd-a1cb-5ac041bdee9a","","null","
                <div class=""stimulus-container"">
                    <img src=""semantic_sequence_notimeline/clothing_semantic/clothing_semantic_2.png"" class=""exp-image"">
                    <div class=""question-area""></div> 
                </div>","null","","","","","","","","","","","",""
"","","","","","html-button-response","146","503566","0.0-146.0","8969C74D93EB4893B0BAD7C2C6D3860E","019d6b2b-7929-7471-a92a-b6d0265ba3bc","019d6b28-084c-76dd-a1cb-5ac041bdee9a","","858","
                <div class=""stimulus-container"">
                    <img src=""semantic_sequence_notimeline/clothing_semantic/clothing_semantic_2.png"" class=""exp-image"">
                    <div class=""question-area"">
                        <p style=""font-size: 20px; font-weight: bold; margin: 0;"">Is there a person in this image?</p>
                    </div>
                </div>","1","main_experiment_trial","2","clothing_semantic","semantic_sequence_notimeline","chronological","","","","","","",""
"","","","","","html-keyboard-response","147","508569","0.0-147.0","8969C74D93EB4893B0BAD7C2C6D3860E","019d6b2b-7929-7471-a92a-b6d0265ba3bc","019d6b28-084c-76dd-a1cb-5ac041bdee9a","","null","
                <div class=""stimulus-container"">
                    <img src=""semantic_sequence_notimeline/clothing_semantic/clothing_semantic_3.png"" class=""exp-image"">
                    <div class=""question-area""></div> 
                </div>","null","","","","","","","","","","","",""
"","","","","","html-button-response","148","509542","0.0-148.0","8969C74D93EB4893B0BAD7C2C6D3860E","019d6b2b-7929-7471-a92a-b6d0265ba3bc","019d6b28-084c-76dd-a1cb-5ac041bdee9a","","972","
                <div class=""stimulus-container"">
                    <img src=""semantic_sequence_notimeline/clothing_semantic/clothing_semantic_3.png"" class=""exp-image"">
                    <div class=""question-area"">
                        <p style=""font-size: 20px; font-weight: bold; margin: 0;"">Is there a person in this image?</p>
                    </div>
                </div>","1","main_experiment_trial","3","clothing_semantic","semantic_sequence_notimeline","chronological","","","","","","",""
"","","","","","html-keyboard-response","149","514544","0.0-149.0","8969C74D93EB4893B0BAD7C2C6D3860E","019d6b2b-7929-7471-a92a-b6d0265ba3bc","019d6b28-084c-76dd-a1cb-5ac041bdee9a","","null","
                <div class=""stimulus-container"">
                    <img src=""semantic_sequence_notimeline/clothing_semantic/clothing_semantic_4.png"" class=""exp-image"">
                    <div class=""question-area""></div> 
                </div>","null","","","","","","","","","","","",""
"","","","","","html-button-response","150","516124","0.0-150.0","8969C74D93EB4893B0BAD7C2C6D3860E","019d6b2b-7929-7471-a92a-b6d0265ba3bc","019d6b28-084c-76dd-a1cb-5ac041bdee9a","","1579","
                <div class=""stimulus-container"">
                    <img src=""semantic_sequence_notimeline/clothing_semantic/clothing_semantic_4.png"" class=""exp-image"">
                    <div class=""question-area"">
                        <p style=""font-size: 20px; font-weight: bold; margin: 0;"">Is there a person in this image?</p>
                    </div>
                </div>","1","main_experiment_trial","4","clothing_semantic","semantic_sequence_notimeline","chronological","","","","","","",""
"","","","","","html-keyboard-response","151","521134","0.0-151.0","8969C74D93EB4893B0BAD7C2C6D3860E","019d6b2b-7929-7471-a92a-b6d0265ba3bc","019d6b28-084c-76dd-a1cb-5ac041bdee9a","","null","
                <div class=""stimulus-container"">
                    <img src=""semantic_sequence_notimeline/clothing_semantic/clothing_semantic_5.png"" class=""exp-image"">
                    <div class=""question-area""></div> 
                </div>","null","","","","","","","","","","","",""
"","","","","","html-button-response","152","522169","0.0-152.0","8969C74D93EB4893B0BAD7C2C6D3860E","019d6b2b-7929-7471-a92a-b6d0265ba3bc","019d6b28-084c-76dd-a1cb-5ac041bdee9a","","1033","
                <div class=""stimulus-container"">
                    <img src=""semantic_sequence_notimeline/clothing_semantic/clothing_semantic_5.png"" class=""exp-image"">
                    <div class=""question-area"">
                        <p style=""font-size: 20px; font-weight: bold; margin: 0;"">Is there a person in this image?</p>
                    </div>
                </div>","1","main_experiment_trial","5","clothing_semantic","semantic_sequence_notimeline","chronological","","","","","","",""
"","","","","","html-keyboard-response","153","527170","0.0-153.0","8969C74D93EB4893B0BAD7C2C6D3860E","019d6b2b-7929-7471-a92a-b6d0265ba3bc","019d6b28-084c-76dd-a1cb-5ac041bdee9a","","null","
                <div class=""stimulus-container"">
                    <img src=""semantic_sequence_notimeline/clothing_semantic/clothing_semantic_6.png"" class=""exp-image"">
                    <div class=""question-area""></div> 
                </div>","null","","","","","","","","","","","",""
"","","","","","html-button-response","154","528477","0.0-154.0","8969C74D93EB4893B0BAD7C2C6D3860E","019d6b2b-7929-7471-a92a-b6d0265ba3bc","019d6b28-084c-76dd-a1cb-5ac041bdee9a","","1305","
                <div class=""stimulus-container"">
                    <img src=""semantic_sequence_notimeline/clothing_semantic/clothing_semantic_6.png"" class=""exp-image"">
                    <div class=""question-area"">
                        <p style=""font-size: 20px; font-weight: bold; margin: 0;"">Is there a person in this image?</p>
                    </div>
                </div>","1","main_experiment_trial","6","clothing_semantic","semantic_sequence_notimeline","chronological","","","","","","",""
"","","","","","html-keyboard-response","155","533493","0.0-155.0","8969C74D93EB4893B0BAD7C2C6D3860E","019d6b2b-7929-7471-a92a-b6d0265ba3bc","019d6b28-084c-76dd-a1cb-5ac041bdee9a","","null","
                <div class=""stimulus-container"">
                    <img src=""semantic_sequence_notimeline/clothing_semantic/clothing_semantic_7.png"" class=""exp-image"">
                    <div class=""question-area""></div> 
                </div>","null","","","","","","","","","","","",""
"","","","","","html-button-response","156","534604","0.0-156.0","8969C74D93EB4893B0BAD7C2C6D3860E","019d6b2b-7929-7471-a92a-b6d0265ba3bc","019d6b28-084c-76dd-a1cb-5ac041bdee9a","","1110","
                <div class=""stimulus-container"">
                    <img src=""semantic_sequence_notimeline/clothing_semantic/clothing_semantic_7.png"" class=""exp-image"">
                    <div class=""question-area"">
                        <p style=""font-size: 20px; font-weight: bold; margin: 0;"">Is there a person in this image?</p>
                    </div>
                </div>","1","main_experiment_trial","7","clothing_semantic","semantic_sequence_notimeline","chronological","","","","","","",""
"","","","","","html-keyboard-response","157","539616","0.0-157.0","8969C74D93EB4893B0BAD7C2C6D3860E","019d6b2b-7929-7471-a92a-b6d0265ba3bc","019d6b28-084c-76dd-a1cb-5ac041bdee9a","","null","
                <div class=""stimulus-container"">
                    <img src=""semantic_sequence_notimeline/clothing_semantic/clothing_semantic_8.png"" class=""exp-image"">
                    <div class=""question-area""></div> 
                </div>","null","","","","","","","","","","","",""
"","","","","","html-button-response","158","541120","0.0-158.0","8969C74D93EB4893B0BAD7C2C6D3860E","019d6b2b-7929-7471-a92a-b6d0265ba3bc","019d6b28-084c-76dd-a1cb-5ac041bdee9a","","1503","
                <div class=""stimulus-container"">
                    <img src=""semantic_sequence_notimeline/clothing_semantic/clothing_semantic_8.png"" class=""exp-image"">
                    <div class=""question-area"">
                        <p style=""font-size: 20px; font-weight: bold; margin: 0;"">Is there a person in this image?</p>
                    </div>
                </div>","1","main_experiment_trial","8","clothing_semantic","semantic_sequence_notimeline","chronological","","","","","","",""
"","","","","","html-keyboard-response","159","546131","0.0-159.0","8969C74D93EB4893B0BAD7C2C6D3860E","019d6b2b-7929-7471-a92a-b6d0265ba3bc","019d6b28-084c-76dd-a1cb-5ac041bdee9a","","null","
                <div class=""stimulus-container"">
                    <img src=""semantic_sequence_notimeline/clothing_semantic/clothing_semantic_9.png"" class=""exp-image"">
                    <div class=""question-area""></div> 
                </div>","null","","","","","","","","","","","",""
"","","","","","html-button-response","160","547599","0.0-160.0","8969C74D93EB4893B0BAD7C2C6D3860E","019d6b2b-7929-7471-a92a-b6d0265ba3bc","019d6b28-084c-76dd-a1cb-5ac041bdee9a","","1467","
                <div class=""stimulus-container"">
                    <img src=""semantic_sequence_notimeline/clothing_semantic/clothing_semantic_9.png"" class=""exp-image"">
                    <div class=""question-area"">
                        <p style=""font-size: 20px; font-weight: bold; margin: 0;"">Is there a person in this image?</p>
                    </div>
                </div>","1","main_experiment_trial","9","clothing_semantic","semantic_sequence_notimeline","chronological","","","","","","",""
"","","","","","html-keyboard-response","161","552602","0.0-161.0","8969C74D93EB4893B0BAD7C2C6D3860E","019d6b2b-7929-7471-a92a-b6d0265ba3bc","019d6b28-084c-76dd-a1cb-5ac041bdee9a","","null","
                <div class=""stimulus-container"">
                    <img src=""semantic_sequence_notimeline/clothing_semantic/clothing_semantic_ten.png"" class=""exp-image"">
                    <div class=""question-area""></div> 
                </div>","null","","","","","","","","","","","",""
"","","","","","html-button-response","162","553492","0.0-162.0","8969C74D93EB4893B0BAD7C2C6D3860E","019d6b2b-7929-7471-a92a-b6d0265ba3bc","019d6b28-084c-76dd-a1cb-5ac041bdee9a","","889","
                <div class=""stimulus-container"">
                    <img src=""semantic_sequence_notimeline/clothing_semantic/clothing_semantic_ten.png"" class=""exp-image"">
                    <div class=""question-area"">
                        <p style=""font-size: 20px; font-weight: bold; margin: 0;"">Is there a person in this image?</p>
                    </div>
                </div>","1","main_experiment_trial","ten","clothing_semantic","semantic_sequence_notimeline","chronological","","","","","","",""
"","","","","","html-keyboard-response","163","558501","0.0-163.0","8969C74D93EB4893B0BAD7C2C6D3860E","019d6b2b-7929-7471-a92a-b6d0265ba3bc","019d6b28-084c-76dd-a1cb-5ac041bdee9a","","null","<div style=""background-color: white; width: 100vw; height: 100vh;""></div>","null","","","","","","","","","","","",""
"","","","","","html-keyboard-response","164","563504","0.0-164.0","8969C74D93EB4893B0BAD7C2C6D3860E","019d6b2b-7929-7471-a92a-b6d0265ba3bc","019d6b28-084c-76dd-a1cb-5ac041bdee9a","","null","
                <div class=""stimulus-container"">
                    <img src=""images/causal_sequence/saving_a_cat_causal/saving_a_cat_causal_1.png"" class=""exp-image"">
                    <div class=""question-area""></div> 
                </div>","null","","","","","","","","","","","",""
"","","","","","html-button-response","165","564870","0.0-165.0","8969C74D93EB4893B0BAD7C2C6D3860E","019d6b2b-7929-7471-a92a-b6d0265ba3bc","019d6b28-084c-76dd-a1cb-5ac041bdee9a","","1365","
                <div class=""stimulus-container"">
                    <img src=""images/causal_sequence/saving_a_cat_causal/saving_a_cat_causal_1.png"" class=""exp-image"">
                    <div class=""question-area"">
                        <p style=""font-size: 20px; font-weight: bold; margin: 0;"">Is there a person in this image?</p>
                    </div>
                </div>","0","main_experiment_trial","1","saving_a_cat_causal","causal_sequence","chronological","","","","","","",""
"","","","","","html-keyboard-response","166","569879","0.0-166.0","8969C74D93EB4893B0BAD7C2C6D3860E","019d6b2b-7929-7471-a92a-b6d0265ba3bc","019d6b28-084c-76dd-a1cb-5ac041bdee9a","","null","
                <div class=""stimulus-container"">
                    <img src=""images/causal_sequence/saving_a_cat_causal/saving_a_cat_causal_2.png"" class=""exp-image"">
                    <div class=""question-area""></div> 
                </div>","null","","","","","","","","","","","",""
"","","","","","html-button-response","167","571365","0.0-167.0","8969C74D93EB4893B0BAD7C2C6D3860E","019d6b2b-7929-7471-a92a-b6d0265ba3bc","019d6b28-084c-76dd-a1cb-5ac041bdee9a","","1484","
                <div class=""stimulus-container"">
                    <img src=""images/causal_sequence/saving_a_cat_causal/saving_a_cat_causal_2.png"" class=""exp-image"">
                    <div class=""question-area"">
                        <p style=""font-size: 20px; font-weight: bold; margin: 0;"">Is there a person in this image?</p>
                    </div>
                </div>","1","main_experiment_trial","2","saving_a_cat_causal","causal_sequence","chronological","","","","","","",""
"","","","","","html-keyboard-response","168","576367","0.0-168.0","8969C74D93EB4893B0BAD7C2C6D3860E","019d6b2b-7929-7471-a92a-b6d0265ba3bc","019d6b28-084c-76dd-a1cb-5ac041bdee9a","","null","
                <div class=""stimulus-container"">
                    <img src=""images/causal_sequence/saving_a_cat_causal/saving_a_cat_causal_3.png"" class=""exp-image"">
                    <div class=""question-area""></div> 
                </div>","null","","","","","","","","","","","",""
"","","","","","html-button-response","169","577460","0.0-169.0","8969C74D93EB4893B0BAD7C2C6D3860E","019d6b2b-7929-7471-a92a-b6d0265ba3bc","019d6b28-084c-76dd-a1cb-5ac041bdee9a","","1092","
                <div class=""stimulus-container"">
                    <img src=""images/causal_sequence/saving_a_cat_causal/saving_a_cat_causal_3.png"" class=""exp-image"">
                    <div class=""question-area"">
                        <p style=""font-size: 20px; font-weight: bold; margin: 0;"">Is there a person in this image?</p>
                    </div>
                </div>","1","main_experiment_trial","3","saving_a_cat_causal","causal_sequence","chronological","","","","","","",""
"","","","","","html-keyboard-response","170","582478","0.0-170.0","8969C74D93EB4893B0BAD7C2C6D3860E","019d6b2b-7929-7471-a92a-b6d0265ba3bc","019d6b28-084c-76dd-a1cb-5ac041bdee9a","","null","
                <div class=""stimulus-container"">
                    <img src=""images/causal_sequence/saving_a_cat_causal/saving_a_cat_causal_4.png"" class=""exp-image"">
                    <div class=""question-area""></div> 
                </div>","null","","","","","","","","","","","",""
"","","","","","html-button-response","171","583916","0.0-171.0","8969C74D93EB4893B0BAD7C2C6D3860E","019d6b2b-7929-7471-a92a-b6d0265ba3bc","019d6b28-084c-76dd-a1cb-5ac041bdee9a","","1437","
                <div class=""stimulus-container"">
                    <img src=""images/causal_sequence/saving_a_cat_causal/saving_a_cat_causal_4.png"" class=""exp-image"">
                    <div class=""question-area"">
                        <p style=""font-size: 20px; font-weight: bold; margin: 0;"">Is there a person in this image?</p>
                    </div>
                </div>","0","main_experiment_trial","4","saving_a_cat_causal","causal_sequence","chronological","","","","","","",""
"","","","","","html-keyboard-response","172","588927","0.0-172.0","8969C74D93EB4893B0BAD7C2C6D3860E","019d6b2b-7929-7471-a92a-b6d0265ba3bc","019d6b28-084c-76dd-a1cb-5ac041bdee9a","","null","
                <div class=""stimulus-container"">
                    <img src=""images/causal_sequence/saving_a_cat_causal/saving_a_cat_causal_5.png"" class=""exp-image"">
                    <div class=""question-area""></div> 
                </div>","null","","","","","","","","","","","",""
"","","","","","html-button-response","173","590530","0.0-173.0","8969C74D93EB4893B0BAD7C2C6D3860E","019d6b2b-7929-7471-a92a-b6d0265ba3bc","019d6b28-084c-76dd-a1cb-5ac041bdee9a","","1602","
                <div class=""stimulus-container"">
                    <img src=""images/causal_sequence/saving_a_cat_causal/saving_a_cat_causal_5.png"" class=""exp-image"">
                    <div class=""question-area"">
                        <p style=""font-size: 20px; font-weight: bold; margin: 0;"">Is there a person in this image?</p>
                    </div>
                </div>","0","main_experiment_trial","5","saving_a_cat_causal","causal_sequence","chronological","","","","","","",""
"","","","","","html-keyboard-response","174","595532","0.0-174.0","8969C74D93EB4893B0BAD7C2C6D3860E","019d6b2b-7929-7471-a92a-b6d0265ba3bc","019d6b28-084c-76dd-a1cb-5ac041bdee9a","","null","
                <div class=""stimulus-container"">
                    <img src=""images/causal_sequence/saving_a_cat_causal/saving_a_cat_causal_6.png"" class=""exp-image"">
                    <div class=""question-area""></div> 
                </div>","null","","","","","","","","","","","",""
"","","","","","html-button-response","175","597905","0.0-175.0","8969C74D93EB4893B0BAD7C2C6D3860E","019d6b2b-7929-7471-a92a-b6d0265ba3bc","019d6b28-084c-76dd-a1cb-5ac041bdee9a","","2371","
                <div class=""stimulus-container"">
                    <img src=""images/causal_sequence/saving_a_cat_causal/saving_a_cat_causal_6.png"" class=""exp-image"">
                    <div class=""question-area"">
                        <p style=""font-size: 20px; font-weight: bold; margin: 0;"">Is there a person in this image?</p>
                    </div>
                </div>","0","main_experiment_trial","6","saving_a_cat_causal","causal_sequence","chronological","","","","","","",""
