"success","timeout","failed_images","failed_audio","failed_video","trial_type","trial_index","time_elapsed","internal_node_id","subject_id","study_id","session_id","view_history","rt","stimulus","response","task","image_index","folder","sequence_type","presentation_order","valuable_image_index","reward_type","correct_choice","distance_from_x","target_X","chosen_image_index","is_x_plus_dist"
"true","false","[]","[]","[]","preload","0","12866","0.0-0.0","3848D5FCACAF4CE2ABFE83A9334B7E62","019cfc84-b852-79d2-9d61-34d8aa913f56","019cfc7b-6c7b-7b1b-afe7-acad8efc6711","","","","","","","","","","","","","","","",""
"","","","","","instructions","1","29012","0.0-1.0","3848D5FCACAF4CE2ABFE83A9334B7E62","019cfc84-b852-79d2-9d61-34d8aa913f56","019cfc7b-6c7b-7b1b-afe7-acad8efc6711","[{""page_index"":0,""viewing_time"":16145}]","16146","","","","","","","","","","","","","",""
"","","","","","instructions","2","48675","0.0-2.0","3848D5FCACAF4CE2ABFE83A9334B7E62","019cfc84-b852-79d2-9d61-34d8aa913f56","019cfc7b-6c7b-7b1b-afe7-acad8efc6711","[{""page_index"":0,""viewing_time"":19663}]","19663","","","","","","","","","","","","","",""
"true","","","","","fullscreen","3","66287","0.0-3.0","3848D5FCACAF4CE2ABFE83A9334B7E62","019cfc84-b852-79d2-9d61-34d8aa913f56","019cfc7b-6c7b-7b1b-afe7-acad8efc6711","","16599","","","","","","","","","","","","","",""
"","","","","","instructions","4","74707","0.0-4.0","3848D5FCACAF4CE2ABFE83A9334B7E62","019cfc84-b852-79d2-9d61-34d8aa913f56","019cfc7b-6c7b-7b1b-afe7-acad8efc6711","[{""page_index"":0,""viewing_time"":8420}]","8420","","","","","","","","","","","","","",""
"","","","","","instructions","5","81740","0.0-5.0","3848D5FCACAF4CE2ABFE83A9334B7E62","019cfc84-b852-79d2-9d61-34d8aa913f56","019cfc7b-6c7b-7b1b-afe7-acad8efc6711","[{""page_index"":0,""viewing_time"":7032}]","7032","","","","","","","","","","","","","",""
"","","","","","html-keyboard-response","6","85752","0.0-6.0","3848D5FCACAF4CE2ABFE83A9334B7E62","019cfc84-b852-79d2-9d61-34d8aa913f56","019cfc7b-6c7b-7b1b-afe7-acad8efc6711","","null","
                <div class=""stimulus-container"">
                    <img src=""images/instructions/movie_1.png"" class=""exp-image"">
                    <div class=""question-area""></div> 
                </div>","null","","","","","","","","","","","",""
"","","","","","html-button-response","7","87116","0.0-7.0","3848D5FCACAF4CE2ABFE83A9334B7E62","019cfc84-b852-79d2-9d61-34d8aa913f56","019cfc7b-6c7b-7b1b-afe7-acad8efc6711","","1362","
                <div class=""stimulus-container"">
                    <img src=""images/instructions/movie_1.png"" class=""exp-image"">
                    <div class=""question-area"">
                        <p style=""font-size: 20px; font-weight: bold; margin: 0;"">Was there a person in this image?</p>
                    </div>
                </div>","0","example_question","1","","","","","","","","","",""
"","","","","","html-keyboard-response","8","91123","0.0-8.0","3848D5FCACAF4CE2ABFE83A9334B7E62","019cfc84-b852-79d2-9d61-34d8aa913f56","019cfc7b-6c7b-7b1b-afe7-acad8efc6711","","null","
                <div class=""stimulus-container"">
                    <img src=""images/instructions/movie_2.png"" class=""exp-image"">
                    <div class=""question-area""></div> 
                </div>","null","","","","","","","","","","","",""
"","","","","","html-button-response","9","92187","0.0-9.0","3848D5FCACAF4CE2ABFE83A9334B7E62","019cfc84-b852-79d2-9d61-34d8aa913f56","019cfc7b-6c7b-7b1b-afe7-acad8efc6711","","1063","
                <div class=""stimulus-container"">
                    <img src=""images/instructions/movie_2.png"" class=""exp-image"">
                    <div class=""question-area"">
                        <p style=""font-size: 20px; font-weight: bold; margin: 0;"">Was there a person in this image?</p>
                    </div>
                </div>","0","example_question","2","","","","","","","","","",""
"","","","","","html-keyboard-response","10","96196","0.0-10.0","3848D5FCACAF4CE2ABFE83A9334B7E62","019cfc84-b852-79d2-9d61-34d8aa913f56","019cfc7b-6c7b-7b1b-afe7-acad8efc6711","","null","
                <div class=""stimulus-container"">
                    <img src=""images/instructions/movie_3.png"" class=""exp-image"">
                    <div class=""question-area""></div> 
                </div>","null","","","","","","","","","","","",""
"","","","","","html-button-response","11","96651","0.0-11.0","3848D5FCACAF4CE2ABFE83A9334B7E62","019cfc84-b852-79d2-9d61-34d8aa913f56","019cfc7b-6c7b-7b1b-afe7-acad8efc6711","","455","
                <div class=""stimulus-container"">
                    <img src=""images/instructions/movie_3.png"" class=""exp-image"">
                    <div class=""question-area"">
                        <p style=""font-size: 20px; font-weight: bold; margin: 0;"">Was there a person in this image?</p>
                    </div>
                </div>","0","example_question","3","","","","","","","","","",""
"","","","","","html-keyboard-response","12","100656","0.0-12.0","3848D5FCACAF4CE2ABFE83A9334B7E62","019cfc84-b852-79d2-9d61-34d8aa913f56","019cfc7b-6c7b-7b1b-afe7-acad8efc6711","","null","
                <div class=""stimulus-container"">
                    <img src=""images/instructions/movie_4.png"" class=""exp-image"">
                    <div class=""question-area""></div> 
                </div>","null","","","","","","","","","","","",""
"","","","","","html-button-response","13","101035","0.0-13.0","3848D5FCACAF4CE2ABFE83A9334B7E62","019cfc84-b852-79d2-9d61-34d8aa913f56","019cfc7b-6c7b-7b1b-afe7-acad8efc6711","","378","
                <div class=""stimulus-container"">
                    <img src=""images/instructions/movie_4.png"" class=""exp-image"">
                    <div class=""question-area"">
                        <p style=""font-size: 20px; font-weight: bold; margin: 0;"">Was there a person in this image?</p>
                    </div>
                </div>","0","example_question","4","","","","","","","","","",""
"","","","","","instructions","14","102691","0.0-14.0","3848D5FCACAF4CE2ABFE83A9334B7E62","019cfc84-b852-79d2-9d61-34d8aa913f56","019cfc7b-6c7b-7b1b-afe7-acad8efc6711","[{""page_index"":0,""viewing_time"":1655}]","1656","","","","","","","","","","","","","",""
"","","","","","instructions","15","107051","0.0-15.0","3848D5FCACAF4CE2ABFE83A9334B7E62","019cfc84-b852-79d2-9d61-34d8aa913f56","019cfc7b-6c7b-7b1b-afe7-acad8efc6711","[{""page_index"":0,""viewing_time"":4360}]","4360","","","","","","","","","","","","","",""
"","","","","","html-keyboard-response","16","112063","0.0-16.0","3848D5FCACAF4CE2ABFE83A9334B7E62","019cfc84-b852-79d2-9d61-34d8aa913f56","019cfc7b-6c7b-7b1b-afe7-acad8efc6711","","null","<div style=""background-color: white; width: 100vw; height: 100vh;""></div>","null","","","","","","","","","","","",""
"","","","","","html-keyboard-response","17","117068","0.0-17.0","3848D5FCACAF4CE2ABFE83A9334B7E62","019cfc84-b852-79d2-9d61-34d8aa913f56","019cfc7b-6c7b-7b1b-afe7-acad8efc6711","","null","
                <div class=""stimulus-container"">
                    <img src=""images/semantic_sequence/self_care_activities_semantic/self_care_activities_semantic_1.png"" class=""exp-image"">
                    <div class=""question-area""></div> 
                </div>","null","","","","","","","","","","","",""
"","","","","","html-button-response","18","118091","0.0-18.0","3848D5FCACAF4CE2ABFE83A9334B7E62","019cfc84-b852-79d2-9d61-34d8aa913f56","019cfc7b-6c7b-7b1b-afe7-acad8efc6711","","1022","
                <div class=""stimulus-container"">
                    <img src=""images/semantic_sequence/self_care_activities_semantic/self_care_activities_semantic_1.png"" class=""exp-image"">
                    <div class=""question-area"">
                        <p style=""font-size: 20px; font-weight: bold; margin: 0;"">Is there a person in this image?</p>
                    </div>
                </div>","0","main_experiment_trial","1","self_care_activities_semantic","semantic_sequence","chronological","","","","","","",""
"","","","","","html-keyboard-response","19","123097","0.0-19.0","3848D5FCACAF4CE2ABFE83A9334B7E62","019cfc84-b852-79d2-9d61-34d8aa913f56","019cfc7b-6c7b-7b1b-afe7-acad8efc6711","","null","
                <div class=""stimulus-container"">
                    <img src=""images/semantic_sequence/self_care_activities_semantic/self_care_activities_semantic_2.png"" class=""exp-image"">
                    <div class=""question-area""></div> 
                </div>","null","","","","","","","","","","","",""
"","","","","","html-button-response","20","124723","0.0-20.0","3848D5FCACAF4CE2ABFE83A9334B7E62","019cfc84-b852-79d2-9d61-34d8aa913f56","019cfc7b-6c7b-7b1b-afe7-acad8efc6711","","1625","
                <div class=""stimulus-container"">
                    <img src=""images/semantic_sequence/self_care_activities_semantic/self_care_activities_semantic_2.png"" class=""exp-image"">
                    <div class=""question-area"">
                        <p style=""font-size: 20px; font-weight: bold; margin: 0;"">Is there a person in this image?</p>
                    </div>
                </div>","0","main_experiment_trial","2","self_care_activities_semantic","semantic_sequence","chronological","","","","","","",""
"","","","","","html-keyboard-response","21","129734","0.0-21.0","3848D5FCACAF4CE2ABFE83A9334B7E62","019cfc84-b852-79d2-9d61-34d8aa913f56","019cfc7b-6c7b-7b1b-afe7-acad8efc6711","","null","
                <div class=""stimulus-container"">
                    <img src=""images/semantic_sequence/self_care_activities_semantic/self_care_activities_semantic_3.png"" class=""exp-image"">
                    <div class=""question-area""></div> 
                </div>","null","","","","","","","","","","","",""
"","","","","","html-button-response","22","130267","0.0-22.0","3848D5FCACAF4CE2ABFE83A9334B7E62","019cfc84-b852-79d2-9d61-34d8aa913f56","019cfc7b-6c7b-7b1b-afe7-acad8efc6711","","532","
                <div class=""stimulus-container"">
                    <img src=""images/semantic_sequence/self_care_activities_semantic/self_care_activities_semantic_3.png"" class=""exp-image"">
                    <div class=""question-area"">
                        <p style=""font-size: 20px; font-weight: bold; margin: 0;"">Is there a person in this image?</p>
                    </div>
                </div>","0","main_experiment_trial","3","self_care_activities_semantic","semantic_sequence","chronological","","","","","","",""
"","","","","","html-keyboard-response","23","135275","0.0-23.0","3848D5FCACAF4CE2ABFE83A9334B7E62","019cfc84-b852-79d2-9d61-34d8aa913f56","019cfc7b-6c7b-7b1b-afe7-acad8efc6711","","null","
                <div class=""stimulus-container"">
                    <img src=""images/semantic_sequence/self_care_activities_semantic/self_care_activities_semantic_4.png"" class=""exp-image"">
                    <div class=""question-area""></div> 
                </div>","null","","","","","","","","","","","",""
"","","","","","html-button-response","24","135723","0.0-24.0","3848D5FCACAF4CE2ABFE83A9334B7E62","019cfc84-b852-79d2-9d61-34d8aa913f56","019cfc7b-6c7b-7b1b-afe7-acad8efc6711","","448","
                <div class=""stimulus-container"">
                    <img src=""images/semantic_sequence/self_care_activities_semantic/self_care_activities_semantic_4.png"" class=""exp-image"">
                    <div class=""question-area"">
                        <p style=""font-size: 20px; font-weight: bold; margin: 0;"">Is there a person in this image?</p>
                    </div>
                </div>","0","main_experiment_trial","4","self_care_activities_semantic","semantic_sequence","chronological","","","","","","",""
"","","","","","html-keyboard-response","25","140737","0.0-25.0","3848D5FCACAF4CE2ABFE83A9334B7E62","019cfc84-b852-79d2-9d61-34d8aa913f56","019cfc7b-6c7b-7b1b-afe7-acad8efc6711","","null","
                <div class=""stimulus-container"">
                    <img src=""images/semantic_sequence/self_care_activities_semantic/self_care_activities_semantic_5.png"" class=""exp-image"">
                    <div class=""question-area""></div> 
                </div>","null","","","","","","","","","","","",""
"","","","","","html-button-response","26","141147","0.0-26.0","3848D5FCACAF4CE2ABFE83A9334B7E62","019cfc84-b852-79d2-9d61-34d8aa913f56","019cfc7b-6c7b-7b1b-afe7-acad8efc6711","","410","
                <div class=""stimulus-container"">
                    <img src=""images/semantic_sequence/self_care_activities_semantic/self_care_activities_semantic_5.png"" class=""exp-image"">
                    <div class=""question-area"">
                        <p style=""font-size: 20px; font-weight: bold; margin: 0;"">Is there a person in this image?</p>
                    </div>
                </div>","0","main_experiment_trial","5","self_care_activities_semantic","semantic_sequence","chronological","","","","","","",""
"","","","","","html-keyboard-response","27","146154","0.0-27.0","3848D5FCACAF4CE2ABFE83A9334B7E62","019cfc84-b852-79d2-9d61-34d8aa913f56","019cfc7b-6c7b-7b1b-afe7-acad8efc6711","","null","
                <div class=""stimulus-container"">
                    <img src=""images/semantic_sequence/self_care_activities_semantic/self_care_activities_semantic_6.png"" class=""exp-image"">
                    <div class=""question-area""></div> 
                </div>","null","","","","","","","","","","","",""
"","","","","","html-button-response","28","146787","0.0-28.0","3848D5FCACAF4CE2ABFE83A9334B7E62","019cfc84-b852-79d2-9d61-34d8aa913f56","019cfc7b-6c7b-7b1b-afe7-acad8efc6711","","632","
                <div class=""stimulus-container"">
                    <img src=""images/semantic_sequence/self_care_activities_semantic/self_care_activities_semantic_6.png"" class=""exp-image"">
                    <div class=""question-area"">
                        <p style=""font-size: 20px; font-weight: bold; margin: 0;"">Is there a person in this image?</p>
                    </div>
                </div>","1","main_experiment_trial","6","self_care_activities_semantic","semantic_sequence","chronological","","","","","","",""
"","","","","","html-keyboard-response","29","151790","0.0-29.0","3848D5FCACAF4CE2ABFE83A9334B7E62","019cfc84-b852-79d2-9d61-34d8aa913f56","019cfc7b-6c7b-7b1b-afe7-acad8efc6711","","null","
                <div class=""stimulus-container"">
                    <img src=""images/semantic_sequence/self_care_activities_semantic/self_care_activities_semantic_7.png"" class=""exp-image"">
                    <div class=""question-area""></div> 
                </div>","null","","","","","","","","","","","",""
"","","","","","html-button-response","30","152235","0.0-30.0","3848D5FCACAF4CE2ABFE83A9334B7E62","019cfc84-b852-79d2-9d61-34d8aa913f56","019cfc7b-6c7b-7b1b-afe7-acad8efc6711","","444","
                <div class=""stimulus-container"">
                    <img src=""images/semantic_sequence/self_care_activities_semantic/self_care_activities_semantic_7.png"" class=""exp-image"">
                    <div class=""question-area"">
                        <p style=""font-size: 20px; font-weight: bold; margin: 0;"">Is there a person in this image?</p>
                    </div>
                </div>","0","main_experiment_trial","7","self_care_activities_semantic","semantic_sequence","chronological","","","","","","",""
"","","","","","html-keyboard-response","31","157237","0.0-31.0","3848D5FCACAF4CE2ABFE83A9334B7E62","019cfc84-b852-79d2-9d61-34d8aa913f56","019cfc7b-6c7b-7b1b-afe7-acad8efc6711","","null","
                <div class=""stimulus-container"">
                    <img src=""images/semantic_sequence/self_care_activities_semantic/self_care_activities_semantic_8.png"" class=""exp-image"">
                    <div class=""question-area""></div> 
                </div>","null","","","","","","","","","","","",""
"","","","","","html-button-response","32","157707","0.0-32.0","3848D5FCACAF4CE2ABFE83A9334B7E62","019cfc84-b852-79d2-9d61-34d8aa913f56","019cfc7b-6c7b-7b1b-afe7-acad8efc6711","","470","
                <div class=""stimulus-container"">
                    <img src=""images/semantic_sequence/self_care_activities_semantic/self_care_activities_semantic_8.png"" class=""exp-image"">
                    <div class=""question-area"">
                        <p style=""font-size: 20px; font-weight: bold; margin: 0;"">Is there a person in this image?</p>
                    </div>
                </div>","0","main_experiment_trial","8","self_care_activities_semantic","semantic_sequence","chronological","","","","","","",""
"","","","","","html-keyboard-response","33","162716","0.0-33.0","3848D5FCACAF4CE2ABFE83A9334B7E62","019cfc84-b852-79d2-9d61-34d8aa913f56","019cfc7b-6c7b-7b1b-afe7-acad8efc6711","","null","
                <div class=""stimulus-container"">
                    <img src=""images/semantic_sequence/self_care_activities_semantic/self_care_activities_semantic_9.png"" class=""exp-image"">
                    <div class=""question-area""></div> 
                </div>","null","","","","","","","","","","","",""
"","","","","","html-button-response","34","165722","0.0-34.0","3848D5FCACAF4CE2ABFE83A9334B7E62","019cfc84-b852-79d2-9d61-34d8aa913f56","019cfc7b-6c7b-7b1b-afe7-acad8efc6711","","null","
                <div class=""stimulus-container"">
                    <img src=""images/semantic_sequence/self_care_activities_semantic/self_care_activities_semantic_9.png"" class=""exp-image"">
                    <div class=""question-area"">
                        <p style=""font-size: 20px; font-weight: bold; margin: 0;"">Is there a person in this image?</p>
                    </div>
                </div>","null","main_experiment_trial","9","self_care_activities_semantic","semantic_sequence","chronological","","","","","","",""
"","","","","","html-keyboard-response","35","170731","0.0-35.0","3848D5FCACAF4CE2ABFE83A9334B7E62","019cfc84-b852-79d2-9d61-34d8aa913f56","019cfc7b-6c7b-7b1b-afe7-acad8efc6711","","null","
                <div class=""stimulus-container"">
                    <img src=""images/semantic_sequence/self_care_activities_semantic/self_care_activities_semantic_ten.png"" class=""exp-image"">
                    <div class=""question-area""></div> 
                </div>","null","","","","","","","","","","","",""
"","","","","","html-button-response","36","172651","0.0-36.0","3848D5FCACAF4CE2ABFE83A9334B7E62","019cfc84-b852-79d2-9d61-34d8aa913f56","019cfc7b-6c7b-7b1b-afe7-acad8efc6711","","1920","
                <div class=""stimulus-container"">
                    <img src=""images/semantic_sequence/self_care_activities_semantic/self_care_activities_semantic_ten.png"" class=""exp-image"">
                    <div class=""question-area"">
                        <p style=""font-size: 20px; font-weight: bold; margin: 0;"">Is there a person in this image?</p>
                    </div>
                </div>","0","main_experiment_trial","ten","self_care_activities_semantic","semantic_sequence","chronological","","","","","","",""
"","","","","","html-keyboard-response","37","177665","0.0-37.0","3848D5FCACAF4CE2ABFE83A9334B7E62","019cfc84-b852-79d2-9d61-34d8aa913f56","019cfc7b-6c7b-7b1b-afe7-acad8efc6711","","null","<div style=""background-color: white; width: 100vw; height: 100vh;""></div>","null","","","","","","","","","","","",""
"","","","","","html-keyboard-response","38","182674","0.0-38.0","3848D5FCACAF4CE2ABFE83A9334B7E62","019cfc84-b852-79d2-9d61-34d8aa913f56","019cfc7b-6c7b-7b1b-afe7-acad8efc6711","","null","
                <div class=""stimulus-container"">
                    <img src=""images/causal_sequence/coin_causal/coin_causal_1.png"" class=""exp-image"">
                    <div class=""question-area""></div> 
                </div>","null","","","","","","","","","","","",""
"","","","","","html-button-response","39","183483","0.0-39.0","3848D5FCACAF4CE2ABFE83A9334B7E62","019cfc84-b852-79d2-9d61-34d8aa913f56","019cfc7b-6c7b-7b1b-afe7-acad8efc6711","","808","
                <div class=""stimulus-container"">
                    <img src=""images/causal_sequence/coin_causal/coin_causal_1.png"" class=""exp-image"">
                    <div class=""question-area"">
                        <p style=""font-size: 20px; font-weight: bold; margin: 0;"">Is there a person in this image?</p>
                    </div>
                </div>","0","main_experiment_trial","1","coin_causal","causal_sequence","chronological","","","","","","",""
"","","","","","html-keyboard-response","40","188497","0.0-40.0","3848D5FCACAF4CE2ABFE83A9334B7E62","019cfc84-b852-79d2-9d61-34d8aa913f56","019cfc7b-6c7b-7b1b-afe7-acad8efc6711","","null","
                <div class=""stimulus-container"">
                    <img src=""images/causal_sequence/coin_causal/coin_causal_2.png"" class=""exp-image"">
                    <div class=""question-area""></div> 
                </div>","null","","","","","","","","","","","",""
"","","","","","html-button-response","41","189003","0.0-41.0","3848D5FCACAF4CE2ABFE83A9334B7E62","019cfc84-b852-79d2-9d61-34d8aa913f56","019cfc7b-6c7b-7b1b-afe7-acad8efc6711","","505","
                <div class=""stimulus-container"">
                    <img src=""images/causal_sequence/coin_causal/coin_causal_2.png"" class=""exp-image"">
                    <div class=""question-area"">
                        <p style=""font-size: 20px; font-weight: bold; margin: 0;"">Is there a person in this image?</p>
                    </div>
                </div>","0","main_experiment_trial","2","coin_causal","causal_sequence","chronological","","","","","","",""
"","","","","","html-keyboard-response","42","194007","0.0-42.0","3848D5FCACAF4CE2ABFE83A9334B7E62","019cfc84-b852-79d2-9d61-34d8aa913f56","019cfc7b-6c7b-7b1b-afe7-acad8efc6711","","null","
                <div class=""stimulus-container"">
                    <img src=""images/causal_sequence/coin_causal/coin_causal_3.png"" class=""exp-image"">
                    <div class=""question-area""></div> 
                </div>","null","","","","","","","","","","","",""
"","","","","","html-button-response","43","194603","0.0-43.0","3848D5FCACAF4CE2ABFE83A9334B7E62","019cfc84-b852-79d2-9d61-34d8aa913f56","019cfc7b-6c7b-7b1b-afe7-acad8efc6711","","595","
                <div class=""stimulus-container"">
                    <img src=""images/causal_sequence/coin_causal/coin_causal_3.png"" class=""exp-image"">
                    <div class=""question-area"">
                        <p style=""font-size: 20px; font-weight: bold; margin: 0;"">Is there a person in this image?</p>
                    </div>
                </div>","0","main_experiment_trial","3","coin_causal","causal_sequence","chronological","","","","","","",""
"","","","","","html-keyboard-response","44","199611","0.0-44.0","3848D5FCACAF4CE2ABFE83A9334B7E62","019cfc84-b852-79d2-9d61-34d8aa913f56","019cfc7b-6c7b-7b1b-afe7-acad8efc6711","","null","
                <div class=""stimulus-container"">
                    <img src=""images/causal_sequence/coin_causal/coin_causal_4.png"" class=""exp-image"">
                    <div class=""question-area""></div> 
                </div>","null","","","","","","","","","","","",""
"","","","","","html-button-response","45","200067","0.0-45.0","3848D5FCACAF4CE2ABFE83A9334B7E62","019cfc84-b852-79d2-9d61-34d8aa913f56","019cfc7b-6c7b-7b1b-afe7-acad8efc6711","","455","
                <div class=""stimulus-container"">
                    <img src=""images/causal_sequence/coin_causal/coin_causal_4.png"" class=""exp-image"">
                    <div class=""question-area"">
                        <p style=""font-size: 20px; font-weight: bold; margin: 0;"">Is there a person in this image?</p>
                    </div>
                </div>","0","main_experiment_trial","4","coin_causal","causal_sequence","chronological","","","","","","",""
"","","","","","html-keyboard-response","46","205075","0.0-46.0","3848D5FCACAF4CE2ABFE83A9334B7E62","019cfc84-b852-79d2-9d61-34d8aa913f56","019cfc7b-6c7b-7b1b-afe7-acad8efc6711","","null","
                <div class=""stimulus-container"">
                    <img src=""images/causal_sequence/coin_causal/coin_causal_5.png"" class=""exp-image"">
                    <div class=""question-area""></div> 
                </div>","null","","","","","","","","","","","",""
"","","","","","html-button-response","47","206083","0.0-47.0","3848D5FCACAF4CE2ABFE83A9334B7E62","019cfc84-b852-79d2-9d61-34d8aa913f56","019cfc7b-6c7b-7b1b-afe7-acad8efc6711","","1007","
                <div class=""stimulus-container"">
                    <img src=""images/causal_sequence/coin_causal/coin_causal_5.png"" class=""exp-image"">
                    <div class=""question-area"">
                        <p style=""font-size: 20px; font-weight: bold; margin: 0;"">Is there a person in this image?</p>
                    </div>
                </div>","0","main_experiment_trial","5","coin_causal","causal_sequence","chronological","","","","","","",""
"","","","","","html-keyboard-response","48","211093","0.0-48.0","3848D5FCACAF4CE2ABFE83A9334B7E62","019cfc84-b852-79d2-9d61-34d8aa913f56","019cfc7b-6c7b-7b1b-afe7-acad8efc6711","","null","
                <div class=""stimulus-container"">
                    <img src=""images/causal_sequence/coin_causal/coin_causal_6.png"" class=""exp-image"">
                    <div class=""question-area""></div> 
                </div>","null","","","","","","","","","","","",""
"","","","","","html-button-response","49","211675","0.0-49.0","3848D5FCACAF4CE2ABFE83A9334B7E62","019cfc84-b852-79d2-9d61-34d8aa913f56","019cfc7b-6c7b-7b1b-afe7-acad8efc6711","","581","
                <div class=""stimulus-container"">
                    <img src=""images/causal_sequence/coin_causal/coin_causal_6.png"" class=""exp-image"">
                    <div class=""question-area"">
                        <p style=""font-size: 20px; font-weight: bold; margin: 0;"">Is there a person in this image?</p>
                    </div>
                </div>","0","main_experiment_trial","6","coin_causal","causal_sequence","chronological","","","","","","",""
"","","","","","html-keyboard-response","50","216677","0.0-50.0","3848D5FCACAF4CE2ABFE83A9334B7E62","019cfc84-b852-79d2-9d61-34d8aa913f56","019cfc7b-6c7b-7b1b-afe7-acad8efc6711","","null","
                <div class=""stimulus-container"">
                    <img src=""images/causal_sequence/coin_causal/coin_causal_7.png"" class=""exp-image"">
                    <div class=""question-area""></div> 
                </div>","null","","","","","","","","","","","",""
"","","","","","html-button-response","51","217075","0.0-51.0","3848D5FCACAF4CE2ABFE83A9334B7E62","019cfc84-b852-79d2-9d61-34d8aa913f56","019cfc7b-6c7b-7b1b-afe7-acad8efc6711","","398","
                <div class=""stimulus-container"">
                    <img src=""images/causal_sequence/coin_causal/coin_causal_7.png"" class=""exp-image"">
                    <div class=""question-area"">
                        <p style=""font-size: 20px; font-weight: bold; margin: 0;"">Is there a person in this image?</p>
                    </div>
                </div>","1","main_experiment_trial","7","coin_causal","causal_sequence","chronological","","","","","","",""
"","","","","","html-keyboard-response","52","222083","0.0-52.0","3848D5FCACAF4CE2ABFE83A9334B7E62","019cfc84-b852-79d2-9d61-34d8aa913f56","019cfc7b-6c7b-7b1b-afe7-acad8efc6711","","null","
                <div class=""stimulus-container"">
                    <img src=""images/causal_sequence/coin_causal/coin_causal_8.png"" class=""exp-image"">
                    <div class=""question-area""></div> 
                </div>","null","","","","","","","","","","","",""
"","","","","","html-button-response","53","222683","0.0-53.0","3848D5FCACAF4CE2ABFE83A9334B7E62","019cfc84-b852-79d2-9d61-34d8aa913f56","019cfc7b-6c7b-7b1b-afe7-acad8efc6711","","599","
                <div class=""stimulus-container"">
                    <img src=""images/causal_sequence/coin_causal/coin_causal_8.png"" class=""exp-image"">
                    <div class=""question-area"">
                        <p style=""font-size: 20px; font-weight: bold; margin: 0;"">Is there a person in this image?</p>
                    </div>
                </div>","0","main_experiment_trial","8","coin_causal","causal_sequence","chronological","","","","","","",""
"","","","","","html-keyboard-response","54","227687","0.0-54.0","3848D5FCACAF4CE2ABFE83A9334B7E62","019cfc84-b852-79d2-9d61-34d8aa913f56","019cfc7b-6c7b-7b1b-afe7-acad8efc6711","","null","
                <div class=""stimulus-container"">
                    <img src=""images/causal_sequence/coin_causal/coin_causal_9.png"" class=""exp-image"">
                    <div class=""question-area""></div> 
                </div>","null","","","","","","","","","","","",""
"","","","","","html-button-response","55","228139","0.0-55.0","3848D5FCACAF4CE2ABFE83A9334B7E62","019cfc84-b852-79d2-9d61-34d8aa913f56","019cfc7b-6c7b-7b1b-afe7-acad8efc6711","","451","
                <div class=""stimulus-container"">
                    <img src=""images/causal_sequence/coin_causal/coin_causal_9.png"" class=""exp-image"">
                    <div class=""question-area"">
                        <p style=""font-size: 20px; font-weight: bold; margin: 0;"">Is there a person in this image?</p>
                    </div>
                </div>","0","main_experiment_trial","9","coin_causal","causal_sequence","chronological","","","","","","",""
"","","","","","html-keyboard-response","56","233149","0.0-56.0","3848D5FCACAF4CE2ABFE83A9334B7E62","019cfc84-b852-79d2-9d61-34d8aa913f56","019cfc7b-6c7b-7b1b-afe7-acad8efc6711","","null","
                <div class=""stimulus-container"">
                    <img src=""images/causal_sequence/coin_causal/coin_causal_ten.png"" class=""exp-image"">
                    <div class=""question-area""></div> 
                </div>","null","","","","","","","","","","","",""
"","","","","","html-button-response","57","233691","0.0-57.0","3848D5FCACAF4CE2ABFE83A9334B7E62","019cfc84-b852-79d2-9d61-34d8aa913f56","019cfc7b-6c7b-7b1b-afe7-acad8efc6711","","541","
                <div class=""stimulus-container"">
                    <img src=""images/causal_sequence/coin_causal/coin_causal_ten.png"" class=""exp-image"">
                    <div class=""question-area"">
                        <p style=""font-size: 20px; font-weight: bold; margin: 0;"">Is there a person in this image?</p>
                    </div>
                </div>","0","main_experiment_trial","ten","coin_causal","causal_sequence","chronological","","","","","","",""
"","","","","","html-keyboard-response","58","238706","0.0-58.0","3848D5FCACAF4CE2ABFE83A9334B7E62","019cfc84-b852-79d2-9d61-34d8aa913f56","019cfc7b-6c7b-7b1b-afe7-acad8efc6711","","null","<div style=""background-color: white; width: 100vw; height: 100vh;""></div>","null","","","","","","","","","","","",""
"","","","","","html-keyboard-response","59","243708","0.0-59.0","3848D5FCACAF4CE2ABFE83A9334B7E62","019cfc84-b852-79d2-9d61-34d8aa913f56","019cfc7b-6c7b-7b1b-afe7-acad8efc6711","","null","
                <div class=""stimulus-container"">
                    <img src=""images/schematic_sequence/restaurant_scheme/restaurant_scheme_1.png"" class=""exp-image"">
                    <div class=""question-area""></div> 
                </div>","null","","","","","","","","","","","",""
"","","","","","html-button-response","60","244499","0.0-60.0","3848D5FCACAF4CE2ABFE83A9334B7E62","019cfc84-b852-79d2-9d61-34d8aa913f56","019cfc7b-6c7b-7b1b-afe7-acad8efc6711","","791","
                <div class=""stimulus-container"">
                    <img src=""images/schematic_sequence/restaurant_scheme/restaurant_scheme_1.png"" class=""exp-image"">
                    <div class=""question-area"">
                        <p style=""font-size: 20px; font-weight: bold; margin: 0;"">Is there a person in this image?</p>
                    </div>
                </div>","0","main_experiment_trial","1","restaurant_scheme","schematic_sequence","chronological","","","","","","",""
"","","","","","html-keyboard-response","61","249508","0.0-61.0","3848D5FCACAF4CE2ABFE83A9334B7E62","019cfc84-b852-79d2-9d61-34d8aa913f56","019cfc7b-6c7b-7b1b-afe7-acad8efc6711","","null","
                <div class=""stimulus-container"">
                    <img src=""images/schematic_sequence/restaurant_scheme/restaurant_scheme_2.png"" class=""exp-image"">
                    <div class=""question-area""></div> 
                </div>","null","","","","","","","","","","","",""
"","","","","","html-button-response","62","249923","0.0-62.0","3848D5FCACAF4CE2ABFE83A9334B7E62","019cfc84-b852-79d2-9d61-34d8aa913f56","019cfc7b-6c7b-7b1b-afe7-acad8efc6711","","414","
                <div class=""stimulus-container"">
                    <img src=""images/schematic_sequence/restaurant_scheme/restaurant_scheme_2.png"" class=""exp-image"">
                    <div class=""question-area"">
                        <p style=""font-size: 20px; font-weight: bold; margin: 0;"">Is there a person in this image?</p>
                    </div>
                </div>","1","main_experiment_trial","2","restaurant_scheme","schematic_sequence","chronological","","","","","","",""
"","","","","","html-keyboard-response","63","254939","0.0-63.0","3848D5FCACAF4CE2ABFE83A9334B7E62","019cfc84-b852-79d2-9d61-34d8aa913f56","019cfc7b-6c7b-7b1b-afe7-acad8efc6711","","null","
                <div class=""stimulus-container"">
                    <img src=""images/schematic_sequence/restaurant_scheme/restaurant_scheme_3.png"" class=""exp-image"">
                    <div class=""question-area""></div> 
                </div>","null","","","","","","","","","","","",""
"","","","","","html-button-response","64","255499","0.0-64.0","3848D5FCACAF4CE2ABFE83A9334B7E62","019cfc84-b852-79d2-9d61-34d8aa913f56","019cfc7b-6c7b-7b1b-afe7-acad8efc6711","","559","
                <div class=""stimulus-container"">
                    <img src=""images/schematic_sequence/restaurant_scheme/restaurant_scheme_3.png"" class=""exp-image"">
                    <div class=""question-area"">
                        <p style=""font-size: 20px; font-weight: bold; margin: 0;"">Is there a person in this image?</p>
                    </div>
                </div>","1","main_experiment_trial","3","restaurant_scheme","schematic_sequence","chronological","","","","","","",""
"","","","","","html-keyboard-response","65","260510","0.0-65.0","3848D5FCACAF4CE2ABFE83A9334B7E62","019cfc84-b852-79d2-9d61-34d8aa913f56","019cfc7b-6c7b-7b1b-afe7-acad8efc6711","","null","
                <div class=""stimulus-container"">
                    <img src=""images/schematic_sequence/restaurant_scheme/restaurant_scheme_4.png"" class=""exp-image"">
                    <div class=""question-area""></div> 
                </div>","null","","","","","","","","","","","",""
"","","","","","html-button-response","66","261147","0.0-66.0","3848D5FCACAF4CE2ABFE83A9334B7E62","019cfc84-b852-79d2-9d61-34d8aa913f56","019cfc7b-6c7b-7b1b-afe7-acad8efc6711","","633","
                <div class=""stimulus-container"">
                    <img src=""images/schematic_sequence/restaurant_scheme/restaurant_scheme_4.png"" class=""exp-image"">
                    <div class=""question-area"">
                        <p style=""font-size: 20px; font-weight: bold; margin: 0;"">Is there a person in this image?</p>
                    </div>
                </div>","0","main_experiment_trial","4","restaurant_scheme","schematic_sequence","chronological","","","","","","",""
"","","","","","html-keyboard-response","67","266147","0.0-67.0","3848D5FCACAF4CE2ABFE83A9334B7E62","019cfc84-b852-79d2-9d61-34d8aa913f56","019cfc7b-6c7b-7b1b-afe7-acad8efc6711","","null","
                <div class=""stimulus-container"">
                    <img src=""images/schematic_sequence/restaurant_scheme/restaurant_scheme_5.png"" class=""exp-image"">
                    <div class=""question-area""></div> 
                </div>","null","","","","","","","","","","","",""
"","","","","","html-button-response","68","266628","0.0-68.0","3848D5FCACAF4CE2ABFE83A9334B7E62","019cfc84-b852-79d2-9d61-34d8aa913f56","019cfc7b-6c7b-7b1b-afe7-acad8efc6711","","480","
                <div class=""stimulus-container"">
                    <img src=""images/schematic_sequence/restaurant_scheme/restaurant_scheme_5.png"" class=""exp-image"">
                    <div class=""question-area"">
                        <p style=""font-size: 20px; font-weight: bold; margin: 0;"">Is there a person in this image?</p>
                    </div>
                </div>","0","main_experiment_trial","5","restaurant_scheme","schematic_sequence","chronological","","","","","","",""
"","","","","","html-keyboard-response","69","271641","0.0-69.0","3848D5FCACAF4CE2ABFE83A9334B7E62","019cfc84-b852-79d2-9d61-34d8aa913f56","019cfc7b-6c7b-7b1b-afe7-acad8efc6711","","null","
                <div class=""stimulus-container"">
                    <img src=""images/schematic_sequence/restaurant_scheme/restaurant_scheme_6.png"" class=""exp-image"">
                    <div class=""question-area""></div> 
                </div>","null","","","","","","","","","","","",""
"","","","","","html-button-response","70","272307","0.0-70.0","3848D5FCACAF4CE2ABFE83A9334B7E62","019cfc84-b852-79d2-9d61-34d8aa913f56","019cfc7b-6c7b-7b1b-afe7-acad8efc6711","","665","
                <div class=""stimulus-container"">
                    <img src=""images/schematic_sequence/restaurant_scheme/restaurant_scheme_6.png"" class=""exp-image"">
                    <div class=""question-area"">
                        <p style=""font-size: 20px; font-weight: bold; margin: 0;"">Is there a person in this image?</p>
                    </div>
                </div>","1","main_experiment_trial","6","restaurant_scheme","schematic_sequence","chronological","","","","","","",""
"","","","","","html-keyboard-response","71","277308","0.0-71.0","3848D5FCACAF4CE2ABFE83A9334B7E62","019cfc84-b852-79d2-9d61-34d8aa913f56","019cfc7b-6c7b-7b1b-afe7-acad8efc6711","","null","
                <div class=""stimulus-container"">
                    <img src=""images/schematic_sequence/restaurant_scheme/restaurant_scheme_7.png"" class=""exp-image"">
                    <div class=""question-area""></div> 
                </div>","null","","","","","","","","","","","",""
"","","","","","html-button-response","72","277691","0.0-72.0","3848D5FCACAF4CE2ABFE83A9334B7E62","019cfc84-b852-79d2-9d61-34d8aa913f56","019cfc7b-6c7b-7b1b-afe7-acad8efc6711","","382","
                <div class=""stimulus-container"">
                    <img src=""images/schematic_sequence/restaurant_scheme/restaurant_scheme_7.png"" class=""exp-image"">
                    <div class=""question-area"">
                        <p style=""font-size: 20px; font-weight: bold; margin: 0;"">Is there a person in this image?</p>
                    </div>
                </div>","1","main_experiment_trial","7","restaurant_scheme","schematic_sequence","chronological","","","","","","",""
"","","","","","html-keyboard-response","73","282696","0.0-73.0","3848D5FCACAF4CE2ABFE83A9334B7E62","019cfc84-b852-79d2-9d61-34d8aa913f56","019cfc7b-6c7b-7b1b-afe7-acad8efc6711","","null","
                <div class=""stimulus-container"">
                    <img src=""images/schematic_sequence/restaurant_scheme/restaurant_scheme_8.png"" class=""exp-image"">
                    <div class=""question-area""></div> 
                </div>","null","","","","","","","","","","","",""
"","","","","","html-button-response","74","284731","0.0-74.0","3848D5FCACAF4CE2ABFE83A9334B7E62","019cfc84-b852-79d2-9d61-34d8aa913f56","019cfc7b-6c7b-7b1b-afe7-acad8efc6711","","2034","
                <div class=""stimulus-container"">
                    <img src=""images/schematic_sequence/restaurant_scheme/restaurant_scheme_8.png"" class=""exp-image"">
                    <div class=""question-area"">
                        <p style=""font-size: 20px; font-weight: bold; margin: 0;"">Is there a person in this image?</p>
                    </div>
                </div>","0","main_experiment_trial","8","restaurant_scheme","schematic_sequence","chronological","","","","","","",""
"","","","","","html-keyboard-response","75","289744","0.0-75.0","3848D5FCACAF4CE2ABFE83A9334B7E62","019cfc84-b852-79d2-9d61-34d8aa913f56","019cfc7b-6c7b-7b1b-afe7-acad8efc6711","","null","
                <div class=""stimulus-container"">
                    <img src=""images/schematic_sequence/restaurant_scheme/restaurant_scheme_9.png"" class=""exp-image"">
                    <div class=""question-area""></div> 
                </div>","null","","","","","","","","","","","",""
"","","","","","html-button-response","76","290475","0.0-76.0","3848D5FCACAF4CE2ABFE83A9334B7E62","019cfc84-b852-79d2-9d61-34d8aa913f56","019cfc7b-6c7b-7b1b-afe7-acad8efc6711","","729","
                <div class=""stimulus-container"">
                    <img src=""images/schematic_sequence/restaurant_scheme/restaurant_scheme_9.png"" class=""exp-image"">
                    <div class=""question-area"">
                        <p style=""font-size: 20px; font-weight: bold; margin: 0;"">Is there a person in this image?</p>
                    </div>
                </div>","0","main_experiment_trial","9","restaurant_scheme","schematic_sequence","chronological","","","","","","",""
"","","","","","html-keyboard-response","77","295479","0.0-77.0","3848D5FCACAF4CE2ABFE83A9334B7E62","019cfc84-b852-79d2-9d61-34d8aa913f56","019cfc7b-6c7b-7b1b-afe7-acad8efc6711","","null","
                <div class=""stimulus-container"">
                    <img src=""images/schematic_sequence/restaurant_scheme/restaurant_scheme_ten.png"" class=""exp-image"">
                    <div class=""question-area""></div> 
                </div>","null","","","","","","","","","","","",""
"","","","","","html-button-response","78","296139","0.0-78.0","3848D5FCACAF4CE2ABFE83A9334B7E62","019cfc84-b852-79d2-9d61-34d8aa913f56","019cfc7b-6c7b-7b1b-afe7-acad8efc6711","","659","
                <div class=""stimulus-container"">
                    <img src=""images/schematic_sequence/restaurant_scheme/restaurant_scheme_ten.png"" class=""exp-image"">
                    <div class=""question-area"">
                        <p style=""font-size: 20px; font-weight: bold; margin: 0;"">Is there a person in this image?</p>
                    </div>
                </div>","0","main_experiment_trial","ten","restaurant_scheme","schematic_sequence","chronological","","","","","","",""
"","","","","","html-keyboard-response","79","301149","0.0-79.0","3848D5FCACAF4CE2ABFE83A9334B7E62","019cfc84-b852-79d2-9d61-34d8aa913f56","019cfc7b-6c7b-7b1b-afe7-acad8efc6711","","null","<div style=""background-color: white; width: 100vw; height: 100vh;""></div>","null","","","","","","","","","","","",""
"","","","","","html-keyboard-response","80","306155","0.0-80.0","3848D5FCACAF4CE2ABFE83A9334B7E62","019cfc84-b852-79d2-9d61-34d8aa913f56","019cfc7b-6c7b-7b1b-afe7-acad8efc6711","","null","
                <div class=""stimulus-container"">
                    <img src=""images/semantic_sequence/physical_activity_semantic/physical_activity_semantic_1.png"" class=""exp-image"">
                    <div class=""question-area""></div> 
                </div>","null","","","","","","","","","","","",""
"","","","","","html-button-response","81","306699","0.0-81.0","3848D5FCACAF4CE2ABFE83A9334B7E62","019cfc84-b852-79d2-9d61-34d8aa913f56","019cfc7b-6c7b-7b1b-afe7-acad8efc6711","","543","
                <div class=""stimulus-container"">
                    <img src=""images/semantic_sequence/physical_activity_semantic/physical_activity_semantic_1.png"" class=""exp-image"">
                    <div class=""question-area"">
                        <p style=""font-size: 20px; font-weight: bold; margin: 0;"">Is there a person in this image?</p>
                    </div>
                </div>","0","main_experiment_trial","1","physical_activity_semantic","semantic_sequence","chronological","","","","","","",""
"","","","","","html-keyboard-response","82","311712","0.0-82.0","3848D5FCACAF4CE2ABFE83A9334B7E62","019cfc84-b852-79d2-9d61-34d8aa913f56","019cfc7b-6c7b-7b1b-afe7-acad8efc6711","","null","
                <div class=""stimulus-container"">
                    <img src=""images/semantic_sequence/physical_activity_semantic/physical_activity_semantic_2.png"" class=""exp-image"">
                    <div class=""question-area""></div> 
                </div>","null","","","","","","","","","","","",""
"","","","","","html-button-response","83","312147","0.0-83.0","3848D5FCACAF4CE2ABFE83A9334B7E62","019cfc84-b852-79d2-9d61-34d8aa913f56","019cfc7b-6c7b-7b1b-afe7-acad8efc6711","","434","
                <div class=""stimulus-container"">
                    <img src=""images/semantic_sequence/physical_activity_semantic/physical_activity_semantic_2.png"" class=""exp-image"">
                    <div class=""question-area"">
                        <p style=""font-size: 20px; font-weight: bold; margin: 0;"">Is there a person in this image?</p>
                    </div>
                </div>","0","main_experiment_trial","2","physical_activity_semantic","semantic_sequence","chronological","","","","","","",""
"","","","","","html-keyboard-response","84","317157","0.0-84.0","3848D5FCACAF4CE2ABFE83A9334B7E62","019cfc84-b852-79d2-9d61-34d8aa913f56","019cfc7b-6c7b-7b1b-afe7-acad8efc6711","","null","
                <div class=""stimulus-container"">
                    <img src=""images/semantic_sequence/physical_activity_semantic/physical_activity_semantic_3.png"" class=""exp-image"">
                    <div class=""question-area""></div> 
                </div>","null","","","","","","","","","","","",""
"","","","","","html-button-response","85","317530","0.0-85.0","3848D5FCACAF4CE2ABFE83A9334B7E62","019cfc84-b852-79d2-9d61-34d8aa913f56","019cfc7b-6c7b-7b1b-afe7-acad8efc6711","","373","
                <div class=""stimulus-container"">
                    <img src=""images/semantic_sequence/physical_activity_semantic/physical_activity_semantic_3.png"" class=""exp-image"">
                    <div class=""question-area"">
                        <p style=""font-size: 20px; font-weight: bold; margin: 0;"">Is there a person in this image?</p>
                    </div>
                </div>","0","main_experiment_trial","3","physical_activity_semantic","semantic_sequence","chronological","","","","","","",""
"","","","","","html-keyboard-response","86","322542","0.0-86.0","3848D5FCACAF4CE2ABFE83A9334B7E62","019cfc84-b852-79d2-9d61-34d8aa913f56","019cfc7b-6c7b-7b1b-afe7-acad8efc6711","","null","
                <div class=""stimulus-container"">
                    <img src=""images/semantic_sequence/physical_activity_semantic/physical_activity_semantic_4.png"" class=""exp-image"">
                    <div class=""question-area""></div> 
                </div>","null","","","","","","","","","","","",""
"","","","","","html-button-response","87","322954","0.0-87.0","3848D5FCACAF4CE2ABFE83A9334B7E62","019cfc84-b852-79d2-9d61-34d8aa913f56","019cfc7b-6c7b-7b1b-afe7-acad8efc6711","","412","
                <div class=""stimulus-container"">
                    <img src=""images/semantic_sequence/physical_activity_semantic/physical_activity_semantic_4.png"" class=""exp-image"">
                    <div class=""question-area"">
                        <p style=""font-size: 20px; font-weight: bold; margin: 0;"">Is there a person in this image?</p>
                    </div>
                </div>","0","main_experiment_trial","4","physical_activity_semantic","semantic_sequence","chronological","","","","","","",""
"","","","","","html-keyboard-response","88","327957","0.0-88.0","3848D5FCACAF4CE2ABFE83A9334B7E62","019cfc84-b852-79d2-9d61-34d8aa913f56","019cfc7b-6c7b-7b1b-afe7-acad8efc6711","","null","
                <div class=""stimulus-container"">
                    <img src=""images/semantic_sequence/physical_activity_semantic/physical_activity_semantic_5.png"" class=""exp-image"">
                    <div class=""question-area""></div> 
                </div>","null","","","","","","","","","","","",""
"","","","","","html-button-response","89","328787","0.0-89.0","3848D5FCACAF4CE2ABFE83A9334B7E62","019cfc84-b852-79d2-9d61-34d8aa913f56","019cfc7b-6c7b-7b1b-afe7-acad8efc6711","","829","
                <div class=""stimulus-container"">
                    <img src=""images/semantic_sequence/physical_activity_semantic/physical_activity_semantic_5.png"" class=""exp-image"">
                    <div class=""question-area"">
                        <p style=""font-size: 20px; font-weight: bold; margin: 0;"">Is there a person in this image?</p>
                    </div>
                </div>","0","main_experiment_trial","5","physical_activity_semantic","semantic_sequence","chronological","","","","","","",""
"","","","","","html-keyboard-response","90","333795","0.0-90.0","3848D5FCACAF4CE2ABFE83A9334B7E62","019cfc84-b852-79d2-9d61-34d8aa913f56","019cfc7b-6c7b-7b1b-afe7-acad8efc6711","","null","
                <div class=""stimulus-container"">
                    <img src=""images/semantic_sequence/physical_activity_semantic/physical_activity_semantic_6.png"" class=""exp-image"">
                    <div class=""question-area""></div> 
                </div>","null","","","","","","","","","","","",""
"","","","","","html-button-response","91","336801","0.0-91.0","3848D5FCACAF4CE2ABFE83A9334B7E62","019cfc84-b852-79d2-9d61-34d8aa913f56","019cfc7b-6c7b-7b1b-afe7-acad8efc6711","","null","
                <div class=""stimulus-container"">
                    <img src=""images/semantic_sequence/physical_activity_semantic/physical_activity_semantic_6.png"" class=""exp-image"">
                    <div class=""question-area"">
                        <p style=""font-size: 20px; font-weight: bold; margin: 0;"">Is there a person in this image?</p>
                    </div>
                </div>","null","main_experiment_trial","6","physical_activity_semantic","semantic_sequence","chronological","","","","","","",""
"","","","","","html-keyboard-response","92","341810","0.0-92.0","3848D5FCACAF4CE2ABFE83A9334B7E62","019cfc84-b852-79d2-9d61-34d8aa913f56","019cfc7b-6c7b-7b1b-afe7-acad8efc6711","","null","
                <div class=""stimulus-container"">
                    <img src=""images/semantic_sequence/physical_activity_semantic/physical_activity_semantic_7.png"" class=""exp-image"">
                    <div class=""question-area""></div> 
                </div>","null","","","","","","","","","","","",""
"","","","","","html-button-response","93","342402","0.0-93.0","3848D5FCACAF4CE2ABFE83A9334B7E62","019cfc84-b852-79d2-9d61-34d8aa913f56","019cfc7b-6c7b-7b1b-afe7-acad8efc6711","","592","
                <div class=""stimulus-container"">
                    <img src=""images/semantic_sequence/physical_activity_semantic/physical_activity_semantic_7.png"" class=""exp-image"">
                    <div class=""question-area"">
                        <p style=""font-size: 20px; font-weight: bold; margin: 0;"">Is there a person in this image?</p>
                    </div>
                </div>","0","main_experiment_trial","7","physical_activity_semantic","semantic_sequence","chronological","","","","","","",""
"","","","","","html-keyboard-response","94","347414","0.0-94.0","3848D5FCACAF4CE2ABFE83A9334B7E62","019cfc84-b852-79d2-9d61-34d8aa913f56","019cfc7b-6c7b-7b1b-afe7-acad8efc6711","","null","
                <div class=""stimulus-container"">
                    <img src=""images/semantic_sequence/physical_activity_semantic/physical_activity_semantic_8.png"" class=""exp-image"">
                    <div class=""question-area""></div> 
                </div>","null","","","","","","","","","","","",""
"","","","","","html-button-response","95","347867","0.0-95.0","3848D5FCACAF4CE2ABFE83A9334B7E62","019cfc84-b852-79d2-9d61-34d8aa913f56","019cfc7b-6c7b-7b1b-afe7-acad8efc6711","","451","
                <div class=""stimulus-container"">
                    <img src=""images/semantic_sequence/physical_activity_semantic/physical_activity_semantic_8.png"" class=""exp-image"">
                    <div class=""question-area"">
                        <p style=""font-size: 20px; font-weight: bold; margin: 0;"">Is there a person in this image?</p>
                    </div>
                </div>","0","main_experiment_trial","8","physical_activity_semantic","semantic_sequence","chronological","","","","","","",""
"","","","","","html-keyboard-response","96","352880","0.0-96.0","3848D5FCACAF4CE2ABFE83A9334B7E62","019cfc84-b852-79d2-9d61-34d8aa913f56","019cfc7b-6c7b-7b1b-afe7-acad8efc6711","","null","
                <div class=""stimulus-container"">
                    <img src=""images/semantic_sequence/physical_activity_semantic/physical_activity_semantic_9.png"" class=""exp-image"">
                    <div class=""question-area""></div> 
                </div>","null","","","","","","","","","","","",""
"","","","","","html-button-response","97","353242","0.0-97.0","3848D5FCACAF4CE2ABFE83A9334B7E62","019cfc84-b852-79d2-9d61-34d8aa913f56","019cfc7b-6c7b-7b1b-afe7-acad8efc6711","","361","
                <div class=""stimulus-container"">
                    <img src=""images/semantic_sequence/physical_activity_semantic/physical_activity_semantic_9.png"" class=""exp-image"">
                    <div class=""question-area"">
                        <p style=""font-size: 20px; font-weight: bold; margin: 0;"">Is there a person in this image?</p>
                    </div>
                </div>","0","main_experiment_trial","9","physical_activity_semantic","semantic_sequence","chronological","","","","","","",""
"","","","","","html-keyboard-response","98","358251","0.0-98.0","3848D5FCACAF4CE2ABFE83A9334B7E62","019cfc84-b852-79d2-9d61-34d8aa913f56","019cfc7b-6c7b-7b1b-afe7-acad8efc6711","","null","
                <div class=""stimulus-container"">
                    <img src=""images/semantic_sequence/physical_activity_semantic/physical_activity_semantic_ten.png"" class=""exp-image"">
                    <div class=""question-area""></div> 
                </div>","null","","","","","","","","","","","",""
"","","","","","html-button-response","99","358586","0.0-99.0","3848D5FCACAF4CE2ABFE83A9334B7E62","019cfc84-b852-79d2-9d61-34d8aa913f56","019cfc7b-6c7b-7b1b-afe7-acad8efc6711","","335","
                <div class=""stimulus-container"">
                    <img src=""images/semantic_sequence/physical_activity_semantic/physical_activity_semantic_ten.png"" class=""exp-image"">
                    <div class=""question-area"">
                        <p style=""font-size: 20px; font-weight: bold; margin: 0;"">Is there a person in this image?</p>
                    </div>
                </div>","0","main_experiment_trial","ten","physical_activity_semantic","semantic_sequence","chronological","","","","","","",""
"","","","","","html-keyboard-response","100","363590","0.0-100.0","3848D5FCACAF4CE2ABFE83A9334B7E62","019cfc84-b852-79d2-9d61-34d8aa913f56","019cfc7b-6c7b-7b1b-afe7-acad8efc6711","","null","<div style=""background-color: white; width: 100vw; height: 100vh;""></div>","null","","","","","","","","","","","",""
"","","","","","html-keyboard-response","101","368600","0.0-101.0","3848D5FCACAF4CE2ABFE83A9334B7E62","019cfc84-b852-79d2-9d61-34d8aa913f56","019cfc7b-6c7b-7b1b-afe7-acad8efc6711","","null","
                <div class=""stimulus-container"">
                    <img src=""images/schematic_sequence/interview_scheme/interview_scheme_1.png"" class=""exp-image"">
                    <div class=""question-area""></div> 
                </div>","null","","","","","","","","","","","",""
"","","","","","html-button-response","102","369266","0.0-102.0","3848D5FCACAF4CE2ABFE83A9334B7E62","019cfc84-b852-79d2-9d61-34d8aa913f56","019cfc7b-6c7b-7b1b-afe7-acad8efc6711","","665","
                <div class=""stimulus-container"">
                    <img src=""images/schematic_sequence/interview_scheme/interview_scheme_1.png"" class=""exp-image"">
                    <div class=""question-area"">
                        <p style=""font-size: 20px; font-weight: bold; margin: 0;"">Is there a person in this image?</p>
                    </div>
                </div>","1","main_experiment_trial","1","interview_scheme","schematic_sequence","chronological","","","","","","",""
"","","","","","html-keyboard-response","103","374283","0.0-103.0","3848D5FCACAF4CE2ABFE83A9334B7E62","019cfc84-b852-79d2-9d61-34d8aa913f56","019cfc7b-6c7b-7b1b-afe7-acad8efc6711","","null","
                <div class=""stimulus-container"">
                    <img src=""images/schematic_sequence/interview_scheme/interview_scheme_2.png"" class=""exp-image"">
                    <div class=""question-area""></div> 
                </div>","null","","","","","","","","","","","",""
"","","","","","html-button-response","104","374706","0.0-104.0","3848D5FCACAF4CE2ABFE83A9334B7E62","019cfc84-b852-79d2-9d61-34d8aa913f56","019cfc7b-6c7b-7b1b-afe7-acad8efc6711","","422","
                <div class=""stimulus-container"">
                    <img src=""images/schematic_sequence/interview_scheme/interview_scheme_2.png"" class=""exp-image"">
                    <div class=""question-area"">
                        <p style=""font-size: 20px; font-weight: bold; margin: 0;"">Is there a person in this image?</p>
                    </div>
                </div>","1","main_experiment_trial","2","interview_scheme","schematic_sequence","chronological","","","","","","",""
"","","","","","html-keyboard-response","105","379713","0.0-105.0","3848D5FCACAF4CE2ABFE83A9334B7E62","019cfc84-b852-79d2-9d61-34d8aa913f56","019cfc7b-6c7b-7b1b-afe7-acad8efc6711","","null","
                <div class=""stimulus-container"">
                    <img src=""images/schematic_sequence/interview_scheme/interview_scheme_3.png"" class=""exp-image"">
                    <div class=""question-area""></div> 
                </div>","null","","","","","","","","","","","",""
"","","","","","html-button-response","106","380275","0.0-106.0","3848D5FCACAF4CE2ABFE83A9334B7E62","019cfc84-b852-79d2-9d61-34d8aa913f56","019cfc7b-6c7b-7b1b-afe7-acad8efc6711","","561","
                <div class=""stimulus-container"">
                    <img src=""images/schematic_sequence/interview_scheme/interview_scheme_3.png"" class=""exp-image"">
                    <div class=""question-area"">
                        <p style=""font-size: 20px; font-weight: bold; margin: 0;"">Is there a person in this image?</p>
                    </div>
                </div>","1","main_experiment_trial","3","interview_scheme","schematic_sequence","chronological","","","","","","",""
"","","","","","html-keyboard-response","107","385287","0.0-107.0","3848D5FCACAF4CE2ABFE83A9334B7E62","019cfc84-b852-79d2-9d61-34d8aa913f56","019cfc7b-6c7b-7b1b-afe7-acad8efc6711","","null","
                <div class=""stimulus-container"">
                    <img src=""images/schematic_sequence/interview_scheme/interview_scheme_4.png"" class=""exp-image"">
                    <div class=""question-area""></div> 
                </div>","null","","","","","","","","","","","",""
"","","","","","html-button-response","108","385962","0.0-108.0","3848D5FCACAF4CE2ABFE83A9334B7E62","019cfc84-b852-79d2-9d61-34d8aa913f56","019cfc7b-6c7b-7b1b-afe7-acad8efc6711","","675","
                <div class=""stimulus-container"">
                    <img src=""images/schematic_sequence/interview_scheme/interview_scheme_4.png"" class=""exp-image"">
                    <div class=""question-area"">
                        <p style=""font-size: 20px; font-weight: bold; margin: 0;"">Is there a person in this image?</p>
                    </div>
                </div>","1","main_experiment_trial","4","interview_scheme","schematic_sequence","chronological","","","","","","",""
"","","","","","html-keyboard-response","109","390969","0.0-109.0","3848D5FCACAF4CE2ABFE83A9334B7E62","019cfc84-b852-79d2-9d61-34d8aa913f56","019cfc7b-6c7b-7b1b-afe7-acad8efc6711","","null","
                <div class=""stimulus-container"">
                    <img src=""images/schematic_sequence/interview_scheme/interview_scheme_5.png"" class=""exp-image"">
                    <div class=""question-area""></div> 
                </div>","null","","","","","","","","","","","",""
"","","","","","html-button-response","110","392178","0.0-110.0","3848D5FCACAF4CE2ABFE83A9334B7E62","019cfc84-b852-79d2-9d61-34d8aa913f56","019cfc7b-6c7b-7b1b-afe7-acad8efc6711","","1209","
                <div class=""stimulus-container"">
                    <img src=""images/schematic_sequence/interview_scheme/interview_scheme_5.png"" class=""exp-image"">
                    <div class=""question-area"">
                        <p style=""font-size: 20px; font-weight: bold; margin: 0;"">Is there a person in this image?</p>
                    </div>
                </div>","0","main_experiment_trial","5","interview_scheme","schematic_sequence","chronological","","","","","","",""
"","","","","","html-keyboard-response","111","397183","0.0-111.0","3848D5FCACAF4CE2ABFE83A9334B7E62","019cfc84-b852-79d2-9d61-34d8aa913f56","019cfc7b-6c7b-7b1b-afe7-acad8efc6711","","null","
                <div class=""stimulus-container"">
                    <img src=""images/schematic_sequence/interview_scheme/interview_scheme_6.png"" class=""exp-image"">
                    <div class=""question-area""></div> 
                </div>","null","","","","","","","","","","","",""
"","","","","","html-button-response","112","397746","0.0-112.0","3848D5FCACAF4CE2ABFE83A9334B7E62","019cfc84-b852-79d2-9d61-34d8aa913f56","019cfc7b-6c7b-7b1b-afe7-acad8efc6711","","562","
                <div class=""stimulus-container"">
                    <img src=""images/schematic_sequence/interview_scheme/interview_scheme_6.png"" class=""exp-image"">
                    <div class=""question-area"">
                        <p style=""font-size: 20px; font-weight: bold; margin: 0;"">Is there a person in this image?</p>
                    </div>
                </div>","0","main_experiment_trial","6","interview_scheme","schematic_sequence","chronological","","","","","","",""
"","","","","","html-keyboard-response","113","402757","0.0-113.0","3848D5FCACAF4CE2ABFE83A9334B7E62","019cfc84-b852-79d2-9d61-34d8aa913f56","019cfc7b-6c7b-7b1b-afe7-acad8efc6711","","null","
                <div class=""stimulus-container"">
                    <img src=""images/schematic_sequence/interview_scheme/interview_scheme_7.png"" class=""exp-image"">
                    <div class=""question-area""></div> 
                </div>","null","","","","","","","","","","","",""
"","","","","","html-button-response","114","403218","0.0-114.0","3848D5FCACAF4CE2ABFE83A9334B7E62","019cfc84-b852-79d2-9d61-34d8aa913f56","019cfc7b-6c7b-7b1b-afe7-acad8efc6711","","460","
                <div class=""stimulus-container"">
                    <img src=""images/schematic_sequence/interview_scheme/interview_scheme_7.png"" class=""exp-image"">
                    <div class=""question-area"">
                        <p style=""font-size: 20px; font-weight: bold; margin: 0;"">Is there a person in this image?</p>
                    </div>
                </div>","0","main_experiment_trial","7","interview_scheme","schematic_sequence","chronological","","","","","","",""
"","","","","","html-keyboard-response","115","408220","0.0-115.0","3848D5FCACAF4CE2ABFE83A9334B7E62","019cfc84-b852-79d2-9d61-34d8aa913f56","019cfc7b-6c7b-7b1b-afe7-acad8efc6711","","null","
                <div class=""stimulus-container"">
                    <img src=""images/schematic_sequence/interview_scheme/interview_scheme_8.png"" class=""exp-image"">
                    <div class=""question-area""></div> 
                </div>","null","","","","","","","","","","","",""
"","","","","","html-button-response","116","408714","0.0-116.0","3848D5FCACAF4CE2ABFE83A9334B7E62","019cfc84-b852-79d2-9d61-34d8aa913f56","019cfc7b-6c7b-7b1b-afe7-acad8efc6711","","493","
                <div class=""stimulus-container"">
                    <img src=""images/schematic_sequence/interview_scheme/interview_scheme_8.png"" class=""exp-image"">
                    <div class=""question-area"">
                        <p style=""font-size: 20px; font-weight: bold; margin: 0;"">Is there a person in this image?</p>
                    </div>
                </div>","0","main_experiment_trial","8","interview_scheme","schematic_sequence","chronological","","","","","","",""
"","","","","","html-keyboard-response","117","413730","0.0-117.0","3848D5FCACAF4CE2ABFE83A9334B7E62","019cfc84-b852-79d2-9d61-34d8aa913f56","019cfc7b-6c7b-7b1b-afe7-acad8efc6711","","null","
                <div class=""stimulus-container"">
                    <img src=""images/schematic_sequence/interview_scheme/interview_scheme_9.png"" class=""exp-image"">
                    <div class=""question-area""></div> 
                </div>","null","","","","","","","","","","","",""
"","","","","","html-button-response","118","414178","0.0-118.0","3848D5FCACAF4CE2ABFE83A9334B7E62","019cfc84-b852-79d2-9d61-34d8aa913f56","019cfc7b-6c7b-7b1b-afe7-acad8efc6711","","448","
                <div class=""stimulus-container"">
                    <img src=""images/schematic_sequence/interview_scheme/interview_scheme_9.png"" class=""exp-image"">
                    <div class=""question-area"">
                        <p style=""font-size: 20px; font-weight: bold; margin: 0;"">Is there a person in this image?</p>
                    </div>
                </div>","0","main_experiment_trial","9","interview_scheme","schematic_sequence","chronological","","","","","","",""
"","","","","","html-keyboard-response","119","419193","0.0-119.0","3848D5FCACAF4CE2ABFE83A9334B7E62","019cfc84-b852-79d2-9d61-34d8aa913f56","019cfc7b-6c7b-7b1b-afe7-acad8efc6711","","null","
                <div class=""stimulus-container"">
                    <img src=""images/schematic_sequence/interview_scheme/interview_scheme_ten.png"" class=""exp-image"">
                    <div class=""question-area""></div> 
                </div>","null","","","","","","","","","","","",""
"","","","","","html-button-response","120","419618","0.0-120.0","3848D5FCACAF4CE2ABFE83A9334B7E62","019cfc84-b852-79d2-9d61-34d8aa913f56","019cfc7b-6c7b-7b1b-afe7-acad8efc6711","","424","
                <div class=""stimulus-container"">
                    <img src=""images/schematic_sequence/interview_scheme/interview_scheme_ten.png"" class=""exp-image"">
                    <div class=""question-area"">
                        <p style=""font-size: 20px; font-weight: bold; margin: 0;"">Is there a person in this image?</p>
                    </div>
                </div>","0","main_experiment_trial","ten","interview_scheme","schematic_sequence","chronological","","","","","","",""
"","","","","","html-keyboard-response","121","424624","0.0-121.0","3848D5FCACAF4CE2ABFE83A9334B7E62","019cfc84-b852-79d2-9d61-34d8aa913f56","019cfc7b-6c7b-7b1b-afe7-acad8efc6711","","null","<div style=""background-color: white; width: 100vw; height: 100vh;""></div>","null","","","","","","","","","","","",""
"","","","","","html-keyboard-response","122","429633","0.0-122.0","3848D5FCACAF4CE2ABFE83A9334B7E62","019cfc84-b852-79d2-9d61-34d8aa913f56","019cfc7b-6c7b-7b1b-afe7-acad8efc6711","","null","
                <div class=""stimulus-container"">
                    <img src=""images/causal_sequence/the_performance_causal/the_performance_causal_1.png"" class=""exp-image"">
                    <div class=""question-area""></div> 
                </div>","null","","","","","","","","","","","",""
"","","","","","html-button-response","123","430242","0.0-123.0","3848D5FCACAF4CE2ABFE83A9334B7E62","019cfc84-b852-79d2-9d61-34d8aa913f56","019cfc7b-6c7b-7b1b-afe7-acad8efc6711","","609","
                <div class=""stimulus-container"">
                    <img src=""images/causal_sequence/the_performance_causal/the_performance_causal_1.png"" class=""exp-image"">
                    <div class=""question-area"">
                        <p style=""font-size: 20px; font-weight: bold; margin: 0;"">Is there a person in this image?</p>
                    </div>
                </div>","0","main_experiment_trial","1","the_performance_causal","causal_sequence","chronological","","","","","","",""
"","","","","","html-keyboard-response","124","435253","0.0-124.0","3848D5FCACAF4CE2ABFE83A9334B7E62","019cfc84-b852-79d2-9d61-34d8aa913f56","019cfc7b-6c7b-7b1b-afe7-acad8efc6711","","null","
                <div class=""stimulus-container"">
                    <img src=""images/causal_sequence/the_performance_causal/the_performance_causal_2.png"" class=""exp-image"">
                    <div class=""question-area""></div> 
                </div>","null","","","","","","","","","","","",""
"","","","","","html-button-response","125","435762","0.0-125.0","3848D5FCACAF4CE2ABFE83A9334B7E62","019cfc84-b852-79d2-9d61-34d8aa913f56","019cfc7b-6c7b-7b1b-afe7-acad8efc6711","","508","
                <div class=""stimulus-container"">
                    <img src=""images/causal_sequence/the_performance_causal/the_performance_causal_2.png"" class=""exp-image"">
                    <div class=""question-area"">
                        <p style=""font-size: 20px; font-weight: bold; margin: 0;"">Is there a person in this image?</p>
                    </div>
                </div>","0","main_experiment_trial","2","the_performance_causal","causal_sequence","chronological","","","","","","",""
"","","","","","html-keyboard-response","126","440764","0.0-126.0","3848D5FCACAF4CE2ABFE83A9334B7E62","019cfc84-b852-79d2-9d61-34d8aa913f56","019cfc7b-6c7b-7b1b-afe7-acad8efc6711","","null","
                <div class=""stimulus-container"">
                    <img src=""images/causal_sequence/the_performance_causal/the_performance_causal_3.png"" class=""exp-image"">
                    <div class=""question-area""></div> 
                </div>","null","","","","","","","","","","","",""
"","","","","","html-button-response","127","441114","0.0-127.0","3848D5FCACAF4CE2ABFE83A9334B7E62","019cfc84-b852-79d2-9d61-34d8aa913f56","019cfc7b-6c7b-7b1b-afe7-acad8efc6711","","349","
                <div class=""stimulus-container"">
                    <img src=""images/causal_sequence/the_performance_causal/the_performance_causal_3.png"" class=""exp-image"">
                    <div class=""question-area"">
                        <p style=""font-size: 20px; font-weight: bold; margin: 0;"">Is there a person in this image?</p>
                    </div>
                </div>","0","main_experiment_trial","3","the_performance_causal","causal_sequence","chronological","","","","","","",""
"","","","","","html-keyboard-response","128","446120","0.0-128.0","3848D5FCACAF4CE2ABFE83A9334B7E62","019cfc84-b852-79d2-9d61-34d8aa913f56","019cfc7b-6c7b-7b1b-afe7-acad8efc6711","","null","
                <div class=""stimulus-container"">
                    <img src=""images/causal_sequence/the_performance_causal/the_performance_causal_4.png"" class=""exp-image"">
                    <div class=""question-area""></div> 
                </div>","null","","","","","","","","","","","",""
"","","","","","html-button-response","129","446643","0.0-129.0","3848D5FCACAF4CE2ABFE83A9334B7E62","019cfc84-b852-79d2-9d61-34d8aa913f56","019cfc7b-6c7b-7b1b-afe7-acad8efc6711","","522","
                <div class=""stimulus-container"">
                    <img src=""images/causal_sequence/the_performance_causal/the_performance_causal_4.png"" class=""exp-image"">
                    <div class=""question-area"">
                        <p style=""font-size: 20px; font-weight: bold; margin: 0;"">Is there a person in this image?</p>
                    </div>
                </div>","0","main_experiment_trial","4","the_performance_causal","causal_sequence","chronological","","","","","","",""
"","","","","","html-keyboard-response","130","451645","0.0-130.0","3848D5FCACAF4CE2ABFE83A9334B7E62","019cfc84-b852-79d2-9d61-34d8aa913f56","019cfc7b-6c7b-7b1b-afe7-acad8efc6711","","null","
                <div class=""stimulus-container"">
                    <img src=""images/causal_sequence/the_performance_causal/the_performance_causal_5.png"" class=""exp-image"">
                    <div class=""question-area""></div> 
                </div>","null","","","","","","","","","","","",""
"","","","","","html-button-response","131","452082","0.0-131.0","3848D5FCACAF4CE2ABFE83A9334B7E62","019cfc84-b852-79d2-9d61-34d8aa913f56","019cfc7b-6c7b-7b1b-afe7-acad8efc6711","","436","
                <div class=""stimulus-container"">
                    <img src=""images/causal_sequence/the_performance_causal/the_performance_causal_5.png"" class=""exp-image"">
                    <div class=""question-area"">
                        <p style=""font-size: 20px; font-weight: bold; margin: 0;"">Is there a person in this image?</p>
                    </div>
                </div>","0","main_experiment_trial","5","the_performance_causal","causal_sequence","chronological","","","","","","",""
"","","","","","html-keyboard-response","132","457092","0.0-132.0","3848D5FCACAF4CE2ABFE83A9334B7E62","019cfc84-b852-79d2-9d61-34d8aa913f56","019cfc7b-6c7b-7b1b-afe7-acad8efc6711","","null","
                <div class=""stimulus-container"">
                    <img src=""images/causal_sequence/the_performance_causal/the_performance_causal_6.png"" class=""exp-image"">
                    <div class=""question-area""></div> 
                </div>","null","","","","","","","","","","","",""
"","","","","","html-button-response","133","458538","0.0-133.0","3848D5FCACAF4CE2ABFE83A9334B7E62","019cfc84-b852-79d2-9d61-34d8aa913f56","019cfc7b-6c7b-7b1b-afe7-acad8efc6711","","1445","
                <div class=""stimulus-container"">
                    <img src=""images/causal_sequence/the_performance_causal/the_performance_causal_6.png"" class=""exp-image"">
                    <div class=""question-area"">
                        <p style=""font-size: 20px; font-weight: bold; margin: 0;"">Is there a person in this image?</p>
                    </div>
                </div>","0","main_experiment_trial","6","the_performance_causal","causal_sequence","chronological","","","","","","",""
"","","","","","html-keyboard-response","134","463541","0.0-134.0","3848D5FCACAF4CE2ABFE83A9334B7E62","019cfc84-b852-79d2-9d61-34d8aa913f56","019cfc7b-6c7b-7b1b-afe7-acad8efc6711","","null","
                <div class=""stimulus-container"">
                    <img src=""images/causal_sequence/the_performance_causal/the_performance_causal_7.png"" class=""exp-image"">
                    <div class=""question-area""></div> 
                </div>","null","","","","","","","","","","","",""
"","","","","","html-button-response","135","464186","0.0-135.0","3848D5FCACAF4CE2ABFE83A9334B7E62","019cfc84-b852-79d2-9d61-34d8aa913f56","019cfc7b-6c7b-7b1b-afe7-acad8efc6711","","644","
                <div class=""stimulus-container"">
                    <img src=""images/causal_sequence/the_performance_causal/the_performance_causal_7.png"" class=""exp-image"">
                    <div class=""question-area"">
                        <p style=""font-size: 20px; font-weight: bold; margin: 0;"">Is there a person in this image?</p>
                    </div>
                </div>","0","main_experiment_trial","7","the_performance_causal","causal_sequence","chronological","","","","","","",""
"","","","","","html-keyboard-response","136","469190","0.0-136.0","3848D5FCACAF4CE2ABFE83A9334B7E62","019cfc84-b852-79d2-9d61-34d8aa913f56","019cfc7b-6c7b-7b1b-afe7-acad8efc6711","","null","
                <div class=""stimulus-container"">
                    <img src=""images/causal_sequence/the_performance_causal/the_performance_causal_8.png"" class=""exp-image"">
                    <div class=""question-area""></div> 
                </div>","null","","","","","","","","","","","",""
"","","","","","html-button-response","137","469602","0.0-137.0","3848D5FCACAF4CE2ABFE83A9334B7E62","019cfc84-b852-79d2-9d61-34d8aa913f56","019cfc7b-6c7b-7b1b-afe7-acad8efc6711","","411","
                <div class=""stimulus-container"">
                    <img src=""images/causal_sequence/the_performance_causal/the_performance_causal_8.png"" class=""exp-image"">
                    <div class=""question-area"">
                        <p style=""font-size: 20px; font-weight: bold; margin: 0;"">Is there a person in this image?</p>
                    </div>
                </div>","0","main_experiment_trial","8","the_performance_causal","causal_sequence","chronological","","","","","","",""
"","","","","","html-keyboard-response","138","474605","0.0-138.0","3848D5FCACAF4CE2ABFE83A9334B7E62","019cfc84-b852-79d2-9d61-34d8aa913f56","019cfc7b-6c7b-7b1b-afe7-acad8efc6711","","null","
                <div class=""stimulus-container"">
                    <img src=""images/causal_sequence/the_performance_causal/the_performance_causal_9.png"" class=""exp-image"">
                    <div class=""question-area""></div> 
                </div>","null","","","","","","","","","","","",""
"","","","","","html-button-response","139","475034","0.0-139.0","3848D5FCACAF4CE2ABFE83A9334B7E62","019cfc84-b852-79d2-9d61-34d8aa913f56","019cfc7b-6c7b-7b1b-afe7-acad8efc6711","","429","
                <div class=""stimulus-container"">
                    <img src=""images/causal_sequence/the_performance_causal/the_performance_causal_9.png"" class=""exp-image"">
                    <div class=""question-area"">
                        <p style=""font-size: 20px; font-weight: bold; margin: 0;"">Is there a person in this image?</p>
                    </div>
                </div>","0","main_experiment_trial","9","the_performance_causal","causal_sequence","chronological","","","","","","",""
"","","","","","html-keyboard-response","140","480037","0.0-140.0","3848D5FCACAF4CE2ABFE83A9334B7E62","019cfc84-b852-79d2-9d61-34d8aa913f56","019cfc7b-6c7b-7b1b-afe7-acad8efc6711","","null","
                <div class=""stimulus-container"">
                    <img src=""images/causal_sequence/the_performance_causal/the_performance_causal_ten.png"" class=""exp-image"">
                    <div class=""question-area""></div> 
                </div>","null","","","","","","","","","","","",""
"","","","","","html-button-response","141","480434","0.0-141.0","3848D5FCACAF4CE2ABFE83A9334B7E62","019cfc84-b852-79d2-9d61-34d8aa913f56","019cfc7b-6c7b-7b1b-afe7-acad8efc6711","","396","
                <div class=""stimulus-container"">
                    <img src=""images/causal_sequence/the_performance_causal/the_performance_causal_ten.png"" class=""exp-image"">
                    <div class=""question-area"">
                        <p style=""font-size: 20px; font-weight: bold; margin: 0;"">Is there a person in this image?</p>
                    </div>
                </div>","0","main_experiment_trial","ten","the_performance_causal","causal_sequence","chronological","","","","","","",""
"","","","","","html-keyboard-response","142","485437","0.0-142.0","3848D5FCACAF4CE2ABFE83A9334B7E62","019cfc84-b852-79d2-9d61-34d8aa913f56","019cfc7b-6c7b-7b1b-afe7-acad8efc6711","","null","<div style=""background-color: white; width: 100vw; height: 100vh;""></div>","null","","","","","","","","","","","",""
"","","","","","html-keyboard-response","143","490446","0.0-143.0","3848D5FCACAF4CE2ABFE83A9334B7E62","019cfc84-b852-79d2-9d61-34d8aa913f56","019cfc7b-6c7b-7b1b-afe7-acad8efc6711","","null","
                <div class=""stimulus-container"">
                    <img src=""images/causal_sequence/saving_a_cat_causal/saving_a_cat_causal_1.png"" class=""exp-image"">
                    <div class=""question-area""></div> 
                </div>","null","","","","","","","","","","","",""
"","","","","","html-button-response","144","491114","0.0-144.0","3848D5FCACAF4CE2ABFE83A9334B7E62","019cfc84-b852-79d2-9d61-34d8aa913f56","019cfc7b-6c7b-7b1b-afe7-acad8efc6711","","668","
                <div class=""stimulus-container"">
                    <img src=""images/causal_sequence/saving_a_cat_causal/saving_a_cat_causal_1.png"" class=""exp-image"">
                    <div class=""question-area"">
                        <p style=""font-size: 20px; font-weight: bold; margin: 0;"">Is there a person in this image?</p>
                    </div>
                </div>","0","main_experiment_trial","1","saving_a_cat_causal","causal_sequence","chronological","","","","","","",""
"","","","","","html-keyboard-response","145","496125","0.0-145.0","3848D5FCACAF4CE2ABFE83A9334B7E62","019cfc84-b852-79d2-9d61-34d8aa913f56","019cfc7b-6c7b-7b1b-afe7-acad8efc6711","","null","
                <div class=""stimulus-container"">
                    <img src=""images/causal_sequence/saving_a_cat_causal/saving_a_cat_causal_2.png"" class=""exp-image"">
                    <div class=""question-area""></div> 
                </div>","null","","","","","","","","","","","",""
"","","","","","html-button-response","146","497010","0.0-146.0","3848D5FCACAF4CE2ABFE83A9334B7E62","019cfc84-b852-79d2-9d61-34d8aa913f56","019cfc7b-6c7b-7b1b-afe7-acad8efc6711","","885","
                <div class=""stimulus-container"">
                    <img src=""images/causal_sequence/saving_a_cat_causal/saving_a_cat_causal_2.png"" class=""exp-image"">
                    <div class=""question-area"">
                        <p style=""font-size: 20px; font-weight: bold; margin: 0;"">Is there a person in this image?</p>
                    </div>
                </div>","1","main_experiment_trial","2","saving_a_cat_causal","causal_sequence","chronological","","","","","","",""
"","","","","","html-keyboard-response","147","502012","0.0-147.0","3848D5FCACAF4CE2ABFE83A9334B7E62","019cfc84-b852-79d2-9d61-34d8aa913f56","019cfc7b-6c7b-7b1b-afe7-acad8efc6711","","null","
                <div class=""stimulus-container"">
                    <img src=""images/causal_sequence/saving_a_cat_causal/saving_a_cat_causal_3.png"" class=""exp-image"">
                    <div class=""question-area""></div> 
                </div>","null","","","","","","","","","","","",""
"","","","","","html-button-response","148","502394","0.0-148.0","3848D5FCACAF4CE2ABFE83A9334B7E62","019cfc84-b852-79d2-9d61-34d8aa913f56","019cfc7b-6c7b-7b1b-afe7-acad8efc6711","","381","
                <div class=""stimulus-container"">
                    <img src=""images/causal_sequence/saving_a_cat_causal/saving_a_cat_causal_3.png"" class=""exp-image"">
                    <div class=""question-area"">
                        <p style=""font-size: 20px; font-weight: bold; margin: 0;"">Is there a person in this image?</p>
                    </div>
                </div>","1","main_experiment_trial","3","saving_a_cat_causal","causal_sequence","chronological","","","","","","",""
"","","","","","html-keyboard-response","149","507396","0.0-149.0","3848D5FCACAF4CE2ABFE83A9334B7E62","019cfc84-b852-79d2-9d61-34d8aa913f56","019cfc7b-6c7b-7b1b-afe7-acad8efc6711","","null","
                <div class=""stimulus-container"">
                    <img src=""images/causal_sequence/saving_a_cat_causal/saving_a_cat_causal_4.png"" class=""exp-image"">
                    <div class=""question-area""></div> 
                </div>","null","","","","","","","","","","","",""
"","","","","","html-button-response","150","508058","0.0-150.0","3848D5FCACAF4CE2ABFE83A9334B7E62","019cfc84-b852-79d2-9d61-34d8aa913f56","019cfc7b-6c7b-7b1b-afe7-acad8efc6711","","662","
                <div class=""stimulus-container"">
                    <img src=""images/causal_sequence/saving_a_cat_causal/saving_a_cat_causal_4.png"" class=""exp-image"">
                    <div class=""question-area"">
                        <p style=""font-size: 20px; font-weight: bold; margin: 0;"">Is there a person in this image?</p>
                    </div>
                </div>","0","main_experiment_trial","4","saving_a_cat_causal","causal_sequence","chronological","","","","","","",""
"","","","","","html-keyboard-response","151","513062","0.0-151.0","3848D5FCACAF4CE2ABFE83A9334B7E62","019cfc84-b852-79d2-9d61-34d8aa913f56","019cfc7b-6c7b-7b1b-afe7-acad8efc6711","","null","
                <div class=""stimulus-container"">
                    <img src=""images/causal_sequence/saving_a_cat_causal/saving_a_cat_causal_5.png"" class=""exp-image"">
                    <div class=""question-area""></div> 
                </div>","null","","","","","","","","","","","",""
"","","","","","html-button-response","152","513506","0.0-152.0","3848D5FCACAF4CE2ABFE83A9334B7E62","019cfc84-b852-79d2-9d61-34d8aa913f56","019cfc7b-6c7b-7b1b-afe7-acad8efc6711","","443","
                <div class=""stimulus-container"">
                    <img src=""images/causal_sequence/saving_a_cat_causal/saving_a_cat_causal_5.png"" class=""exp-image"">
                    <div class=""question-area"">
                        <p style=""font-size: 20px; font-weight: bold; margin: 0;"">Is there a person in this image?</p>
                    </div>
                </div>","0","main_experiment_trial","5","saving_a_cat_causal","causal_sequence","chronological","","","","","","",""
"","","","","","html-keyboard-response","153","518511","0.0-153.0","3848D5FCACAF4CE2ABFE83A9334B7E62","019cfc84-b852-79d2-9d61-34d8aa913f56","019cfc7b-6c7b-7b1b-afe7-acad8efc6711","","null","
                <div class=""stimulus-container"">
                    <img src=""images/causal_sequence/saving_a_cat_causal/saving_a_cat_causal_6.png"" class=""exp-image"">
                    <div class=""question-area""></div> 
                </div>","null","","","","","","","","","","","",""
"","","","","","html-button-response","154","519002","0.0-154.0","3848D5FCACAF4CE2ABFE83A9334B7E62","019cfc84-b852-79d2-9d61-34d8aa913f56","019cfc7b-6c7b-7b1b-afe7-acad8efc6711","","490","
                <div class=""stimulus-container"">
                    <img src=""images/causal_sequence/saving_a_cat_causal/saving_a_cat_causal_6.png"" class=""exp-image"">
                    <div class=""question-area"">
                        <p style=""font-size: 20px; font-weight: bold; margin: 0;"">Is there a person in this image?</p>
                    </div>
                </div>","0","main_experiment_trial","6","saving_a_cat_causal","causal_sequence","chronological","","","","","","",""
"","","","","","html-keyboard-response","155","524007","0.0-155.0","3848D5FCACAF4CE2ABFE83A9334B7E62","019cfc84-b852-79d2-9d61-34d8aa913f56","019cfc7b-6c7b-7b1b-afe7-acad8efc6711","","null","
                <div class=""stimulus-container"">
                    <img src=""images/causal_sequence/saving_a_cat_causal/saving_a_cat_causal_7.png"" class=""exp-image"">
                    <div class=""question-area""></div> 
                </div>","null","","","","","","","","","","","",""
"","","","","","html-button-response","156","524482","0.0-156.0","3848D5FCACAF4CE2ABFE83A9334B7E62","019cfc84-b852-79d2-9d61-34d8aa913f56","019cfc7b-6c7b-7b1b-afe7-acad8efc6711","","474","
                <div class=""stimulus-container"">
                    <img src=""images/causal_sequence/saving_a_cat_causal/saving_a_cat_causal_7.png"" class=""exp-image"">
                    <div class=""question-area"">
                        <p style=""font-size: 20px; font-weight: bold; margin: 0;"">Is there a person in this image?</p>
                    </div>
                </div>","0","main_experiment_trial","7","saving_a_cat_causal","causal_sequence","chronological","","","","","","",""
"","","","","","html-keyboard-response","157","529486","0.0-157.0","3848D5FCACAF4CE2ABFE83A9334B7E62","019cfc84-b852-79d2-9d61-34d8aa913f56","019cfc7b-6c7b-7b1b-afe7-acad8efc6711","","null","
                <div class=""stimulus-container"">
                    <img src=""images/causal_sequence/saving_a_cat_causal/saving_a_cat_causal_8.png"" class=""exp-image"">
                    <div class=""question-area""></div> 
                </div>","null","","","","","","","","","","","",""
"","","","","","html-button-response","158","530834","0.0-158.0","3848D5FCACAF4CE2ABFE83A9334B7E62","019cfc84-b852-79d2-9d61-34d8aa913f56","019cfc7b-6c7b-7b1b-afe7-acad8efc6711","","1347","
                <div class=""stimulus-container"">
                    <img src=""images/causal_sequence/saving_a_cat_causal/saving_a_cat_causal_8.png"" class=""exp-image"">
                    <div class=""question-area"">
                        <p style=""font-size: 20px; font-weight: bold; margin: 0;"">Is there a person in this image?</p>
                    </div>
                </div>","0","main_experiment_trial","8","saving_a_cat_causal","causal_sequence","chronological","","","","","","",""
"","","","","","html-keyboard-response","159","535840","0.0-159.0","3848D5FCACAF4CE2ABFE83A9334B7E62","019cfc84-b852-79d2-9d61-34d8aa913f56","019cfc7b-6c7b-7b1b-afe7-acad8efc6711","","null","
                <div class=""stimulus-container"">
                    <img src=""images/causal_sequence/saving_a_cat_causal/saving_a_cat_causal_9.png"" class=""exp-image"">
                    <div class=""question-area""></div> 
                </div>","null","","","","","","","","","","","",""
"","","","","","html-button-response","160","536690","0.0-160.0","3848D5FCACAF4CE2ABFE83A9334B7E62","019cfc84-b852-79d2-9d61-34d8aa913f56","019cfc7b-6c7b-7b1b-afe7-acad8efc6711","","849","
                <div class=""stimulus-container"">
                    <img src=""images/causal_sequence/saving_a_cat_causal/saving_a_cat_causal_9.png"" class=""exp-image"">
                    <div class=""question-area"">
                        <p style=""font-size: 20px; font-weight: bold; margin: 0;"">Is there a person in this image?</p>
                    </div>
                </div>","0","main_experiment_trial","9","saving_a_cat_causal","causal_sequence","chronological","","","","","","",""
"","","","","","html-keyboard-response","161","541695","0.0-161.0","3848D5FCACAF4CE2ABFE83A9334B7E62","019cfc84-b852-79d2-9d61-34d8aa913f56","019cfc7b-6c7b-7b1b-afe7-acad8efc6711","","null","
                <div class=""stimulus-container"">
                    <img src=""images/causal_sequence/saving_a_cat_causal/saving_a_cat_causal_ten.png"" class=""exp-image"">
                    <div class=""question-area""></div> 
                </div>","null","","","","","","","","","","","",""
"","","","","","html-button-response","162","544701","0.0-162.0","3848D5FCACAF4CE2ABFE83A9334B7E62","019cfc84-b852-79d2-9d61-34d8aa913f56","019cfc7b-6c7b-7b1b-afe7-acad8efc6711","","null","
                <div class=""stimulus-container"">
                    <img src=""images/causal_sequence/saving_a_cat_causal/saving_a_cat_causal_ten.png"" class=""exp-image"">
                    <div class=""question-area"">
                        <p style=""font-size: 20px; font-weight: bold; margin: 0;"">Is there a person in this image?</p>
                    </div>
                </div>","null","main_experiment_trial","ten","saving_a_cat_causal","causal_sequence","chronological","","","","","","",""
"","","","","","html-keyboard-response","163","549710","0.0-163.0","3848D5FCACAF4CE2ABFE83A9334B7E62","019cfc84-b852-79d2-9d61-34d8aa913f56","019cfc7b-6c7b-7b1b-afe7-acad8efc6711","","null","<div style=""background-color: white; width: 100vw; height: 100vh;""></div>","null","","","","","","","","","","","",""
"","","","","","html-keyboard-response","164","554726","0.0-164.0","3848D5FCACAF4CE2ABFE83A9334B7E62","019cfc84-b852-79d2-9d61-34d8aa913f56","019cfc7b-6c7b-7b1b-afe7-acad8efc6711","","null","
                <div class=""stimulus-container"">
                    <img src=""images/causal_sequence/package_causal/package_causal_1.png"" class=""exp-image"">
                    <div class=""question-area""></div> 
                </div>","null","","","","","","","","","","","",""
"","","","","","html-button-response","165","555138","0.0-165.0","3848D5FCACAF4CE2ABFE83A9334B7E62","019cfc84-b852-79d2-9d61-34d8aa913f56","019cfc7b-6c7b-7b1b-afe7-acad8efc6711","","411","
                <div class=""stimulus-container"">
                    <img src=""images/causal_sequence/package_causal/package_causal_1.png"" class=""exp-image"">
                    <div class=""question-area"">
                        <p style=""font-size: 20px; font-weight: bold; margin: 0;"">Is there a person in this image?</p>
                    </div>
                </div>","0","main_experiment_trial","1","package_causal","causal_sequence","chronological","","","","","","",""
"","","","","","html-keyboard-response","166","560150","0.0-166.0","3848D5FCACAF4CE2ABFE83A9334B7E62","019cfc84-b852-79d2-9d61-34d8aa913f56","019cfc7b-6c7b-7b1b-afe7-acad8efc6711","","null","
                <div class=""stimulus-container"">
                    <img src=""images/causal_sequence/package_causal/package_causal_2.png"" class=""exp-image"">
                    <div class=""question-area""></div> 
                </div>","null","","","","","","","","","","","",""
"","","","","","html-button-response","167","561522","0.0-167.0","3848D5FCACAF4CE2ABFE83A9334B7E62","019cfc84-b852-79d2-9d61-34d8aa913f56","019cfc7b-6c7b-7b1b-afe7-acad8efc6711","","1371","
                <div class=""stimulus-container"">
                    <img src=""images/causal_sequence/package_causal/package_causal_2.png"" class=""exp-image"">
                    <div class=""question-area"">
                        <p style=""font-size: 20px; font-weight: bold; margin: 0;"">Is there a person in this image?</p>
                    </div>
                </div>","0","main_experiment_trial","2","package_causal","causal_sequence","chronological","","","","","","",""
"","","","","","html-keyboard-response","168","566535","0.0-168.0","3848D5FCACAF4CE2ABFE83A9334B7E62","019cfc84-b852-79d2-9d61-34d8aa913f56","019cfc7b-6c7b-7b1b-afe7-acad8efc6711","","null","
                <div class=""stimulus-container"">
                    <img src=""images/causal_sequence/package_causal/package_causal_3.png"" class=""exp-image"">
                    <div class=""question-area""></div> 
                </div>","null","","","","","","","","","","","",""
"","","","","","html-button-response","169","567002","0.0-169.0","3848D5FCACAF4CE2ABFE83A9334B7E62","019cfc84-b852-79d2-9d61-34d8aa913f56","019cfc7b-6c7b-7b1b-afe7-acad8efc6711","","466","
                <div class=""stimulus-container"">
                    <img src=""images/causal_sequence/package_causal/package_causal_3.png"" class=""exp-image"">
                    <div class=""question-area"">
                        <p style=""font-size: 20px; font-weight: bold; margin: 0;"">Is there a person in this image?</p>
                    </div>
                </div>","0","main_experiment_trial","3","package_causal","causal_sequence","chronological","","","","","","",""
"","","","","","html-keyboard-response","170","572014","0.0-170.0","3848D5FCACAF4CE2ABFE83A9334B7E62","019cfc84-b852-79d2-9d61-34d8aa913f56","019cfc7b-6c7b-7b1b-afe7-acad8efc6711","","null","
                <div class=""stimulus-container"">
                    <img src=""images/causal_sequence/package_causal/package_causal_4.png"" class=""exp-image"">
                    <div class=""question-area""></div> 
                </div>","null","","","","","","","","","","","",""
"","","","","","html-button-response","171","572850","0.0-171.0","3848D5FCACAF4CE2ABFE83A9334B7E62","019cfc84-b852-79d2-9d61-34d8aa913f56","019cfc7b-6c7b-7b1b-afe7-acad8efc6711","","835","
                <div class=""stimulus-container"">
                    <img src=""images/causal_sequence/package_causal/package_causal_4.png"" class=""exp-image"">
                    <div class=""question-area"">
                        <p style=""font-size: 20px; font-weight: bold; margin: 0;"">Is there a person in this image?</p>
                    </div>
                </div>","1","main_experiment_trial","4","package_causal","causal_sequence","chronological","","","","","","",""
"","","","","","html-keyboard-response","172","577857","0.0-172.0","3848D5FCACAF4CE2ABFE83A9334B7E62","019cfc84-b852-79d2-9d61-34d8aa913f56","019cfc7b-6c7b-7b1b-afe7-acad8efc6711","","null","
                <div class=""stimulus-container"">
                    <img src=""images/causal_sequence/package_causal/package_causal_5.png"" class=""exp-image"">
                    <div class=""question-area""></div> 
                </div>","null","","","","","","","","","","","",""
"","","","","","html-button-response","173","579210","0.0-173.0","3848D5FCACAF4CE2ABFE83A9334B7E62","019cfc84-b852-79d2-9d61-34d8aa913f56","019cfc7b-6c7b-7b1b-afe7-acad8efc6711","","1352","
                <div class=""stimulus-container"">
                    <img src=""images/causal_sequence/package_causal/package_causal_5.png"" class=""exp-image"">
                    <div class=""question-area"">
                        <p style=""font-size: 20px; font-weight: bold; margin: 0;"">Is there a person in this image?</p>
                    </div>
                </div>","0","main_experiment_trial","5","package_causal","causal_sequence","chronological","","","","","","",""
"","","","","","html-keyboard-response","174","584221","0.0-174.0","3848D5FCACAF4CE2ABFE83A9334B7E62","019cfc84-b852-79d2-9d61-34d8aa913f56","019cfc7b-6c7b-7b1b-afe7-acad8efc6711","","null","
                <div class=""stimulus-container"">
                    <img src=""images/causal_sequence/package_causal/package_causal_6.png"" class=""exp-image"">
                    <div class=""question-area""></div> 
                </div>","null","","","","","","","","","","","",""
"","","","","","html-button-response","175","584778","0.0-175.0","3848D5FCACAF4CE2ABFE83A9334B7E62","019cfc84-b852-79d2-9d61-34d8aa913f56","019cfc7b-6c7b-7b1b-afe7-acad8efc6711","","556","
                <div class=""stimulus-container"">
                    <img src=""images/causal_sequence/package_causal/package_causal_6.png"" class=""exp-image"">
                    <div class=""question-area"">
                        <p style=""font-size: 20px; font-weight: bold; margin: 0;"">Is there a person in this image?</p>
                    </div>
                </div>","0","main_experiment_trial","6","package_causal","causal_sequence","chronological","","","","","","",""
"","","","","","html-keyboard-response","176","589794","0.0-176.0","3848D5FCACAF4CE2ABFE83A9334B7E62","019cfc84-b852-79d2-9d61-34d8aa913f56","019cfc7b-6c7b-7b1b-afe7-acad8efc6711","","null","
                <div class=""stimulus-container"">
