"success","timeout","failed_images","failed_audio","failed_video","trial_type","trial_index","time_elapsed","internal_node_id","subject_id","study_id","session_id","view_history","rt","stimulus","response","task","image_index","folder","sequence_type","presentation_order","valuable_image_index","reward_type","distance_from_x","target_X","chosen_image_index","is_x_plus_dist","correct_choice"
"true","false","[]","[]","[]","preload","0","20563","0.0-0.0","ACE2AB98744A4CC38C0AC6401D16E272","019cfc66-bc1f-75e4-b246-39a824337a91","019cfc28-2143-7934-89cc-ce6402563331","","","","","","","","","","","","","","","",""
"","","","","","instructions","1","23735","0.0-1.0","ACE2AB98744A4CC38C0AC6401D16E272","019cfc66-bc1f-75e4-b246-39a824337a91","019cfc28-2143-7934-89cc-ce6402563331","[{""page_index"":0,""viewing_time"":3172}]","3172","","","","","","","","","","","","","",""
"","","","","","instructions","2","38655","0.0-2.0","ACE2AB98744A4CC38C0AC6401D16E272","019cfc66-bc1f-75e4-b246-39a824337a91","019cfc28-2143-7934-89cc-ce6402563331","[{""page_index"":0,""viewing_time"":14919}]","14920","","","","","","","","","","","","","",""
"true","","","","","fullscreen","3","41620","0.0-3.0","ACE2AB98744A4CC38C0AC6401D16E272","019cfc66-bc1f-75e4-b246-39a824337a91","019cfc28-2143-7934-89cc-ce6402563331","","1942","","","","","","","","","","","","","",""
"","","","","","instructions","4","86953","0.0-4.0","ACE2AB98744A4CC38C0AC6401D16E272","019cfc66-bc1f-75e4-b246-39a824337a91","019cfc28-2143-7934-89cc-ce6402563331","[{""page_index"":0,""viewing_time"":45332}]","45333","","","","","","","","","","","","","",""
"","","","","","instructions","5","99539","0.0-5.0","ACE2AB98744A4CC38C0AC6401D16E272","019cfc66-bc1f-75e4-b246-39a824337a91","019cfc28-2143-7934-89cc-ce6402563331","[{""page_index"":0,""viewing_time"":12585}]","12586","","","","","","","","","","","","","",""
"","","","","","html-keyboard-response","6","103556","0.0-6.0","ACE2AB98744A4CC38C0AC6401D16E272","019cfc66-bc1f-75e4-b246-39a824337a91","019cfc28-2143-7934-89cc-ce6402563331","","null","
                <div class=""stimulus-container"">
                    <img src=""images/instructions/movie_1.png"" class=""exp-image"">
                    <div class=""question-area""></div> 
                </div>","null","","","","","","","","","","","",""
"","","","","","html-button-response","7","106408","0.0-7.0","ACE2AB98744A4CC38C0AC6401D16E272","019cfc66-bc1f-75e4-b246-39a824337a91","019cfc28-2143-7934-89cc-ce6402563331","","2850","
                <div class=""stimulus-container"">
                    <img src=""images/instructions/movie_1.png"" class=""exp-image"">
                    <div class=""question-area"">
                        <p style=""font-size: 20px; font-weight: bold; margin: 0;"">Was there a person in this image?</p>
                    </div>
                </div>","0","example_question","1","","","","","","","","","",""
"","","","","","html-keyboard-response","8","110420","0.0-8.0","ACE2AB98744A4CC38C0AC6401D16E272","019cfc66-bc1f-75e4-b246-39a824337a91","019cfc28-2143-7934-89cc-ce6402563331","","null","
                <div class=""stimulus-container"">
                    <img src=""images/instructions/movie_2.png"" class=""exp-image"">
                    <div class=""question-area""></div> 
                </div>","null","","","","","","","","","","","",""
"","","","","","html-button-response","9","112341","0.0-9.0","ACE2AB98744A4CC38C0AC6401D16E272","019cfc66-bc1f-75e4-b246-39a824337a91","019cfc28-2143-7934-89cc-ce6402563331","","1919","
                <div class=""stimulus-container"">
                    <img src=""images/instructions/movie_2.png"" class=""exp-image"">
                    <div class=""question-area"">
                        <p style=""font-size: 20px; font-weight: bold; margin: 0;"">Was there a person in this image?</p>
                    </div>
                </div>","0","example_question","2","","","","","","","","","",""
"","","","","","html-keyboard-response","10","116354","0.0-10.0","ACE2AB98744A4CC38C0AC6401D16E272","019cfc66-bc1f-75e4-b246-39a824337a91","019cfc28-2143-7934-89cc-ce6402563331","","null","
                <div class=""stimulus-container"">
                    <img src=""images/instructions/movie_3.png"" class=""exp-image"">
                    <div class=""question-area""></div> 
                </div>","null","","","","","","","","","","","",""
"","","","","","html-button-response","11","117314","0.0-11.0","ACE2AB98744A4CC38C0AC6401D16E272","019cfc66-bc1f-75e4-b246-39a824337a91","019cfc28-2143-7934-89cc-ce6402563331","","960","
                <div class=""stimulus-container"">
                    <img src=""images/instructions/movie_3.png"" class=""exp-image"">
                    <div class=""question-area"">
                        <p style=""font-size: 20px; font-weight: bold; margin: 0;"">Was there a person in this image?</p>
                    </div>
                </div>","0","example_question","3","","","","","","","","","",""
"","","","","","html-keyboard-response","12","121320","0.0-12.0","ACE2AB98744A4CC38C0AC6401D16E272","019cfc66-bc1f-75e4-b246-39a824337a91","019cfc28-2143-7934-89cc-ce6402563331","","null","
                <div class=""stimulus-container"">
                    <img src=""images/instructions/movie_4.png"" class=""exp-image"">
                    <div class=""question-area""></div> 
                </div>","null","","","","","","","","","","","",""
"","","","","","html-button-response","13","121736","0.0-13.0","ACE2AB98744A4CC38C0AC6401D16E272","019cfc66-bc1f-75e4-b246-39a824337a91","019cfc28-2143-7934-89cc-ce6402563331","","416","
                <div class=""stimulus-container"">
                    <img src=""images/instructions/movie_4.png"" class=""exp-image"">
                    <div class=""question-area"">
                        <p style=""font-size: 20px; font-weight: bold; margin: 0;"">Was there a person in this image?</p>
                    </div>
                </div>","0","example_question","4","","","","","","","","","",""
"","","","","","instructions","14","123704","0.0-14.0","ACE2AB98744A4CC38C0AC6401D16E272","019cfc66-bc1f-75e4-b246-39a824337a91","019cfc28-2143-7934-89cc-ce6402563331","[{""page_index"":0,""viewing_time"":1967}]","1967","","","","","","","","","","","","","",""
"","","","","","instructions","15","130317","0.0-15.0","ACE2AB98744A4CC38C0AC6401D16E272","019cfc66-bc1f-75e4-b246-39a824337a91","019cfc28-2143-7934-89cc-ce6402563331","[{""page_index"":0,""viewing_time"":6612}]","6613","","","","","","","","","","","","","",""
"","","","","","html-keyboard-response","16","135340","0.0-16.0","ACE2AB98744A4CC38C0AC6401D16E272","019cfc66-bc1f-75e4-b246-39a824337a91","019cfc28-2143-7934-89cc-ce6402563331","","null","<div style=""background-color: white; width: 100vw; height: 100vh;""></div>","null","","","","","","","","","","","",""
"","","","","","html-keyboard-response","17","140352","0.0-17.0","ACE2AB98744A4CC38C0AC6401D16E272","019cfc66-bc1f-75e4-b246-39a824337a91","019cfc28-2143-7934-89cc-ce6402563331","","null","
                <div class=""stimulus-container"">
                    <img src=""images/semantic_sequence/redecorating_a_house_semantic/redecorating_a_house_semantic_1.png"" class=""exp-image"">
                    <div class=""question-area""></div> 
                </div>","null","","","","","","","","","","","",""
"","","","","","html-button-response","18","142246","0.0-18.0","ACE2AB98744A4CC38C0AC6401D16E272","019cfc66-bc1f-75e4-b246-39a824337a91","019cfc28-2143-7934-89cc-ce6402563331","","1893","
                <div class=""stimulus-container"">
                    <img src=""images/semantic_sequence/redecorating_a_house_semantic/redecorating_a_house_semantic_1.png"" class=""exp-image"">
                    <div class=""question-area"">
                        <p style=""font-size: 20px; font-weight: bold; margin: 0;"">Is there a person in this image?</p>
                    </div>
                </div>","0","main_experiment_trial","1","redecorating_a_house_semantic","semantic_sequence","chronological","","","","","","",""
"","","","","","html-keyboard-response","19","147254","0.0-19.0","ACE2AB98744A4CC38C0AC6401D16E272","019cfc66-bc1f-75e4-b246-39a824337a91","019cfc28-2143-7934-89cc-ce6402563331","","null","
                <div class=""stimulus-container"">
                    <img src=""images/semantic_sequence/redecorating_a_house_semantic/redecorating_a_house_semantic_2.png"" class=""exp-image"">
                    <div class=""question-area""></div> 
                </div>","null","","","","","","","","","","","",""
"","","","","","html-button-response","20","148811","0.0-20.0","ACE2AB98744A4CC38C0AC6401D16E272","019cfc66-bc1f-75e4-b246-39a824337a91","019cfc28-2143-7934-89cc-ce6402563331","","1556","
                <div class=""stimulus-container"">
                    <img src=""images/semantic_sequence/redecorating_a_house_semantic/redecorating_a_house_semantic_2.png"" class=""exp-image"">
                    <div class=""question-area"">
                        <p style=""font-size: 20px; font-weight: bold; margin: 0;"">Is there a person in this image?</p>
                    </div>
                </div>","0","main_experiment_trial","2","redecorating_a_house_semantic","semantic_sequence","chronological","","","","","","",""
"","","","","","html-keyboard-response","21","153822","0.0-21.0","ACE2AB98744A4CC38C0AC6401D16E272","019cfc66-bc1f-75e4-b246-39a824337a91","019cfc28-2143-7934-89cc-ce6402563331","","null","
                <div class=""stimulus-container"">
                    <img src=""images/semantic_sequence/redecorating_a_house_semantic/redecorating_a_house_semantic_3.png"" class=""exp-image"">
                    <div class=""question-area""></div> 
                </div>","null","","","","","","","","","","","",""
"","","","","","html-button-response","22","154353","0.0-22.0","ACE2AB98744A4CC38C0AC6401D16E272","019cfc66-bc1f-75e4-b246-39a824337a91","019cfc28-2143-7934-89cc-ce6402563331","","530","
                <div class=""stimulus-container"">
                    <img src=""images/semantic_sequence/redecorating_a_house_semantic/redecorating_a_house_semantic_3.png"" class=""exp-image"">
                    <div class=""question-area"">
                        <p style=""font-size: 20px; font-weight: bold; margin: 0;"">Is there a person in this image?</p>
                    </div>
                </div>","0","main_experiment_trial","3","redecorating_a_house_semantic","semantic_sequence","chronological","","","","","","",""
"","","","","","html-keyboard-response","23","159369","0.0-23.0","ACE2AB98744A4CC38C0AC6401D16E272","019cfc66-bc1f-75e4-b246-39a824337a91","019cfc28-2143-7934-89cc-ce6402563331","","null","
                <div class=""stimulus-container"">
                    <img src=""images/semantic_sequence/redecorating_a_house_semantic/redecorating_a_house_semantic_4.png"" class=""exp-image"">
                    <div class=""question-area""></div> 
                </div>","null","","","","","","","","","","","",""
"","","","","","html-button-response","24","160446","0.0-24.0","ACE2AB98744A4CC38C0AC6401D16E272","019cfc66-bc1f-75e4-b246-39a824337a91","019cfc28-2143-7934-89cc-ce6402563331","","1076","
                <div class=""stimulus-container"">
                    <img src=""images/semantic_sequence/redecorating_a_house_semantic/redecorating_a_house_semantic_4.png"" class=""exp-image"">
                    <div class=""question-area"">
                        <p style=""font-size: 20px; font-weight: bold; margin: 0;"">Is there a person in this image?</p>
                    </div>
                </div>","0","main_experiment_trial","4","redecorating_a_house_semantic","semantic_sequence","chronological","","","","","","",""
"","","","","","html-keyboard-response","25","165453","0.0-25.0","ACE2AB98744A4CC38C0AC6401D16E272","019cfc66-bc1f-75e4-b246-39a824337a91","019cfc28-2143-7934-89cc-ce6402563331","","null","
                <div class=""stimulus-container"">
                    <img src=""images/semantic_sequence/redecorating_a_house_semantic/redecorating_a_house_semantic_5.png"" class=""exp-image"">
                    <div class=""question-area""></div> 
                </div>","null","","","","","","","","","","","",""
"","","","","","html-button-response","26","165995","0.0-26.0","ACE2AB98744A4CC38C0AC6401D16E272","019cfc66-bc1f-75e4-b246-39a824337a91","019cfc28-2143-7934-89cc-ce6402563331","","541","
                <div class=""stimulus-container"">
                    <img src=""images/semantic_sequence/redecorating_a_house_semantic/redecorating_a_house_semantic_5.png"" class=""exp-image"">
                    <div class=""question-area"">
                        <p style=""font-size: 20px; font-weight: bold; margin: 0;"">Is there a person in this image?</p>
                    </div>
                </div>","0","main_experiment_trial","5","redecorating_a_house_semantic","semantic_sequence","chronological","","","","","","",""
"","","","","","html-keyboard-response","27","171000","0.0-27.0","ACE2AB98744A4CC38C0AC6401D16E272","019cfc66-bc1f-75e4-b246-39a824337a91","019cfc28-2143-7934-89cc-ce6402563331","","null","
                <div class=""stimulus-container"">
                    <img src=""images/semantic_sequence/redecorating_a_house_semantic/redecorating_a_house_semantic_6.png"" class=""exp-image"">
                    <div class=""question-area""></div> 
                </div>","null","","","","","","","","","","","",""
"","","","","","html-button-response","28","172248","0.0-28.0","ACE2AB98744A4CC38C0AC6401D16E272","019cfc66-bc1f-75e4-b246-39a824337a91","019cfc28-2143-7934-89cc-ce6402563331","","1247","
                <div class=""stimulus-container"">
                    <img src=""images/semantic_sequence/redecorating_a_house_semantic/redecorating_a_house_semantic_6.png"" class=""exp-image"">
                    <div class=""question-area"">
                        <p style=""font-size: 20px; font-weight: bold; margin: 0;"">Is there a person in this image?</p>
                    </div>
                </div>","0","main_experiment_trial","6","redecorating_a_house_semantic","semantic_sequence","chronological","","","","","","",""
"","","","","","html-keyboard-response","29","177260","0.0-29.0","ACE2AB98744A4CC38C0AC6401D16E272","019cfc66-bc1f-75e4-b246-39a824337a91","019cfc28-2143-7934-89cc-ce6402563331","","null","
                <div class=""stimulus-container"">
                    <img src=""images/semantic_sequence/redecorating_a_house_semantic/redecorating_a_house_semantic_7.png"" class=""exp-image"">
                    <div class=""question-area""></div> 
                </div>","null","","","","","","","","","","","",""
"","","","","","html-button-response","30","179325","0.0-30.0","ACE2AB98744A4CC38C0AC6401D16E272","019cfc66-bc1f-75e4-b246-39a824337a91","019cfc28-2143-7934-89cc-ce6402563331","","2065","
                <div class=""stimulus-container"">
                    <img src=""images/semantic_sequence/redecorating_a_house_semantic/redecorating_a_house_semantic_7.png"" class=""exp-image"">
                    <div class=""question-area"">
                        <p style=""font-size: 20px; font-weight: bold; margin: 0;"">Is there a person in this image?</p>
                    </div>
                </div>","0","main_experiment_trial","7","redecorating_a_house_semantic","semantic_sequence","chronological","","","","","","",""
"","","","","","html-keyboard-response","31","184343","0.0-31.0","ACE2AB98744A4CC38C0AC6401D16E272","019cfc66-bc1f-75e4-b246-39a824337a91","019cfc28-2143-7934-89cc-ce6402563331","","null","
                <div class=""stimulus-container"">
                    <img src=""images/semantic_sequence/redecorating_a_house_semantic/redecorating_a_house_semantic_8.png"" class=""exp-image"">
                    <div class=""question-area""></div> 
                </div>","null","","","","","","","","","","","",""
"","","","","","html-button-response","32","184826","0.0-32.0","ACE2AB98744A4CC38C0AC6401D16E272","019cfc66-bc1f-75e4-b246-39a824337a91","019cfc28-2143-7934-89cc-ce6402563331","","482","
                <div class=""stimulus-container"">
                    <img src=""images/semantic_sequence/redecorating_a_house_semantic/redecorating_a_house_semantic_8.png"" class=""exp-image"">
                    <div class=""question-area"">
                        <p style=""font-size: 20px; font-weight: bold; margin: 0;"">Is there a person in this image?</p>
                    </div>
                </div>","0","main_experiment_trial","8","redecorating_a_house_semantic","semantic_sequence","chronological","","","","","","",""
"","","","","","html-keyboard-response","33","189844","0.0-33.0","ACE2AB98744A4CC38C0AC6401D16E272","019cfc66-bc1f-75e4-b246-39a824337a91","019cfc28-2143-7934-89cc-ce6402563331","","null","
                <div class=""stimulus-container"">
                    <img src=""images/semantic_sequence/redecorating_a_house_semantic/redecorating_a_house_semantic_9.png"" class=""exp-image"">
                    <div class=""question-area""></div> 
                </div>","null","","","","","","","","","","","",""
"","","","","","html-button-response","34","192247","0.0-34.0","ACE2AB98744A4CC38C0AC6401D16E272","019cfc66-bc1f-75e4-b246-39a824337a91","019cfc28-2143-7934-89cc-ce6402563331","","2402","
                <div class=""stimulus-container"">
                    <img src=""images/semantic_sequence/redecorating_a_house_semantic/redecorating_a_house_semantic_9.png"" class=""exp-image"">
                    <div class=""question-area"">
                        <p style=""font-size: 20px; font-weight: bold; margin: 0;"">Is there a person in this image?</p>
                    </div>
                </div>","0","main_experiment_trial","9","redecorating_a_house_semantic","semantic_sequence","chronological","","","","","","",""
"","","","","","html-keyboard-response","35","197267","0.0-35.0","ACE2AB98744A4CC38C0AC6401D16E272","019cfc66-bc1f-75e4-b246-39a824337a91","019cfc28-2143-7934-89cc-ce6402563331","","null","
                <div class=""stimulus-container"">
                    <img src=""images/semantic_sequence/redecorating_a_house_semantic/redecorating_a_house_semantic_ten.png"" class=""exp-image"">
                    <div class=""question-area""></div> 
                </div>","null","","","","","","","","","","","",""
"","","","","","html-button-response","36","198078","0.0-36.0","ACE2AB98744A4CC38C0AC6401D16E272","019cfc66-bc1f-75e4-b246-39a824337a91","019cfc28-2143-7934-89cc-ce6402563331","","810","
                <div class=""stimulus-container"">
                    <img src=""images/semantic_sequence/redecorating_a_house_semantic/redecorating_a_house_semantic_ten.png"" class=""exp-image"">
                    <div class=""question-area"">
                        <p style=""font-size: 20px; font-weight: bold; margin: 0;"">Is there a person in this image?</p>
                    </div>
                </div>","0","main_experiment_trial","ten","redecorating_a_house_semantic","semantic_sequence","chronological","","","","","","",""
"","","","","","html-keyboard-response","37","203085","0.0-37.0","ACE2AB98744A4CC38C0AC6401D16E272","019cfc66-bc1f-75e4-b246-39a824337a91","019cfc28-2143-7934-89cc-ce6402563331","","null","<div style=""background-color: white; width: 100vw; height: 100vh;""></div>","null","","","","","","","","","","","",""
"","","","","","html-keyboard-response","38","208107","0.0-38.0","ACE2AB98744A4CC38C0AC6401D16E272","019cfc66-bc1f-75e4-b246-39a824337a91","019cfc28-2143-7934-89cc-ce6402563331","","null","
                <div class=""stimulus-container"">
                    <img src=""images/semantic_sequence/exploring_nature_semantic/exploring_nature_semantic_1.png"" class=""exp-image"">
                    <div class=""question-area""></div> 
                </div>","null","","","","","","","","","","","",""
"","","","","","html-button-response","39","209479","0.0-39.0","ACE2AB98744A4CC38C0AC6401D16E272","019cfc66-bc1f-75e4-b246-39a824337a91","019cfc28-2143-7934-89cc-ce6402563331","","1371","
                <div class=""stimulus-container"">
                    <img src=""images/semantic_sequence/exploring_nature_semantic/exploring_nature_semantic_1.png"" class=""exp-image"">
                    <div class=""question-area"">
                        <p style=""font-size: 20px; font-weight: bold; margin: 0;"">Is there a person in this image?</p>
                    </div>
                </div>","0","main_experiment_trial","1","exploring_nature_semantic","semantic_sequence","chronological","","","","","","",""
"","","","","","html-keyboard-response","40","214490","0.0-40.0","ACE2AB98744A4CC38C0AC6401D16E272","019cfc66-bc1f-75e4-b246-39a824337a91","019cfc28-2143-7934-89cc-ce6402563331","","null","
                <div class=""stimulus-container"">
                    <img src=""images/semantic_sequence/exploring_nature_semantic/exploring_nature_semantic_2.png"" class=""exp-image"">
                    <div class=""question-area""></div> 
                </div>","null","","","","","","","","","","","",""
"","","","","","html-button-response","41","216068","0.0-41.0","ACE2AB98744A4CC38C0AC6401D16E272","019cfc66-bc1f-75e4-b246-39a824337a91","019cfc28-2143-7934-89cc-ce6402563331","","1576","
                <div class=""stimulus-container"">
                    <img src=""images/semantic_sequence/exploring_nature_semantic/exploring_nature_semantic_2.png"" class=""exp-image"">
                    <div class=""question-area"">
                        <p style=""font-size: 20px; font-weight: bold; margin: 0;"">Is there a person in this image?</p>
                    </div>
                </div>","0","main_experiment_trial","2","exploring_nature_semantic","semantic_sequence","chronological","","","","","","",""
"","","","","","html-keyboard-response","42","221078","0.0-42.0","ACE2AB98744A4CC38C0AC6401D16E272","019cfc66-bc1f-75e4-b246-39a824337a91","019cfc28-2143-7934-89cc-ce6402563331","","null","
                <div class=""stimulus-container"">
                    <img src=""images/semantic_sequence/exploring_nature_semantic/exploring_nature_semantic_3.png"" class=""exp-image"">
                    <div class=""question-area""></div> 
                </div>","null","","","","","","","","","","","",""
"","","","","","html-button-response","43","222112","0.0-43.0","ACE2AB98744A4CC38C0AC6401D16E272","019cfc66-bc1f-75e4-b246-39a824337a91","019cfc28-2143-7934-89cc-ce6402563331","","1033","
                <div class=""stimulus-container"">
                    <img src=""images/semantic_sequence/exploring_nature_semantic/exploring_nature_semantic_3.png"" class=""exp-image"">
                    <div class=""question-area"">
                        <p style=""font-size: 20px; font-weight: bold; margin: 0;"">Is there a person in this image?</p>
                    </div>
                </div>","0","main_experiment_trial","3","exploring_nature_semantic","semantic_sequence","chronological","","","","","","",""
"","","","","","html-keyboard-response","44","227124","0.0-44.0","ACE2AB98744A4CC38C0AC6401D16E272","019cfc66-bc1f-75e4-b246-39a824337a91","019cfc28-2143-7934-89cc-ce6402563331","","null","
                <div class=""stimulus-container"">
                    <img src=""images/semantic_sequence/exploring_nature_semantic/exploring_nature_semantic_4.png"" class=""exp-image"">
                    <div class=""question-area""></div> 
                </div>","null","","","","","","","","","","","",""
"","","","","","html-button-response","45","228086","0.0-45.0","ACE2AB98744A4CC38C0AC6401D16E272","019cfc66-bc1f-75e4-b246-39a824337a91","019cfc28-2143-7934-89cc-ce6402563331","","961","
                <div class=""stimulus-container"">
                    <img src=""images/semantic_sequence/exploring_nature_semantic/exploring_nature_semantic_4.png"" class=""exp-image"">
                    <div class=""question-area"">
                        <p style=""font-size: 20px; font-weight: bold; margin: 0;"">Is there a person in this image?</p>
                    </div>
                </div>","0","main_experiment_trial","4","exploring_nature_semantic","semantic_sequence","chronological","","","","","","",""
"","","","","","html-keyboard-response","46","233104","0.0-46.0","ACE2AB98744A4CC38C0AC6401D16E272","019cfc66-bc1f-75e4-b246-39a824337a91","019cfc28-2143-7934-89cc-ce6402563331","","null","
                <div class=""stimulus-container"">
                    <img src=""images/semantic_sequence/exploring_nature_semantic/exploring_nature_semantic_5.png"" class=""exp-image"">
                    <div class=""question-area""></div> 
                </div>","null","","","","","","","","","","","",""
"","","","","","html-button-response","47","234539","0.0-47.0","ACE2AB98744A4CC38C0AC6401D16E272","019cfc66-bc1f-75e4-b246-39a824337a91","019cfc28-2143-7934-89cc-ce6402563331","","1434","
                <div class=""stimulus-container"">
                    <img src=""images/semantic_sequence/exploring_nature_semantic/exploring_nature_semantic_5.png"" class=""exp-image"">
                    <div class=""question-area"">
                        <p style=""font-size: 20px; font-weight: bold; margin: 0;"">Is there a person in this image?</p>
                    </div>
                </div>","0","main_experiment_trial","5","exploring_nature_semantic","semantic_sequence","chronological","","","","","","",""
"","","","","","html-keyboard-response","48","239541","0.0-48.0","ACE2AB98744A4CC38C0AC6401D16E272","019cfc66-bc1f-75e4-b246-39a824337a91","019cfc28-2143-7934-89cc-ce6402563331","","null","
                <div class=""stimulus-container"">
                    <img src=""images/semantic_sequence/exploring_nature_semantic/exploring_nature_semantic_6.png"" class=""exp-image"">
                    <div class=""question-area""></div> 
                </div>","null","","","","","","","","","","","",""
"","","","","","html-button-response","49","242143","0.0-49.0","ACE2AB98744A4CC38C0AC6401D16E272","019cfc66-bc1f-75e4-b246-39a824337a91","019cfc28-2143-7934-89cc-ce6402563331","","2601","
                <div class=""stimulus-container"">
                    <img src=""images/semantic_sequence/exploring_nature_semantic/exploring_nature_semantic_6.png"" class=""exp-image"">
                    <div class=""question-area"">
                        <p style=""font-size: 20px; font-weight: bold; margin: 0;"">Is there a person in this image?</p>
                    </div>
                </div>","0","main_experiment_trial","6","exploring_nature_semantic","semantic_sequence","chronological","","","","","","",""
"","","","","","html-keyboard-response","50","247158","0.0-50.0","ACE2AB98744A4CC38C0AC6401D16E272","019cfc66-bc1f-75e4-b246-39a824337a91","019cfc28-2143-7934-89cc-ce6402563331","","null","
                <div class=""stimulus-container"">
                    <img src=""images/semantic_sequence/exploring_nature_semantic/exploring_nature_semantic_7.png"" class=""exp-image"">
                    <div class=""question-area""></div> 
                </div>","null","","","","","","","","","","","",""
"","","","","","html-button-response","51","248533","0.0-51.0","ACE2AB98744A4CC38C0AC6401D16E272","019cfc66-bc1f-75e4-b246-39a824337a91","019cfc28-2143-7934-89cc-ce6402563331","","1373","
                <div class=""stimulus-container"">
                    <img src=""images/semantic_sequence/exploring_nature_semantic/exploring_nature_semantic_7.png"" class=""exp-image"">
                    <div class=""question-area"">
                        <p style=""font-size: 20px; font-weight: bold; margin: 0;"">Is there a person in this image?</p>
                    </div>
                </div>","0","main_experiment_trial","7","exploring_nature_semantic","semantic_sequence","chronological","","","","","","",""
"","","","","","html-keyboard-response","52","253545","0.0-52.0","ACE2AB98744A4CC38C0AC6401D16E272","019cfc66-bc1f-75e4-b246-39a824337a91","019cfc28-2143-7934-89cc-ce6402563331","","null","
                <div class=""stimulus-container"">
                    <img src=""images/semantic_sequence/exploring_nature_semantic/exploring_nature_semantic_8.png"" class=""exp-image"">
                    <div class=""question-area""></div> 
                </div>","null","","","","","","","","","","","",""
"","","","","","html-button-response","53","254553","0.0-53.0","ACE2AB98744A4CC38C0AC6401D16E272","019cfc66-bc1f-75e4-b246-39a824337a91","019cfc28-2143-7934-89cc-ce6402563331","","1007","
                <div class=""stimulus-container"">
                    <img src=""images/semantic_sequence/exploring_nature_semantic/exploring_nature_semantic_8.png"" class=""exp-image"">
                    <div class=""question-area"">
                        <p style=""font-size: 20px; font-weight: bold; margin: 0;"">Is there a person in this image?</p>
                    </div>
                </div>","0","main_experiment_trial","8","exploring_nature_semantic","semantic_sequence","chronological","","","","","","",""
"","","","","","html-keyboard-response","54","259563","0.0-54.0","ACE2AB98744A4CC38C0AC6401D16E272","019cfc66-bc1f-75e4-b246-39a824337a91","019cfc28-2143-7934-89cc-ce6402563331","","null","
                <div class=""stimulus-container"">
                    <img src=""images/semantic_sequence/exploring_nature_semantic/exploring_nature_semantic_9.png"" class=""exp-image"">
                    <div class=""question-area""></div> 
                </div>","null","","","","","","","","","","","",""
"","","","","","html-button-response","55","260342","0.0-55.0","ACE2AB98744A4CC38C0AC6401D16E272","019cfc66-bc1f-75e4-b246-39a824337a91","019cfc28-2143-7934-89cc-ce6402563331","","779","
                <div class=""stimulus-container"">
                    <img src=""images/semantic_sequence/exploring_nature_semantic/exploring_nature_semantic_9.png"" class=""exp-image"">
                    <div class=""question-area"">
                        <p style=""font-size: 20px; font-weight: bold; margin: 0;"">Is there a person in this image?</p>
                    </div>
                </div>","0","main_experiment_trial","9","exploring_nature_semantic","semantic_sequence","chronological","","","","","","",""
"","","","","","html-keyboard-response","56","265359","0.0-56.0","ACE2AB98744A4CC38C0AC6401D16E272","019cfc66-bc1f-75e4-b246-39a824337a91","019cfc28-2143-7934-89cc-ce6402563331","","null","
                <div class=""stimulus-container"">
                    <img src=""images/semantic_sequence/exploring_nature_semantic/exploring_nature_semantic_ten.png"" class=""exp-image"">
                    <div class=""question-area""></div> 
                </div>","null","","","","","","","","","","","",""
"","","","","","html-button-response","57","266267","0.0-57.0","ACE2AB98744A4CC38C0AC6401D16E272","019cfc66-bc1f-75e4-b246-39a824337a91","019cfc28-2143-7934-89cc-ce6402563331","","907","
                <div class=""stimulus-container"">
                    <img src=""images/semantic_sequence/exploring_nature_semantic/exploring_nature_semantic_ten.png"" class=""exp-image"">
                    <div class=""question-area"">
                        <p style=""font-size: 20px; font-weight: bold; margin: 0;"">Is there a person in this image?</p>
                    </div>
                </div>","0","main_experiment_trial","ten","exploring_nature_semantic","semantic_sequence","chronological","","","","","","",""
"","","","","","html-keyboard-response","58","271279","0.0-58.0","ACE2AB98744A4CC38C0AC6401D16E272","019cfc66-bc1f-75e4-b246-39a824337a91","019cfc28-2143-7934-89cc-ce6402563331","","null","<div style=""background-color: white; width: 100vw; height: 100vh;""></div>","null","","","","","","","","","","","",""
"","","","","","html-keyboard-response","59","276298","0.0-59.0","ACE2AB98744A4CC38C0AC6401D16E272","019cfc66-bc1f-75e4-b246-39a824337a91","019cfc28-2143-7934-89cc-ce6402563331","","null","
                <div class=""stimulus-container"">
                    <img src=""images/schematic_sequence/hotel_scheme/hotel_scheme_1.png"" class=""exp-image"">
                    <div class=""question-area""></div> 
                </div>","null","","","","","","","","","","","",""
"","","","","","html-button-response","60","278182","0.0-60.0","ACE2AB98744A4CC38C0AC6401D16E272","019cfc66-bc1f-75e4-b246-39a824337a91","019cfc28-2143-7934-89cc-ce6402563331","","1883","
                <div class=""stimulus-container"">
                    <img src=""images/schematic_sequence/hotel_scheme/hotel_scheme_1.png"" class=""exp-image"">
                    <div class=""question-area"">
                        <p style=""font-size: 20px; font-weight: bold; margin: 0;"">Is there a person in this image?</p>
                    </div>
                </div>","1","main_experiment_trial","1","hotel_scheme","schematic_sequence","chronological","","","","","","",""
"","","","","","html-keyboard-response","61","283193","0.0-61.0","ACE2AB98744A4CC38C0AC6401D16E272","019cfc66-bc1f-75e4-b246-39a824337a91","019cfc28-2143-7934-89cc-ce6402563331","","null","
                <div class=""stimulus-container"">
                    <img src=""images/schematic_sequence/hotel_scheme/hotel_scheme_2.png"" class=""exp-image"">
                    <div class=""question-area""></div> 
                </div>","null","","","","","","","","","","","",""
"","","","","","html-button-response","62","284603","0.0-62.0","ACE2AB98744A4CC38C0AC6401D16E272","019cfc66-bc1f-75e4-b246-39a824337a91","019cfc28-2143-7934-89cc-ce6402563331","","1409","
                <div class=""stimulus-container"">
                    <img src=""images/schematic_sequence/hotel_scheme/hotel_scheme_2.png"" class=""exp-image"">
                    <div class=""question-area"">
                        <p style=""font-size: 20px; font-weight: bold; margin: 0;"">Is there a person in this image?</p>
                    </div>
                </div>","0","main_experiment_trial","2","hotel_scheme","schematic_sequence","chronological","","","","","","",""
"","","","","","html-keyboard-response","63","289605","0.0-63.0","ACE2AB98744A4CC38C0AC6401D16E272","019cfc66-bc1f-75e4-b246-39a824337a91","019cfc28-2143-7934-89cc-ce6402563331","","null","
                <div class=""stimulus-container"">
                    <img src=""images/schematic_sequence/hotel_scheme/hotel_scheme_3.png"" class=""exp-image"">
                    <div class=""question-area""></div> 
                </div>","null","","","","","","","","","","","",""
"","","","","","html-button-response","64","290184","0.0-64.0","ACE2AB98744A4CC38C0AC6401D16E272","019cfc66-bc1f-75e4-b246-39a824337a91","019cfc28-2143-7934-89cc-ce6402563331","","578","
                <div class=""stimulus-container"">
                    <img src=""images/schematic_sequence/hotel_scheme/hotel_scheme_3.png"" class=""exp-image"">
                    <div class=""question-area"">
                        <p style=""font-size: 20px; font-weight: bold; margin: 0;"">Is there a person in this image?</p>
                    </div>
                </div>","0","main_experiment_trial","3","hotel_scheme","schematic_sequence","chronological","","","","","","",""
"","","","","","html-keyboard-response","65","295204","0.0-65.0","ACE2AB98744A4CC38C0AC6401D16E272","019cfc66-bc1f-75e4-b246-39a824337a91","019cfc28-2143-7934-89cc-ce6402563331","","null","
                <div class=""stimulus-container"">
                    <img src=""images/schematic_sequence/hotel_scheme/hotel_scheme_4.png"" class=""exp-image"">
                    <div class=""question-area""></div> 
                </div>","null","","","","","","","","","","","",""
"","","","","","html-button-response","66","295838","0.0-66.0","ACE2AB98744A4CC38C0AC6401D16E272","019cfc66-bc1f-75e4-b246-39a824337a91","019cfc28-2143-7934-89cc-ce6402563331","","633","
                <div class=""stimulus-container"">
                    <img src=""images/schematic_sequence/hotel_scheme/hotel_scheme_4.png"" class=""exp-image"">
                    <div class=""question-area"">
                        <p style=""font-size: 20px; font-weight: bold; margin: 0;"">Is there a person in this image?</p>
                    </div>
                </div>","1","main_experiment_trial","4","hotel_scheme","schematic_sequence","chronological","","","","","","",""
"","","","","","html-keyboard-response","67","300848","0.0-67.0","ACE2AB98744A4CC38C0AC6401D16E272","019cfc66-bc1f-75e4-b246-39a824337a91","019cfc28-2143-7934-89cc-ce6402563331","","null","
                <div class=""stimulus-container"">
                    <img src=""images/schematic_sequence/hotel_scheme/hotel_scheme_5.png"" class=""exp-image"">
                    <div class=""question-area""></div> 
                </div>","null","","","","","","","","","","","",""
"","","","","","html-button-response","68","301435","0.0-68.0","ACE2AB98744A4CC38C0AC6401D16E272","019cfc66-bc1f-75e4-b246-39a824337a91","019cfc28-2143-7934-89cc-ce6402563331","","586","
                <div class=""stimulus-container"">
                    <img src=""images/schematic_sequence/hotel_scheme/hotel_scheme_5.png"" class=""exp-image"">
                    <div class=""question-area"">
                        <p style=""font-size: 20px; font-weight: bold; margin: 0;"">Is there a person in this image?</p>
                    </div>
                </div>","0","main_experiment_trial","5","hotel_scheme","schematic_sequence","chronological","","","","","","",""
"","","","","","html-keyboard-response","69","306447","0.0-69.0","ACE2AB98744A4CC38C0AC6401D16E272","019cfc66-bc1f-75e4-b246-39a824337a91","019cfc28-2143-7934-89cc-ce6402563331","","null","
                <div class=""stimulus-container"">
                    <img src=""images/schematic_sequence/hotel_scheme/hotel_scheme_6.png"" class=""exp-image"">
                    <div class=""question-area""></div> 
                </div>","null","","","","","","","","","","","",""
"","","","","","html-button-response","70","307480","0.0-70.0","ACE2AB98744A4CC38C0AC6401D16E272","019cfc66-bc1f-75e4-b246-39a824337a91","019cfc28-2143-7934-89cc-ce6402563331","","1032","
                <div class=""stimulus-container"">
                    <img src=""images/schematic_sequence/hotel_scheme/hotel_scheme_6.png"" class=""exp-image"">
                    <div class=""question-area"">
                        <p style=""font-size: 20px; font-weight: bold; margin: 0;"">Is there a person in this image?</p>
                    </div>
                </div>","0","main_experiment_trial","6","hotel_scheme","schematic_sequence","chronological","","","","","","",""
"","","","","","html-keyboard-response","71","312486","0.0-71.0","ACE2AB98744A4CC38C0AC6401D16E272","019cfc66-bc1f-75e4-b246-39a824337a91","019cfc28-2143-7934-89cc-ce6402563331","","null","
                <div class=""stimulus-container"">
                    <img src=""images/schematic_sequence/hotel_scheme/hotel_scheme_7.png"" class=""exp-image"">
                    <div class=""question-area""></div> 
                </div>","null","","","","","","","","","","","",""
"","","","","","html-button-response","72","313133","0.0-72.0","ACE2AB98744A4CC38C0AC6401D16E272","019cfc66-bc1f-75e4-b246-39a824337a91","019cfc28-2143-7934-89cc-ce6402563331","","647","
                <div class=""stimulus-container"">
                    <img src=""images/schematic_sequence/hotel_scheme/hotel_scheme_7.png"" class=""exp-image"">
                    <div class=""question-area"">
                        <p style=""font-size: 20px; font-weight: bold; margin: 0;"">Is there a person in this image?</p>
                    </div>
                </div>","0","main_experiment_trial","7","hotel_scheme","schematic_sequence","chronological","","","","","","",""
"","","","","","html-keyboard-response","73","318153","0.0-73.0","ACE2AB98744A4CC38C0AC6401D16E272","019cfc66-bc1f-75e4-b246-39a824337a91","019cfc28-2143-7934-89cc-ce6402563331","","null","
                <div class=""stimulus-container"">
                    <img src=""images/schematic_sequence/hotel_scheme/hotel_scheme_8.png"" class=""exp-image"">
                    <div class=""question-area""></div> 
                </div>","null","","","","","","","","","","","",""
"","","","","","html-button-response","74","318891","0.0-74.0","ACE2AB98744A4CC38C0AC6401D16E272","019cfc66-bc1f-75e4-b246-39a824337a91","019cfc28-2143-7934-89cc-ce6402563331","","737","
                <div class=""stimulus-container"">
                    <img src=""images/schematic_sequence/hotel_scheme/hotel_scheme_8.png"" class=""exp-image"">
                    <div class=""question-area"">
                        <p style=""font-size: 20px; font-weight: bold; margin: 0;"">Is there a person in this image?</p>
                    </div>
                </div>","0","main_experiment_trial","8","hotel_scheme","schematic_sequence","chronological","","","","","","",""
"","","","","","html-keyboard-response","75","323908","0.0-75.0","ACE2AB98744A4CC38C0AC6401D16E272","019cfc66-bc1f-75e4-b246-39a824337a91","019cfc28-2143-7934-89cc-ce6402563331","","null","
                <div class=""stimulus-container"">
                    <img src=""images/schematic_sequence/hotel_scheme/hotel_scheme_9.png"" class=""exp-image"">
                    <div class=""question-area""></div> 
                </div>","null","","","","","","","","","","","",""
"","","","","","html-button-response","76","324655","0.0-76.0","ACE2AB98744A4CC38C0AC6401D16E272","019cfc66-bc1f-75e4-b246-39a824337a91","019cfc28-2143-7934-89cc-ce6402563331","","746","
                <div class=""stimulus-container"">
                    <img src=""images/schematic_sequence/hotel_scheme/hotel_scheme_9.png"" class=""exp-image"">
                    <div class=""question-area"">
                        <p style=""font-size: 20px; font-weight: bold; margin: 0;"">Is there a person in this image?</p>
                    </div>
                </div>","0","main_experiment_trial","9","hotel_scheme","schematic_sequence","chronological","","","","","","",""
"","","","","","html-keyboard-response","77","329674","0.0-77.0","ACE2AB98744A4CC38C0AC6401D16E272","019cfc66-bc1f-75e4-b246-39a824337a91","019cfc28-2143-7934-89cc-ce6402563331","","null","
                <div class=""stimulus-container"">
                    <img src=""images/schematic_sequence/hotel_scheme/hotel_scheme_ten.png"" class=""exp-image"">
                    <div class=""question-area""></div> 
                </div>","null","","","","","","","","","","","",""
"","","","","","html-button-response","78","330581","0.0-78.0","ACE2AB98744A4CC38C0AC6401D16E272","019cfc66-bc1f-75e4-b246-39a824337a91","019cfc28-2143-7934-89cc-ce6402563331","","906","
                <div class=""stimulus-container"">
                    <img src=""images/schematic_sequence/hotel_scheme/hotel_scheme_ten.png"" class=""exp-image"">
                    <div class=""question-area"">
                        <p style=""font-size: 20px; font-weight: bold; margin: 0;"">Is there a person in this image?</p>
                    </div>
                </div>","0","main_experiment_trial","ten","hotel_scheme","schematic_sequence","chronological","","","","","","",""
"","","","","","html-keyboard-response","79","335603","0.0-79.0","ACE2AB98744A4CC38C0AC6401D16E272","019cfc66-bc1f-75e4-b246-39a824337a91","019cfc28-2143-7934-89cc-ce6402563331","","null","<div style=""background-color: white; width: 100vw; height: 100vh;""></div>","null","","","","","","","","","","","",""
"","","","","","html-keyboard-response","80","340619","0.0-80.0","ACE2AB98744A4CC38C0AC6401D16E272","019cfc66-bc1f-75e4-b246-39a824337a91","019cfc28-2143-7934-89cc-ce6402563331","","null","
                <div class=""stimulus-container"">
                    <img src=""images/semantic_sequence/physical_activity_semantic/physical_activity_semantic_1.png"" class=""exp-image"">
                    <div class=""question-area""></div> 
                </div>","null","","","","","","","","","","","",""
"","","","","","html-button-response","81","341152","0.0-81.0","ACE2AB98744A4CC38C0AC6401D16E272","019cfc66-bc1f-75e4-b246-39a824337a91","019cfc28-2143-7934-89cc-ce6402563331","","532","
                <div class=""stimulus-container"">
                    <img src=""images/semantic_sequence/physical_activity_semantic/physical_activity_semantic_1.png"" class=""exp-image"">
                    <div class=""question-area"">
                        <p style=""font-size: 20px; font-weight: bold; margin: 0;"">Is there a person in this image?</p>
                    </div>
                </div>","0","main_experiment_trial","1","physical_activity_semantic","semantic_sequence","chronological","","","","","","",""
"","","","","","html-keyboard-response","82","346158","0.0-82.0","ACE2AB98744A4CC38C0AC6401D16E272","019cfc66-bc1f-75e4-b246-39a824337a91","019cfc28-2143-7934-89cc-ce6402563331","","null","
                <div class=""stimulus-container"">
                    <img src=""images/semantic_sequence/physical_activity_semantic/physical_activity_semantic_2.png"" class=""exp-image"">
                    <div class=""question-area""></div> 
                </div>","null","","","","","","","","","","","",""
"","","","","","html-button-response","83","346941","0.0-83.0","ACE2AB98744A4CC38C0AC6401D16E272","019cfc66-bc1f-75e4-b246-39a824337a91","019cfc28-2143-7934-89cc-ce6402563331","","782","
                <div class=""stimulus-container"">
                    <img src=""images/semantic_sequence/physical_activity_semantic/physical_activity_semantic_2.png"" class=""exp-image"">
                    <div class=""question-area"">
                        <p style=""font-size: 20px; font-weight: bold; margin: 0;"">Is there a person in this image?</p>
                    </div>
                </div>","0","main_experiment_trial","2","physical_activity_semantic","semantic_sequence","chronological","","","","","","",""
"","","","","","html-keyboard-response","84","351954","0.0-84.0","ACE2AB98744A4CC38C0AC6401D16E272","019cfc66-bc1f-75e4-b246-39a824337a91","019cfc28-2143-7934-89cc-ce6402563331","","null","
                <div class=""stimulus-container"">
                    <img src=""images/semantic_sequence/physical_activity_semantic/physical_activity_semantic_3.png"" class=""exp-image"">
                    <div class=""question-area""></div> 
                </div>","null","","","","","","","","","","","",""
"","","","","","html-button-response","85","352714","0.0-85.0","ACE2AB98744A4CC38C0AC6401D16E272","019cfc66-bc1f-75e4-b246-39a824337a91","019cfc28-2143-7934-89cc-ce6402563331","","759","
                <div class=""stimulus-container"">
                    <img src=""images/semantic_sequence/physical_activity_semantic/physical_activity_semantic_3.png"" class=""exp-image"">
                    <div class=""question-area"">
                        <p style=""font-size: 20px; font-weight: bold; margin: 0;"">Is there a person in this image?</p>
                    </div>
                </div>","0","main_experiment_trial","3","physical_activity_semantic","semantic_sequence","chronological","","","","","","",""
"","","","","","html-keyboard-response","86","357731","0.0-86.0","ACE2AB98744A4CC38C0AC6401D16E272","019cfc66-bc1f-75e4-b246-39a824337a91","019cfc28-2143-7934-89cc-ce6402563331","","null","
                <div class=""stimulus-container"">
                    <img src=""images/semantic_sequence/physical_activity_semantic/physical_activity_semantic_4.png"" class=""exp-image"">
                    <div class=""question-area""></div> 
                </div>","null","","","","","","","","","","","",""
"","","","","","html-button-response","87","358312","0.0-87.0","ACE2AB98744A4CC38C0AC6401D16E272","019cfc66-bc1f-75e4-b246-39a824337a91","019cfc28-2143-7934-89cc-ce6402563331","","581","
                <div class=""stimulus-container"">
                    <img src=""images/semantic_sequence/physical_activity_semantic/physical_activity_semantic_4.png"" class=""exp-image"">
                    <div class=""question-area"">
                        <p style=""font-size: 20px; font-weight: bold; margin: 0;"">Is there a person in this image?</p>
                    </div>
                </div>","0","main_experiment_trial","4","physical_activity_semantic","semantic_sequence","chronological","","","","","","",""
"","","","","","html-keyboard-response","88","363332","0.0-88.0","ACE2AB98744A4CC38C0AC6401D16E272","019cfc66-bc1f-75e4-b246-39a824337a91","019cfc28-2143-7934-89cc-ce6402563331","","null","
                <div class=""stimulus-container"">
                    <img src=""images/semantic_sequence/physical_activity_semantic/physical_activity_semantic_5.png"" class=""exp-image"">
                    <div class=""question-area""></div> 
                </div>","null","","","","","","","","","","","",""
"","","","","","html-button-response","89","364829","0.0-89.0","ACE2AB98744A4CC38C0AC6401D16E272","019cfc66-bc1f-75e4-b246-39a824337a91","019cfc28-2143-7934-89cc-ce6402563331","","1496","
                <div class=""stimulus-container"">
                    <img src=""images/semantic_sequence/physical_activity_semantic/physical_activity_semantic_5.png"" class=""exp-image"">
                    <div class=""question-area"">
                        <p style=""font-size: 20px; font-weight: bold; margin: 0;"">Is there a person in this image?</p>
                    </div>
                </div>","0","main_experiment_trial","5","physical_activity_semantic","semantic_sequence","chronological","","","","","","",""
"","","","","","html-keyboard-response","90","369852","0.0-90.0","ACE2AB98744A4CC38C0AC6401D16E272","019cfc66-bc1f-75e4-b246-39a824337a91","019cfc28-2143-7934-89cc-ce6402563331","","null","
                <div class=""stimulus-container"">
                    <img src=""images/semantic_sequence/physical_activity_semantic/physical_activity_semantic_6.png"" class=""exp-image"">
                    <div class=""question-area""></div> 
                </div>","null","","","","","","","","","","","",""
"","","","","","html-button-response","91","370474","0.0-91.0","ACE2AB98744A4CC38C0AC6401D16E272","019cfc66-bc1f-75e4-b246-39a824337a91","019cfc28-2143-7934-89cc-ce6402563331","","621","
                <div class=""stimulus-container"">
                    <img src=""images/semantic_sequence/physical_activity_semantic/physical_activity_semantic_6.png"" class=""exp-image"">
                    <div class=""question-area"">
                        <p style=""font-size: 20px; font-weight: bold; margin: 0;"">Is there a person in this image?</p>
                    </div>
                </div>","0","main_experiment_trial","6","physical_activity_semantic","semantic_sequence","chronological","","","","","","",""
"","","","","","html-keyboard-response","92","375483","0.0-92.0","ACE2AB98744A4CC38C0AC6401D16E272","019cfc66-bc1f-75e4-b246-39a824337a91","019cfc28-2143-7934-89cc-ce6402563331","","null","
                <div class=""stimulus-container"">
                    <img src=""images/semantic_sequence/physical_activity_semantic/physical_activity_semantic_7.png"" class=""exp-image"">
                    <div class=""question-area""></div> 
                </div>","null","","","","","","","","","","","",""
"","","","","","html-button-response","93","375944","0.0-93.0","ACE2AB98744A4CC38C0AC6401D16E272","019cfc66-bc1f-75e4-b246-39a824337a91","019cfc28-2143-7934-89cc-ce6402563331","","460","
                <div class=""stimulus-container"">
                    <img src=""images/semantic_sequence/physical_activity_semantic/physical_activity_semantic_7.png"" class=""exp-image"">
                    <div class=""question-area"">
                        <p style=""font-size: 20px; font-weight: bold; margin: 0;"">Is there a person in this image?</p>
                    </div>
                </div>","0","main_experiment_trial","7","physical_activity_semantic","semantic_sequence","chronological","","","","","","",""
"","","","","","html-keyboard-response","94","380952","0.0-94.0","ACE2AB98744A4CC38C0AC6401D16E272","019cfc66-bc1f-75e4-b246-39a824337a91","019cfc28-2143-7934-89cc-ce6402563331","","null","
                <div class=""stimulus-container"">
                    <img src=""images/semantic_sequence/physical_activity_semantic/physical_activity_semantic_8.png"" class=""exp-image"">
                    <div class=""question-area""></div> 
                </div>","null","","","","","","","","","","","",""
"","","","","","html-button-response","95","381493","0.0-95.0","ACE2AB98744A4CC38C0AC6401D16E272","019cfc66-bc1f-75e4-b246-39a824337a91","019cfc28-2143-7934-89cc-ce6402563331","","540","
                <div class=""stimulus-container"">
                    <img src=""images/semantic_sequence/physical_activity_semantic/physical_activity_semantic_8.png"" class=""exp-image"">
                    <div class=""question-area"">
                        <p style=""font-size: 20px; font-weight: bold; margin: 0;"">Is there a person in this image?</p>
                    </div>
                </div>","0","main_experiment_trial","8","physical_activity_semantic","semantic_sequence","chronological","","","","","","",""
"","","","","","html-keyboard-response","96","386516","0.0-96.0","ACE2AB98744A4CC38C0AC6401D16E272","019cfc66-bc1f-75e4-b246-39a824337a91","019cfc28-2143-7934-89cc-ce6402563331","","null","
                <div class=""stimulus-container"">
                    <img src=""images/semantic_sequence/physical_activity_semantic/physical_activity_semantic_9.png"" class=""exp-image"">
                    <div class=""question-area""></div> 
                </div>","null","","","","","","","","","","","",""
"","","","","","html-button-response","97","387138","0.0-97.0","ACE2AB98744A4CC38C0AC6401D16E272","019cfc66-bc1f-75e4-b246-39a824337a91","019cfc28-2143-7934-89cc-ce6402563331","","621","
                <div class=""stimulus-container"">
                    <img src=""images/semantic_sequence/physical_activity_semantic/physical_activity_semantic_9.png"" class=""exp-image"">
                    <div class=""question-area"">
                        <p style=""font-size: 20px; font-weight: bold; margin: 0;"">Is there a person in this image?</p>
                    </div>
                </div>","0","main_experiment_trial","9","physical_activity_semantic","semantic_sequence","chronological","","","","","","",""
"","","","","","html-keyboard-response","98","392151","0.0-98.0","ACE2AB98744A4CC38C0AC6401D16E272","019cfc66-bc1f-75e4-b246-39a824337a91","019cfc28-2143-7934-89cc-ce6402563331","","null","
                <div class=""stimulus-container"">
                    <img src=""images/semantic_sequence/physical_activity_semantic/physical_activity_semantic_ten.png"" class=""exp-image"">
                    <div class=""question-area""></div> 
                </div>","null","","","","","","","","","","","",""
"","","","","","html-button-response","99","392720","0.0-99.0","ACE2AB98744A4CC38C0AC6401D16E272","019cfc66-bc1f-75e4-b246-39a824337a91","019cfc28-2143-7934-89cc-ce6402563331","","568","
                <div class=""stimulus-container"">
                    <img src=""images/semantic_sequence/physical_activity_semantic/physical_activity_semantic_ten.png"" class=""exp-image"">
                    <div class=""question-area"">
                        <p style=""font-size: 20px; font-weight: bold; margin: 0;"">Is there a person in this image?</p>
                    </div>
                </div>","0","main_experiment_trial","ten","physical_activity_semantic","semantic_sequence","chronological","","","","","","",""
"","","","","","html-keyboard-response","100","397736","0.0-100.0","ACE2AB98744A4CC38C0AC6401D16E272","019cfc66-bc1f-75e4-b246-39a824337a91","019cfc28-2143-7934-89cc-ce6402563331","","null","<div style=""background-color: white; width: 100vw; height: 100vh;""></div>","null","","","","","","","","","","","",""
"","","","","","html-keyboard-response","101","402756","0.0-101.0","ACE2AB98744A4CC38C0AC6401D16E272","019cfc66-bc1f-75e4-b246-39a824337a91","019cfc28-2143-7934-89cc-ce6402563331","","null","
                <div class=""stimulus-container"">
                    <img src=""images/schematic_sequence/dinner_party_scheme/dinner_party_scheme_1.png"" class=""exp-image"">
                    <div class=""question-area""></div> 
                </div>","null","","","","","","","","","","","",""
"","","","","","html-button-response","102","403315","0.0-102.0","ACE2AB98744A4CC38C0AC6401D16E272","019cfc66-bc1f-75e4-b246-39a824337a91","019cfc28-2143-7934-89cc-ce6402563331","","558","
                <div class=""stimulus-container"">
                    <img src=""images/schematic_sequence/dinner_party_scheme/dinner_party_scheme_1.png"" class=""exp-image"">
                    <div class=""question-area"">
                        <p style=""font-size: 20px; font-weight: bold; margin: 0;"">Is there a person in this image?</p>
                    </div>
                </div>","0","main_experiment_trial","1","dinner_party_scheme","schematic_sequence","chronological","","","","","","",""
"","","","","","html-keyboard-response","103","408328","0.0-103.0","ACE2AB98744A4CC38C0AC6401D16E272","019cfc66-bc1f-75e4-b246-39a824337a91","019cfc28-2143-7934-89cc-ce6402563331","","null","
                <div class=""stimulus-container"">
                    <img src=""images/schematic_sequence/dinner_party_scheme/dinner_party_scheme_2.png"" class=""exp-image"">
                    <div class=""question-area""></div> 
                </div>","null","","","","","","","","","","","",""
"","","","","","html-button-response","104","408784","0.0-104.0","ACE2AB98744A4CC38C0AC6401D16E272","019cfc66-bc1f-75e4-b246-39a824337a91","019cfc28-2143-7934-89cc-ce6402563331","","455","
                <div class=""stimulus-container"">
                    <img src=""images/schematic_sequence/dinner_party_scheme/dinner_party_scheme_2.png"" class=""exp-image"">
                    <div class=""question-area"">
                        <p style=""font-size: 20px; font-weight: bold; margin: 0;"">Is there a person in this image?</p>
                    </div>
                </div>","0","main_experiment_trial","2","dinner_party_scheme","schematic_sequence","chronological","","","","","","",""
"","","","","","html-keyboard-response","105","413802","0.0-105.0","ACE2AB98744A4CC38C0AC6401D16E272","019cfc66-bc1f-75e4-b246-39a824337a91","019cfc28-2143-7934-89cc-ce6402563331","","null","
                <div class=""stimulus-container"">
                    <img src=""images/schematic_sequence/dinner_party_scheme/dinner_party_scheme_3.png"" class=""exp-image"">
                    <div class=""question-area""></div> 
                </div>","null","","","","","","","","","","","",""
"","","","","","html-button-response","106","414229","0.0-106.0","ACE2AB98744A4CC38C0AC6401D16E272","019cfc66-bc1f-75e4-b246-39a824337a91","019cfc28-2143-7934-89cc-ce6402563331","","426","
                <div class=""stimulus-container"">
                    <img src=""images/schematic_sequence/dinner_party_scheme/dinner_party_scheme_3.png"" class=""exp-image"">
                    <div class=""question-area"">
                        <p style=""font-size: 20px; font-weight: bold; margin: 0;"">Is there a person in this image?</p>
                    </div>
                </div>","0","main_experiment_trial","3","dinner_party_scheme","schematic_sequence","chronological","","","","","","",""
"","","","","","html-keyboard-response","107","419238","0.0-107.0","ACE2AB98744A4CC38C0AC6401D16E272","019cfc66-bc1f-75e4-b246-39a824337a91","019cfc28-2143-7934-89cc-ce6402563331","","null","
                <div class=""stimulus-container"">
                    <img src=""images/schematic_sequence/dinner_party_scheme/dinner_party_scheme_4.png"" class=""exp-image"">
                    <div class=""question-area""></div> 
                </div>","null","","","","","","","","","","","",""
"","","","","","html-button-response","108","420483","0.0-108.0","ACE2AB98744A4CC38C0AC6401D16E272","019cfc66-bc1f-75e4-b246-39a824337a91","019cfc28-2143-7934-89cc-ce6402563331","","1244","
                <div class=""stimulus-container"">
                    <img src=""images/schematic_sequence/dinner_party_scheme/dinner_party_scheme_4.png"" class=""exp-image"">
                    <div class=""question-area"">
                        <p style=""font-size: 20px; font-weight: bold; margin: 0;"">Is there a person in this image?</p>
                    </div>
                </div>","0","main_experiment_trial","4","dinner_party_scheme","schematic_sequence","chronological","","","","","","",""
"","","","","","html-keyboard-response","109","425495","0.0-109.0","ACE2AB98744A4CC38C0AC6401D16E272","019cfc66-bc1f-75e4-b246-39a824337a91","019cfc28-2143-7934-89cc-ce6402563331","","null","
                <div class=""stimulus-container"">
                    <img src=""images/schematic_sequence/dinner_party_scheme/dinner_party_scheme_5.png"" class=""exp-image"">
                    <div class=""question-area""></div> 
                </div>","null","","","","","","","","","","","",""
"","","","","","html-button-response","110","426016","0.0-110.0","ACE2AB98744A4CC38C0AC6401D16E272","019cfc66-bc1f-75e4-b246-39a824337a91","019cfc28-2143-7934-89cc-ce6402563331","","519","
                <div class=""stimulus-container"">
                    <img src=""images/schematic_sequence/dinner_party_scheme/dinner_party_scheme_5.png"" class=""exp-image"">
                    <div class=""question-area"">
                        <p style=""font-size: 20px; font-weight: bold; margin: 0;"">Is there a person in this image?</p>
                    </div>
                </div>","0","main_experiment_trial","5","dinner_party_scheme","schematic_sequence","chronological","","","","","","",""
"","","","","","html-keyboard-response","111","431030","0.0-111.0","ACE2AB98744A4CC38C0AC6401D16E272","019cfc66-bc1f-75e4-b246-39a824337a91","019cfc28-2143-7934-89cc-ce6402563331","","null","
                <div class=""stimulus-container"">
                    <img src=""images/schematic_sequence/dinner_party_scheme/dinner_party_scheme_6.png"" class=""exp-image"">
                    <div class=""question-area""></div> 
                </div>","null","","","","","","","","","","","",""
"","","","","","html-button-response","112","431486","0.0-112.0","ACE2AB98744A4CC38C0AC6401D16E272","019cfc66-bc1f-75e4-b246-39a824337a91","019cfc28-2143-7934-89cc-ce6402563331","","455","
                <div class=""stimulus-container"">
                    <img src=""images/schematic_sequence/dinner_party_scheme/dinner_party_scheme_6.png"" class=""exp-image"">
                    <div class=""question-area"">
                        <p style=""font-size: 20px; font-weight: bold; margin: 0;"">Is there a person in this image?</p>
                    </div>
                </div>","0","main_experiment_trial","6","dinner_party_scheme","schematic_sequence","chronological","","","","","","",""
"","","","","","html-keyboard-response","113","436500","0.0-113.0","ACE2AB98744A4CC38C0AC6401D16E272","019cfc66-bc1f-75e4-b246-39a824337a91","019cfc28-2143-7934-89cc-ce6402563331","","null","
                <div class=""stimulus-container"">
                    <img src=""images/schematic_sequence/dinner_party_scheme/dinner_party_scheme_7.png"" class=""exp-image"">
                    <div class=""question-area""></div> 
                </div>","null","","","","","","","","","","","",""
"","","","","","html-button-response","114","436914","0.0-114.0","ACE2AB98744A4CC38C0AC6401D16E272","019cfc66-bc1f-75e4-b246-39a824337a91","019cfc28-2143-7934-89cc-ce6402563331","","414","
                <div class=""stimulus-container"">
                    <img src=""images/schematic_sequence/dinner_party_scheme/dinner_party_scheme_7.png"" class=""exp-image"">
                    <div class=""question-area"">
                        <p style=""font-size: 20px; font-weight: bold; margin: 0;"">Is there a person in this image?</p>
                    </div>
                </div>","0","main_experiment_trial","7","dinner_party_scheme","schematic_sequence","chronological","","","","","","",""
"","","","","","html-keyboard-response","115","441926","0.0-115.0","ACE2AB98744A4CC38C0AC6401D16E272","019cfc66-bc1f-75e4-b246-39a824337a91","019cfc28-2143-7934-89cc-ce6402563331","","null","
                <div class=""stimulus-container"">
                    <img src=""images/schematic_sequence/dinner_party_scheme/dinner_party_scheme_8.png"" class=""exp-image"">
                    <div class=""question-area""></div> 
                </div>","null","","","","","","","","","","","",""
"","","","","","html-button-response","116","442320","0.0-116.0","ACE2AB98744A4CC38C0AC6401D16E272","019cfc66-bc1f-75e4-b246-39a824337a91","019cfc28-2143-7934-89cc-ce6402563331","","394","
                <div class=""stimulus-container"">
                    <img src=""images/schematic_sequence/dinner_party_scheme/dinner_party_scheme_8.png"" class=""exp-image"">
                    <div class=""question-area"">
                        <p style=""font-size: 20px; font-weight: bold; margin: 0;"">Is there a person in this image?</p>
                    </div>
                </div>","0","main_experiment_trial","8","dinner_party_scheme","schematic_sequence","chronological","","","","","","",""
"","","","","","html-keyboard-response","117","447332","0.0-117.0","ACE2AB98744A4CC38C0AC6401D16E272","019cfc66-bc1f-75e4-b246-39a824337a91","019cfc28-2143-7934-89cc-ce6402563331","","null","
                <div class=""stimulus-container"">
                    <img src=""images/schematic_sequence/dinner_party_scheme/dinner_party_scheme_9.png"" class=""exp-image"">
                    <div class=""question-area""></div> 
                </div>","null","","","","","","","","","","","",""
"","","","","","html-button-response","118","447973","0.0-118.0","ACE2AB98744A4CC38C0AC6401D16E272","019cfc66-bc1f-75e4-b246-39a824337a91","019cfc28-2143-7934-89cc-ce6402563331","","641","
                <div class=""stimulus-container"">
                    <img src=""images/schematic_sequence/dinner_party_scheme/dinner_party_scheme_9.png"" class=""exp-image"">
                    <div class=""question-area"">
                        <p style=""font-size: 20px; font-weight: bold; margin: 0;"">Is there a person in this image?</p>
                    </div>
                </div>","0","main_experiment_trial","9","dinner_party_scheme","schematic_sequence","chronological","","","","","","",""
"","","","","","html-keyboard-response","119","452993","0.0-119.0","ACE2AB98744A4CC38C0AC6401D16E272","019cfc66-bc1f-75e4-b246-39a824337a91","019cfc28-2143-7934-89cc-ce6402563331","","null","
                <div class=""stimulus-container"">
                    <img src=""images/schematic_sequence/dinner_party_scheme/dinner_party_scheme_ten.png"" class=""exp-image"">
                    <div class=""question-area""></div> 
                </div>","null","","","","","","","","","","","",""
"","","","","","html-button-response","120","453610","0.0-120.0","ACE2AB98744A4CC38C0AC6401D16E272","019cfc66-bc1f-75e4-b246-39a824337a91","019cfc28-2143-7934-89cc-ce6402563331","","616","
                <div class=""stimulus-container"">
                    <img src=""images/schematic_sequence/dinner_party_scheme/dinner_party_scheme_ten.png"" class=""exp-image"">
                    <div class=""question-area"">
                        <p style=""font-size: 20px; font-weight: bold; margin: 0;"">Is there a person in this image?</p>
                    </div>
                </div>","0","main_experiment_trial","ten","dinner_party_scheme","schematic_sequence","chronological","","","","","","",""
"","","","","","html-keyboard-response","121","458627","0.0-121.0","ACE2AB98744A4CC38C0AC6401D16E272","019cfc66-bc1f-75e4-b246-39a824337a91","019cfc28-2143-7934-89cc-ce6402563331","","null","<div style=""background-color: white; width: 100vw; height: 100vh;""></div>","null","","","","","","","","","","","",""
"","","","","","html-keyboard-response","122","463640","0.0-122.0","ACE2AB98744A4CC38C0AC6401D16E272","019cfc66-bc1f-75e4-b246-39a824337a91","019cfc28-2143-7934-89cc-ce6402563331","","null","
                <div class=""stimulus-container"">
                    <img src=""images/schematic_sequence/supermarket_scheme/supermarket_scheme_1.png"" class=""exp-image"">
                    <div class=""question-area""></div> 
                </div>","null","","","","","","","","","","","",""
"","","","","","html-button-response","123","464317","0.0-123.0","ACE2AB98744A4CC38C0AC6401D16E272","019cfc66-bc1f-75e4-b246-39a824337a91","019cfc28-2143-7934-89cc-ce6402563331","","676","
                <div class=""stimulus-container"">
                    <img src=""images/schematic_sequence/supermarket_scheme/supermarket_scheme_1.png"" class=""exp-image"">
                    <div class=""question-area"">
                        <p style=""font-size: 20px; font-weight: bold; margin: 0;"">Is there a person in this image?</p>
                    </div>
                </div>","1","main_experiment_trial","1","supermarket_scheme","schematic_sequence","chronological","","","","","","",""
"","","","","","html-keyboard-response","124","469339","0.0-124.0","ACE2AB98744A4CC38C0AC6401D16E272","019cfc66-bc1f-75e4-b246-39a824337a91","019cfc28-2143-7934-89cc-ce6402563331","","null","
                <div class=""stimulus-container"">
                    <img src=""images/schematic_sequence/supermarket_scheme/supermarket_scheme_2.png"" class=""exp-image"">
                    <div class=""question-area""></div> 
                </div>","null","","","","","","","","","","","",""
"","","","","","html-button-response","125","470035","0.0-125.0","ACE2AB98744A4CC38C0AC6401D16E272","019cfc66-bc1f-75e4-b246-39a824337a91","019cfc28-2143-7934-89cc-ce6402563331","","695","
                <div class=""stimulus-container"">
                    <img src=""images/schematic_sequence/supermarket_scheme/supermarket_scheme_2.png"" class=""exp-image"">
                    <div class=""question-area"">
                        <p style=""font-size: 20px; font-weight: bold; margin: 0;"">Is there a person in this image?</p>
                    </div>
                </div>","1","main_experiment_trial","2","supermarket_scheme","schematic_sequence","chronological","","","","","","",""
"","","","","","html-keyboard-response","126","475038","0.0-126.0","ACE2AB98744A4CC38C0AC6401D16E272","019cfc66-bc1f-75e4-b246-39a824337a91","019cfc28-2143-7934-89cc-ce6402563331","","null","
                <div class=""stimulus-container"">
                    <img src=""images/schematic_sequence/supermarket_scheme/supermarket_scheme_3.png"" class=""exp-image"">
                    <div class=""question-area""></div> 
                </div>","null","","","","","","","","","","","",""
"","","","","","html-button-response","127","476872","0.0-127.0","ACE2AB98744A4CC38C0AC6401D16E272","019cfc66-bc1f-75e4-b246-39a824337a91","019cfc28-2143-7934-89cc-ce6402563331","","1833","
                <div class=""stimulus-container"">
                    <img src=""images/schematic_sequence/supermarket_scheme/supermarket_scheme_3.png"" class=""exp-image"">
                    <div class=""question-area"">
                        <p style=""font-size: 20px; font-weight: bold; margin: 0;"">Is there a person in this image?</p>
                    </div>
                </div>","1","main_experiment_trial","3","supermarket_scheme","schematic_sequence","chronological","","","","","","",""
"","","","","","html-keyboard-response","128","481877","0.0-128.0","ACE2AB98744A4CC38C0AC6401D16E272","019cfc66-bc1f-75e4-b246-39a824337a91","019cfc28-2143-7934-89cc-ce6402563331","","null","
                <div class=""stimulus-container"">
                    <img src=""images/schematic_sequence/supermarket_scheme/supermarket_scheme_4.png"" class=""exp-image"">
                    <div class=""question-area""></div> 
                </div>","null","","","","","","","","","","","",""
"","","","","","html-button-response","129","482405","0.0-129.0","ACE2AB98744A4CC38C0AC6401D16E272","019cfc66-bc1f-75e4-b246-39a824337a91","019cfc28-2143-7934-89cc-ce6402563331","","527","
                <div class=""stimulus-container"">
                    <img src=""images/schematic_sequence/supermarket_scheme/supermarket_scheme_4.png"" class=""exp-image"">
                    <div class=""question-area"">
                        <p style=""font-size: 20px; font-weight: bold; margin: 0;"">Is there a person in this image?</p>
                    </div>
                </div>","0","main_experiment_trial","4","supermarket_scheme","schematic_sequence","chronological","","","","","","",""
"","","","","","html-keyboard-response","130","487416","0.0-130.0","ACE2AB98744A4CC38C0AC6401D16E272","019cfc66-bc1f-75e4-b246-39a824337a91","019cfc28-2143-7934-89cc-ce6402563331","","null","
                <div class=""stimulus-container"">
                    <img src=""images/schematic_sequence/supermarket_scheme/supermarket_scheme_5.png"" class=""exp-image"">
                    <div class=""question-area""></div> 
                </div>","null","","","","","","","","","","","",""
"","","","","","html-button-response","131","488738","0.0-131.0","ACE2AB98744A4CC38C0AC6401D16E272","019cfc66-bc1f-75e4-b246-39a824337a91","019cfc28-2143-7934-89cc-ce6402563331","","1321","
                <div class=""stimulus-container"">
                    <img src=""images/schematic_sequence/supermarket_scheme/supermarket_scheme_5.png"" class=""exp-image"">
                    <div class=""question-area"">
                        <p style=""font-size: 20px; font-weight: bold; margin: 0;"">Is there a person in this image?</p>
                    </div>
                </div>","0","main_experiment_trial","5","supermarket_scheme","schematic_sequence","chronological","","","","","","",""
"","","","","","html-keyboard-response","132","493751","0.0-132.0","ACE2AB98744A4CC38C0AC6401D16E272","019cfc66-bc1f-75e4-b246-39a824337a91","019cfc28-2143-7934-89cc-ce6402563331","","null","
                <div class=""stimulus-container"">
                    <img src=""images/schematic_sequence/supermarket_scheme/supermarket_scheme_6.png"" class=""exp-image"">
                    <div class=""question-area""></div> 
                </div>","null","","","","","","","","","","","",""
"","","","","","html-button-response","133","494574","0.0-133.0","ACE2AB98744A4CC38C0AC6401D16E272","019cfc66-bc1f-75e4-b246-39a824337a91","019cfc28-2143-7934-89cc-ce6402563331","","822","
                <div class=""stimulus-container"">
                    <img src=""images/schematic_sequence/supermarket_scheme/supermarket_scheme_6.png"" class=""exp-image"">
                    <div class=""question-area"">
                        <p style=""font-size: 20px; font-weight: bold; margin: 0;"">Is there a person in this image?</p>
                    </div>
                </div>","0","main_experiment_trial","6","supermarket_scheme","schematic_sequence","chronological","","","","","","",""
"","","","","","html-keyboard-response","134","499590","0.0-134.0","ACE2AB98744A4CC38C0AC6401D16E272","019cfc66-bc1f-75e4-b246-39a824337a91","019cfc28-2143-7934-89cc-ce6402563331","","null","
                <div class=""stimulus-container"">
                    <img src=""images/schematic_sequence/supermarket_scheme/supermarket_scheme_7.png"" class=""exp-image"">
                    <div class=""question-area""></div> 
                </div>","null","","","","","","","","","","","",""
"","","","","","html-button-response","135","500181","0.0-135.0","ACE2AB98744A4CC38C0AC6401D16E272","019cfc66-bc1f-75e4-b246-39a824337a91","019cfc28-2143-7934-89cc-ce6402563331","","590","
                <div class=""stimulus-container"">
                    <img src=""images/schematic_sequence/supermarket_scheme/supermarket_scheme_7.png"" class=""exp-image"">
                    <div class=""question-area"">
                        <p style=""font-size: 20px; font-weight: bold; margin: 0;"">Is there a person in this image?</p>
                    </div>
                </div>","0","main_experiment_trial","7","supermarket_scheme","schematic_sequence","chronological","","","","","","",""
"","","","","","html-keyboard-response","136","505192","0.0-136.0","ACE2AB98744A4CC38C0AC6401D16E272","019cfc66-bc1f-75e4-b246-39a824337a91","019cfc28-2143-7934-89cc-ce6402563331","","null","
                <div class=""stimulus-container"">
                    <img src=""images/schematic_sequence/supermarket_scheme/supermarket_scheme_8.png"" class=""exp-image"">
                    <div class=""question-area""></div> 
                </div>","null","","","","","","","","","","","",""
"","","","","","html-button-response","137","505722","0.0-137.0","ACE2AB98744A4CC38C0AC6401D16E272","019cfc66-bc1f-75e4-b246-39a824337a91","019cfc28-2143-7934-89cc-ce6402563331","","529","
                <div class=""stimulus-container"">
                    <img src=""images/schematic_sequence/supermarket_scheme/supermarket_scheme_8.png"" class=""exp-image"">
                    <div class=""question-area"">
                        <p style=""font-size: 20px; font-weight: bold; margin: 0;"">Is there a person in this image?</p>
                    </div>
                </div>","0","main_experiment_trial","8","supermarket_scheme","schematic_sequence","chronological","","","","","","",""
"","","","","","html-keyboard-response","138","510739","0.0-138.0","ACE2AB98744A4CC38C0AC6401D16E272","019cfc66-bc1f-75e4-b246-39a824337a91","019cfc28-2143-7934-89cc-ce6402563331","","null","
                <div class=""stimulus-container"">
                    <img src=""images/schematic_sequence/supermarket_scheme/supermarket_scheme_9.png"" class=""exp-image"">
                    <div class=""question-area""></div> 
                </div>","null","","","","","","","","","","","",""
"","","","","","html-button-response","139","511671","0.0-139.0","ACE2AB98744A4CC38C0AC6401D16E272","019cfc66-bc1f-75e4-b246-39a824337a91","019cfc28-2143-7934-89cc-ce6402563331","","931","
                <div class=""stimulus-container"">
                    <img src=""images/schematic_sequence/supermarket_scheme/supermarket_scheme_9.png"" class=""exp-image"">
                    <div class=""question-area"">
                        <p style=""font-size: 20px; font-weight: bold; margin: 0;"">Is there a person in this image?</p>
                    </div>
                </div>","0","main_experiment_trial","9","supermarket_scheme","schematic_sequence","chronological","","","","","","",""
"","","","","","html-keyboard-response","140","516691","0.0-140.0","ACE2AB98744A4CC38C0AC6401D16E272","019cfc66-bc1f-75e4-b246-39a824337a91","019cfc28-2143-7934-89cc-ce6402563331","","null","
                <div class=""stimulus-container"">
                    <img src=""images/schematic_sequence/supermarket_scheme/supermarket_scheme_ten.png"" class=""exp-image"">
                    <div class=""question-area""></div> 
                </div>","null","","","","","","","","","","","",""
"","","","","","html-button-response","141","517109","0.0-141.0","ACE2AB98744A4CC38C0AC6401D16E272","019cfc66-bc1f-75e4-b246-39a824337a91","019cfc28-2143-7934-89cc-ce6402563331","","417","
                <div class=""stimulus-container"">
                    <img src=""images/schematic_sequence/supermarket_scheme/supermarket_scheme_ten.png"" class=""exp-image"">
                    <div class=""question-area"">
                        <p style=""font-size: 20px; font-weight: bold; margin: 0;"">Is there a person in this image?</p>
                    </div>
                </div>","1","main_experiment_trial","ten","supermarket_scheme","schematic_sequence","chronological","","","","","","",""
"","","","","","html-keyboard-response","142","522118","0.0-142.0","ACE2AB98744A4CC38C0AC6401D16E272","019cfc66-bc1f-75e4-b246-39a824337a91","019cfc28-2143-7934-89cc-ce6402563331","","null","<div style=""background-color: white; width: 100vw; height: 100vh;""></div>","null","","","","","","","","","","","",""
"","","","","","html-keyboard-response","143","527132","0.0-143.0","ACE2AB98744A4CC38C0AC6401D16E272","019cfc66-bc1f-75e4-b246-39a824337a91","019cfc28-2143-7934-89cc-ce6402563331","","null","
                <div class=""stimulus-container"">
                    <img src=""images/semantic_sequence/maintaining_a_car_semantic/maintaining_a_car_semantic_1.png"" class=""exp-image"">
                    <div class=""question-area""></div> 
                </div>","null","","","","","","","","","","","",""
"","","","","","html-button-response","144","528464","0.0-144.0","ACE2AB98744A4CC38C0AC6401D16E272","019cfc66-bc1f-75e4-b246-39a824337a91","019cfc28-2143-7934-89cc-ce6402563331","","1331","
                <div class=""stimulus-container"">
                    <img src=""images/semantic_sequence/maintaining_a_car_semantic/maintaining_a_car_semantic_1.png"" class=""exp-image"">
                    <div class=""question-area"">
                        <p style=""font-size: 20px; font-weight: bold; margin: 0;"">Is there a person in this image?</p>
                    </div>
                </div>","0","main_experiment_trial","1","maintaining_a_car_semantic","semantic_sequence","chronological","","","","","","",""
"","","","","","html-keyboard-response","145","533474","0.0-145.0","ACE2AB98744A4CC38C0AC6401D16E272","019cfc66-bc1f-75e4-b246-39a824337a91","019cfc28-2143-7934-89cc-ce6402563331","","null","
                <div class=""stimulus-container"">
                    <img src=""images/semantic_sequence/maintaining_a_car_semantic/maintaining_a_car_semantic_2.png"" class=""exp-image"">
                    <div class=""question-area""></div> 
                </div>","null","","","","","","","","","","","",""
"","","","","","html-button-response","146","534356","0.0-146.0","ACE2AB98744A4CC38C0AC6401D16E272","019cfc66-bc1f-75e4-b246-39a824337a91","019cfc28-2143-7934-89cc-ce6402563331","","881","
                <div class=""stimulus-container"">
                    <img src=""images/semantic_sequence/maintaining_a_car_semantic/maintaining_a_car_semantic_2.png"" class=""exp-image"">
                    <div class=""question-area"">
                        <p style=""font-size: 20px; font-weight: bold; margin: 0;"">Is there a person in this image?</p>
                    </div>
                </div>","0","main_experiment_trial","2","maintaining_a_car_semantic","semantic_sequence","chronological","","","","","","",""
"","","","","","html-keyboard-response","147","539365","0.0-147.0","ACE2AB98744A4CC38C0AC6401D16E272","019cfc66-bc1f-75e4-b246-39a824337a91","019cfc28-2143-7934-89cc-ce6402563331","","null","
                <div class=""stimulus-container"">
                    <img src=""images/semantic_sequence/maintaining_a_car_semantic/maintaining_a_car_semantic_3.png"" class=""exp-image"">
                    <div class=""question-area""></div> 
                </div>","null","","","","","","","","","","","",""
"","","","","","html-button-response","148","540081","0.0-148.0","ACE2AB98744A4CC38C0AC6401D16E272","019cfc66-bc1f-75e4-b246-39a824337a91","019cfc28-2143-7934-89cc-ce6402563331","","715","
                <div class=""stimulus-container"">
                    <img src=""images/semantic_sequence/maintaining_a_car_semantic/maintaining_a_car_semantic_3.png"" class=""exp-image"">
                    <div class=""question-area"">
                        <p style=""font-size: 20px; font-weight: bold; margin: 0;"">Is there a person in this image?</p>
                    </div>
                </div>","0","main_experiment_trial","3","maintaining_a_car_semantic","semantic_sequence","chronological","","","","","","",""
"","","","","","html-keyboard-response","149","545095","0.0-149.0","ACE2AB98744A4CC38C0AC6401D16E272","019cfc66-bc1f-75e4-b246-39a824337a91","019cfc28-2143-7934-89cc-ce6402563331","","null","
                <div class=""stimulus-container"">
                    <img src=""images/semantic_sequence/maintaining_a_car_semantic/maintaining_a_car_semantic_4.png"" class=""exp-image"">
                    <div class=""question-area""></div> 
                </div>","null","","","","","","","","","","","",""
"","","","","","html-button-response","150","545567","0.0-150.0","ACE2AB98744A4CC38C0AC6401D16E272","019cfc66-bc1f-75e4-b246-39a824337a91","019cfc28-2143-7934-89cc-ce6402563331","","471","
                <div class=""stimulus-container"">
                    <img src=""images/semantic_sequence/maintaining_a_car_semantic/maintaining_a_car_semantic_4.png"" class=""exp-image"">
                    <div class=""question-area"">
                        <p style=""font-size: 20px; font-weight: bold; margin: 0;"">Is there a person in this image?</p>
                    </div>
                </div>","0","main_experiment_trial","4","maintaining_a_car_semantic","semantic_sequence","chronological","","","","","","",""
"","","","","","html-keyboard-response","151","550587","0.0-151.0","ACE2AB98744A4CC38C0AC6401D16E272","019cfc66-bc1f-75e4-b246-39a824337a91","019cfc28-2143-7934-89cc-ce6402563331","","null","
                <div class=""stimulus-container"">
                    <img src=""images/semantic_sequence/maintaining_a_car_semantic/maintaining_a_car_semantic_5.png"" class=""exp-image"">
                    <div class=""question-area""></div> 
                </div>","null","","","","","","","","","","","",""
"","","","","","html-button-response","152","551492","0.0-152.0","ACE2AB98744A4CC38C0AC6401D16E272","019cfc66-bc1f-75e4-b246-39a824337a91","019cfc28-2143-7934-89cc-ce6402563331","","904","
                <div class=""stimulus-container"">
                    <img src=""images/semantic_sequence/maintaining_a_car_semantic/maintaining_a_car_semantic_5.png"" class=""exp-image"">
                    <div class=""question-area"">
                        <p style=""font-size: 20px; font-weight: bold; margin: 0;"">Is there a person in this image?</p>
                    </div>
                </div>","0","main_experiment_trial","5","maintaining_a_car_semantic","semantic_sequence","chronological","","","","","","",""
"","","","","","html-keyboard-response","153","556502","0.0-153.0","ACE2AB98744A4CC38C0AC6401D16E272","019cfc66-bc1f-75e4-b246-39a824337a91","019cfc28-2143-7934-89cc-ce6402563331","","null","
                <div class=""stimulus-container"">
                    <img src=""images/semantic_sequence/maintaining_a_car_semantic/maintaining_a_car_semantic_6.png"" class=""exp-image"">
                    <div class=""question-area""></div> 
                </div>","null","","","","","","","","","","","",""
"","","","","","html-button-response","154","557681","0.0-154.0","ACE2AB98744A4CC38C0AC6401D16E272","019cfc66-bc1f-75e4-b246-39a824337a91","019cfc28-2143-7934-89cc-ce6402563331","","1178","
                <div class=""stimulus-container"">
                    <img src=""images/semantic_sequence/maintaining_a_car_semantic/maintaining_a_car_semantic_6.png"" class=""exp-image"">
                    <div class=""question-area"">
                        <p style=""font-size: 20px; font-weight: bold; margin: 0;"">Is there a person in this image?</p>
                    </div>
                </div>","0","main_experiment_trial","6","maintaining_a_car_semantic","semantic_sequence","chronological","","","","","","",""
"","","","","","html-keyboard-response","155","562698","0.0-155.0","ACE2AB98744A4CC38C0AC6401D16E272","019cfc66-bc1f-75e4-b246-39a824337a91","019cfc28-2143-7934-89cc-ce6402563331","","null","
                <div class=""stimulus-container"">
                    <img src=""images/semantic_sequence/maintaining_a_car_semantic/maintaining_a_car_semantic_7.png"" class=""exp-image"">
                    <div class=""question-area""></div> 
                </div>","null","","","","","","","","","","","",""
"","","","","","html-button-response","156","563774","0.0-156.0","ACE2AB98744A4CC38C0AC6401D16E272","019cfc66-bc1f-75e4-b246-39a824337a91","019cfc28-2143-7934-89cc-ce6402563331","","1075","
                <div class=""stimulus-container"">
                    <img src=""images/semantic_sequence/maintaining_a_car_semantic/maintaining_a_car_semantic_7.png"" class=""exp-image"">
                    <div class=""question-area"">
                        <p style=""font-size: 20px; font-weight: bold; margin: 0;"">Is there a person in this image?</p>
                    </div>
                </div>","0","main_experiment_trial","7","maintaining_a_car_semantic","semantic_sequence","chronological","","","","","","",""
"","","","","","html-keyboard-response","157","568788","0.0-157.0","ACE2AB98744A4CC38C0AC6401D16E272","019cfc66-bc1f-75e4-b246-39a824337a91","019cfc28-2143-7934-89cc-ce6402563331","","null","
                <div class=""stimulus-container"">
                    <img src=""images/semantic_sequence/maintaining_a_car_semantic/maintaining_a_car_semantic_8.png"" class=""exp-image"">
                    <div class=""question-area""></div> 
                </div>","null","","","","","","","","","","","",""
"","","","","","html-button-response","158","569748","0.0-158.0","ACE2AB98744A4CC38C0AC6401D16E272","019cfc66-bc1f-75e4-b246-39a824337a91","019cfc28-2143-7934-89cc-ce6402563331","","960","
                <div class=""stimulus-container"">
                    <img src=""images/semantic_sequence/maintaining_a_car_semantic/maintaining_a_car_semantic_8.png"" class=""exp-image"">
                    <div class=""question-area"">
                        <p style=""font-size: 20px; font-weight: bold; margin: 0;"">Is there a person in this image?</p>
                    </div>
                </div>","0","main_experiment_trial","8","maintaining_a_car_semantic","semantic_sequence","chronological","","","","","","",""
"","","","","","html-keyboard-response","159","574767","0.0-159.0","ACE2AB98744A4CC38C0AC6401D16E272","019cfc66-bc1f-75e4-b246-39a824337a91","019cfc28-2143-7934-89cc-ce6402563331","","null","
                <div class=""stimulus-container"">
                    <img src=""images/semantic_sequence/maintaining_a_car_semantic/maintaining_a_car_semantic_9.png"" class=""exp-image"">
                    <div class=""question-area""></div> 
                </div>","null","","","","","","","","","","","",""
"","","","","","html-button-response","160","575665","0.0-160.0","ACE2AB98744A4CC38C0AC6401D16E272","019cfc66-bc1f-75e4-b246-39a824337a91","019cfc28-2143-7934-89cc-ce6402563331","","897","
                <div class=""stimulus-container"">
                    <img src=""images/semantic_sequence/maintaining_a_car_semantic/maintaining_a_car_semantic_9.png"" class=""exp-image"">
                    <div class=""question-area"">
                        <p style=""font-size: 20px; font-weight: bold; margin: 0;"">Is there a person in this image?</p>
                    </div>
                </div>","0","main_experiment_trial","9","maintaining_a_car_semantic","semantic_sequence","chronological","","","","","","",""
"","","","","","html-keyboard-response","161","580677","0.0-161.0","ACE2AB98744A4CC38C0AC6401D16E272","019cfc66-bc1f-75e4-b246-39a824337a91","019cfc28-2143-7934-89cc-ce6402563331","","null","
                <div class=""stimulus-container"">
                    <img src=""images/semantic_sequence/maintaining_a_car_semantic/maintaining_a_car_semantic_ten.png"" class=""exp-image"">
                    <div class=""question-area""></div> 
                </div>","null","","","","","","","","","","","",""
"","","","","","html-button-response","162","581246","0.0-162.0","ACE2AB98744A4CC38C0AC6401D16E272","019cfc66-bc1f-75e4-b246-39a824337a91","019cfc28-2143-7934-89cc-ce6402563331","","568","
                <div class=""stimulus-container"">
                    <img src=""images/semantic_sequence/maintaining_a_car_semantic/maintaining_a_car_semantic_ten.png"" class=""exp-image"">
                    <div class=""question-area"">
                        <p style=""font-size: 20px; font-weight: bold; margin: 0;"">Is there a person in this image?</p>
                    </div>
                </div>","0","main_experiment_trial","ten","maintaining_a_car_semantic","semantic_sequence","chronological","","","","","","",""
"","","","","","html-keyboard-response","163","586259","0.0-163.0","ACE2AB98744A4CC38C0AC6401D16E272","019cfc66-bc1f-75e4-b246-39a824337a91","019cfc28-2143-7934-89cc-ce6402563331","","null","<div style=""background-color: white; width: 100vw; height: 100vh;""></div>","null","","","","","","","","","","","",""
"","","","","","html-keyboard-response","164","591267","0.0-164.0","ACE2AB98744A4CC38C0AC6401D16E272","019cfc66-bc1f-75e4-b246-39a824337a91","019cfc28-2143-7934-89cc-ce6402563331","","null","
                <div class=""stimulus-container"">
                    <img src=""images/schematic_sequence/restaurant_scheme/restaurant_scheme_1.png"" class=""exp-image"">
                    <div class=""question-area""></div> 
                </div>","null","","","","","","","","","","","",""
"","","","","","html-button-response","165","593544","0.0-165.0","ACE2AB98744A4CC38C0AC6401D16E272","019cfc66-bc1f-75e4-b246-39a824337a91","019cfc28-2143-7934-89cc-ce6402563331","","2275","
                <div class=""stimulus-container"">
                    <img src=""images/schematic_sequence/restaurant_scheme/restaurant_scheme_1.png"" class=""exp-image"">
                    <div class=""question-area"">
                        <p style=""font-size: 20px; font-weight: bold; margin: 0;"">Is there a person in this image?</p>
                    </div>
                </div>","0","main_experiment_trial","1","restaurant_scheme","schematic_sequence","chronological","","","","","","",""
"","","","","","html-keyboard-response","166","598550","0.0-166.0","ACE2AB98744A4CC38C0AC6401D16E272","019cfc66-bc1f-75e4-b246-39a824337a91","019cfc28-2143-7934-89cc-ce6402563331","","null","
                <div class=""stimulus-container"">
                    <img src=""images/schematic_sequence/restaurant_scheme/restaurant_scheme_2.png"" class=""exp-image"">
                    <div class=""question-area""></div> 
                </div>","null","","","","","","","","","","","",""
"","","","","","html-button-response","167","599613","0.0-167.0","ACE2AB98744A4CC38C0AC6401D16E272","019cfc66-bc1f-75e4-b246-39a824337a91","019cfc28-2143-7934-89cc-ce6402563331","","1063","
                <div class=""stimulus-container"">
                    <img src=""images/schematic_sequence/restaurant_scheme/restaurant_scheme_2.png"" class=""exp-image"">
                    <div class=""question-area"">
                        <p style=""font-size: 20px; font-weight: bold; margin: 0;"">Is there a person in this image?</p>
                    </div>
                </div>","1","main_experiment_trial","2","restaurant_scheme","schematic_sequence","chronological","","","","","","",""
"","","","","","html-keyboard-response","168","604632","0.0-168.0","ACE2AB98744A4CC38C0AC6401D16E272","019cfc66-bc1f-75e4-b246-39a824337a91","019cfc28-2143-7934-89cc-ce6402563331","","null","
                <div class=""stimulus-container"">
                    <img src=""images/schematic_sequence/restaurant_scheme/restaurant_scheme_3.png"" class=""exp-image"">
                    <div class=""question-area""></div> 
                </div>","null","","","","","","","","","","","",""
"","","","","","html-button-response","169","605475","0.0-169.0","ACE2AB98744A4CC38C0AC6401D16E272","019cfc66-bc1f-75e4-b246-39a824337a91","019cfc28-2143-7934-89cc-ce6402563331","","842","
                <div class=""stimulus-container"">
                    <img src=""images/schematic_sequence/restaurant_scheme/restaurant_scheme_3.png"" class=""exp-image"">
                    <div class=""question-area"">
                        <p style=""font-size: 20px; font-weight: bold; margin: 0;"">Is there a person in this image?</p>
                    </div>
                </div>","1","main_experiment_trial","3","restaurant_scheme","schematic_sequence","chronological","","","","","","",""
"","","","","","html-keyboard-response","170","610482","0.0-170.0","ACE2AB98744A4CC38C0AC6401D16E272","019cfc66-bc1f-75e4-b246-39a824337a91","019cfc28-2143-7934-89cc-ce6402563331","","null","
                <div class=""stimulus-container"">
                    <img src=""images/schematic_sequence/restaurant_scheme/restaurant_scheme_4.png"" class=""exp-image"">
                    <div class=""question-area""></div> 
                </div>","null","","","","","","","","","","","",""
"","","","","","html-button-response","171","611248","0.0-171.0","ACE2AB98744A4CC38C0AC6401D16E272","019cfc66-bc1f-75e4-b246-39a824337a91","019cfc28-2143-7934-89cc-ce6402563331","","765","
                <div class=""stimulus-container"">
                    <img src=""images/schematic_sequence/restaurant_scheme/restaurant_scheme_4.png"" class=""exp-image"">
                    <div class=""question-area"">
                        <p style=""font-size: 20px; font-weight: bold; margin: 0;"">Is there a person in this image?</p>
                    </div>
                </div>","0","main_experiment_trial","4","restaurant_scheme","schematic_sequence","chronological","","","","","","",""
"","","","","","html-keyboard-response","172","616257","0.0-172.0","ACE2AB98744A4CC38C0AC6401D16E272","019cfc66-bc1f-75e4-b246-39a824337a91","019cfc28-2143-7934-89cc-ce6402563331","","null","
                <div class=""stimulus-container"">
                    <img src=""images/schematic_sequence/restaurant_scheme/restaurant_scheme_5.png"" class=""exp-image"">
                    <div class=""question-area""></div> 
                </div>","null","","","","","","","","","","","",""
"","","","","","html-button-response","173","617086","0.0-173.0","ACE2AB98744A4CC38C0AC6401D16E272","019cfc66-bc1f-75e4-b246-39a824337a91","019cfc28-2143-7934-89cc-ce6402563331","","828","
                <div class=""stimulus-container"">
                    <img src=""images/schematic_sequence/restaurant_scheme/restaurant_scheme_5.png"" class=""exp-image"">
                    <div class=""question-area"">
                        <p style=""font-size: 20px; font-weight: bold; margin: 0;"">Is there a person in this image?</p>
                    </div>
                </div>","0","main_experiment_trial","5","restaurant_scheme","schematic_sequence","chronological","","","","","","",""
"","","","","","html-keyboard-response","174","622095","0.0-174.0","ACE2AB98744A4CC38C0AC6401D16E272","019cfc66-bc1f-75e4-b246-39a824337a91","019cfc28-2143-7934-89cc-ce6402563331","","null","
                <div class=""stimulus-container"">
                    <img src=""images/schematic_sequence/restaurant_scheme/restaurant_scheme_6.png"" class=""exp-image"">
