"success","timeout","failed_images","failed_audio","failed_video","trial_type","trial_index","time_elapsed","internal_node_id","subject_id","study_id","session_id","view_history","rt","stimulus","response","task","image_index","folder","sequence_type","presentation_order","valuable_image_index","reward_type","distance_from_x","target_X","chosen_image_index","is_x_plus_dist","correct_choice"
"true","false","[]","[]","[]","preload","0","6683","0.0-0.0","8E3A2187DBA04409858ECEDB697A8F99","019cfc7c-b921-71d8-bdd7-80b8455aa9d3","019cfc7b-6c7b-7b1b-afe7-acad8efc6711","","","","","","","","","","","","","","","",""
"","","","","","instructions","1","11862","0.0-1.0","8E3A2187DBA04409858ECEDB697A8F99","019cfc7c-b921-71d8-bdd7-80b8455aa9d3","019cfc7b-6c7b-7b1b-afe7-acad8efc6711","[{""page_index"":0,""viewing_time"":5179}]","5179","","","","","","","","","","","","","",""
"","","","","","instructions","2","78706","0.0-2.0","8E3A2187DBA04409858ECEDB697A8F99","019cfc7c-b921-71d8-bdd7-80b8455aa9d3","019cfc7b-6c7b-7b1b-afe7-acad8efc6711","[{""page_index"":0,""viewing_time"":66843}]","66843","","","","","","","","","","","","","",""
"true","","","","","fullscreen","3","115619","0.0-3.0","8E3A2187DBA04409858ECEDB697A8F99","019cfc7c-b921-71d8-bdd7-80b8455aa9d3","019cfc7b-6c7b-7b1b-afe7-acad8efc6711","","35907","","","","","","","","","","","","","",""
"","","","","","instructions","4","129125","0.0-4.0","8E3A2187DBA04409858ECEDB697A8F99","019cfc7c-b921-71d8-bdd7-80b8455aa9d3","019cfc7b-6c7b-7b1b-afe7-acad8efc6711","[{""page_index"":0,""viewing_time"":13505}]","13506","","","","","","","","","","","","","",""
"","","","","","instructions","5","144032","0.0-5.0","8E3A2187DBA04409858ECEDB697A8F99","019cfc7c-b921-71d8-bdd7-80b8455aa9d3","019cfc7b-6c7b-7b1b-afe7-acad8efc6711","[{""page_index"":0,""viewing_time"":14907}]","14907","","","","","","","","","","","","","",""
"","","","","","html-keyboard-response","6","148037","0.0-6.0","8E3A2187DBA04409858ECEDB697A8F99","019cfc7c-b921-71d8-bdd7-80b8455aa9d3","019cfc7b-6c7b-7b1b-afe7-acad8efc6711","","null","
                <div class=""stimulus-container"">
                    <img src=""images/instructions/movie_1.png"" class=""exp-image"">
                    <div class=""question-area""></div> 
                </div>","null","","","","","","","","","","","",""
"","","","","","html-button-response","7","151047","0.0-7.0","8E3A2187DBA04409858ECEDB697A8F99","019cfc7c-b921-71d8-bdd7-80b8455aa9d3","019cfc7b-6c7b-7b1b-afe7-acad8efc6711","","null","
                <div class=""stimulus-container"">
                    <img src=""images/instructions/movie_1.png"" class=""exp-image"">
                    <div class=""question-area"">
                        <p style=""font-size: 20px; font-weight: bold; margin: 0;"">Was there a person in this image?</p>
                    </div>
                </div>","null","example_question","1","","","","","","","","","",""
"","","","","","html-keyboard-response","8","155051","0.0-8.0","8E3A2187DBA04409858ECEDB697A8F99","019cfc7c-b921-71d8-bdd7-80b8455aa9d3","019cfc7b-6c7b-7b1b-afe7-acad8efc6711","","null","
                <div class=""stimulus-container"">
                    <img src=""images/instructions/movie_2.png"" class=""exp-image"">
                    <div class=""question-area""></div> 
                </div>","null","","","","","","","","","","","",""
"","","","","","html-button-response","9","157179","0.0-9.0","8E3A2187DBA04409858ECEDB697A8F99","019cfc7c-b921-71d8-bdd7-80b8455aa9d3","019cfc7b-6c7b-7b1b-afe7-acad8efc6711","","2128","
                <div class=""stimulus-container"">
                    <img src=""images/instructions/movie_2.png"" class=""exp-image"">
                    <div class=""question-area"">
                        <p style=""font-size: 20px; font-weight: bold; margin: 0;"">Was there a person in this image?</p>
                    </div>
                </div>","1","example_question","2","","","","","","","","","",""
"","","","","","html-keyboard-response","10","161187","0.0-10.0","8E3A2187DBA04409858ECEDB697A8F99","019cfc7c-b921-71d8-bdd7-80b8455aa9d3","019cfc7b-6c7b-7b1b-afe7-acad8efc6711","","null","
                <div class=""stimulus-container"">
                    <img src=""images/instructions/movie_3.png"" class=""exp-image"">
                    <div class=""question-area""></div> 
                </div>","null","","","","","","","","","","","",""
"","","","","","html-button-response","11","162447","0.0-11.0","8E3A2187DBA04409858ECEDB697A8F99","019cfc7c-b921-71d8-bdd7-80b8455aa9d3","019cfc7b-6c7b-7b1b-afe7-acad8efc6711","","1259","
                <div class=""stimulus-container"">
                    <img src=""images/instructions/movie_3.png"" class=""exp-image"">
                    <div class=""question-area"">
                        <p style=""font-size: 20px; font-weight: bold; margin: 0;"">Was there a person in this image?</p>
                    </div>
                </div>","0","example_question","3","","","","","","","","","",""
"","","","","","html-keyboard-response","12","166460","0.0-12.0","8E3A2187DBA04409858ECEDB697A8F99","019cfc7c-b921-71d8-bdd7-80b8455aa9d3","019cfc7b-6c7b-7b1b-afe7-acad8efc6711","","null","
                <div class=""stimulus-container"">
                    <img src=""images/instructions/movie_4.png"" class=""exp-image"">
                    <div class=""question-area""></div> 
                </div>","null","","","","","","","","","","","",""
"","","","","","html-button-response","13","167955","0.0-13.0","8E3A2187DBA04409858ECEDB697A8F99","019cfc7c-b921-71d8-bdd7-80b8455aa9d3","019cfc7b-6c7b-7b1b-afe7-acad8efc6711","","1493","
                <div class=""stimulus-container"">
                    <img src=""images/instructions/movie_4.png"" class=""exp-image"">
                    <div class=""question-area"">
                        <p style=""font-size: 20px; font-weight: bold; margin: 0;"">Was there a person in this image?</p>
                    </div>
                </div>","0","example_question","4","","","","","","","","","",""
"","","","","","instructions","14","170770","0.0-14.0","8E3A2187DBA04409858ECEDB697A8F99","019cfc7c-b921-71d8-bdd7-80b8455aa9d3","019cfc7b-6c7b-7b1b-afe7-acad8efc6711","[{""page_index"":0,""viewing_time"":2814}]","2815","","","","","","","","","","","","","",""
"","","","","","instructions","15","178341","0.0-15.0","8E3A2187DBA04409858ECEDB697A8F99","019cfc7c-b921-71d8-bdd7-80b8455aa9d3","019cfc7b-6c7b-7b1b-afe7-acad8efc6711","[{""page_index"":0,""viewing_time"":7570}]","7570","","","","","","","","","","","","","",""
"","","","","","html-keyboard-response","16","183351","0.0-16.0","8E3A2187DBA04409858ECEDB697A8F99","019cfc7c-b921-71d8-bdd7-80b8455aa9d3","019cfc7b-6c7b-7b1b-afe7-acad8efc6711","","null","<div style=""background-color: white; width: 100vw; height: 100vh;""></div>","null","","","","","","","","","","","",""
"","","","","","html-keyboard-response","17","188354","0.0-17.0","8E3A2187DBA04409858ECEDB697A8F99","019cfc7c-b921-71d8-bdd7-80b8455aa9d3","019cfc7b-6c7b-7b1b-afe7-acad8efc6711","","null","
                <div class=""stimulus-container"">
                    <img src=""images/semantic_sequence/visiting_cities_semantic/visiting_cities_semantic_1.png"" class=""exp-image"">
                    <div class=""question-area""></div> 
                </div>","null","","","","","","","","","","","",""
"","","","","","html-button-response","18","191357","0.0-18.0","8E3A2187DBA04409858ECEDB697A8F99","019cfc7c-b921-71d8-bdd7-80b8455aa9d3","019cfc7b-6c7b-7b1b-afe7-acad8efc6711","","null","
                <div class=""stimulus-container"">
                    <img src=""images/semantic_sequence/visiting_cities_semantic/visiting_cities_semantic_1.png"" class=""exp-image"">
                    <div class=""question-area"">
                        <p style=""font-size: 20px; font-weight: bold; margin: 0;"">Is there a person in this image?</p>
                    </div>
                </div>","null","main_experiment_trial","1","visiting_cities_semantic","semantic_sequence","chronological","","","","","","",""
"","","","","","html-keyboard-response","19","196370","0.0-19.0","8E3A2187DBA04409858ECEDB697A8F99","019cfc7c-b921-71d8-bdd7-80b8455aa9d3","019cfc7b-6c7b-7b1b-afe7-acad8efc6711","","null","
                <div class=""stimulus-container"">
                    <img src=""images/semantic_sequence/visiting_cities_semantic/visiting_cities_semantic_2.png"" class=""exp-image"">
                    <div class=""question-area""></div> 
                </div>","null","","","","","","","","","","","",""
"","","","","","html-button-response","20","197948","0.0-20.0","8E3A2187DBA04409858ECEDB697A8F99","019cfc7c-b921-71d8-bdd7-80b8455aa9d3","019cfc7b-6c7b-7b1b-afe7-acad8efc6711","","1578","
                <div class=""stimulus-container"">
                    <img src=""images/semantic_sequence/visiting_cities_semantic/visiting_cities_semantic_2.png"" class=""exp-image"">
                    <div class=""question-area"">
                        <p style=""font-size: 20px; font-weight: bold; margin: 0;"">Is there a person in this image?</p>
                    </div>
                </div>","1","main_experiment_trial","2","visiting_cities_semantic","semantic_sequence","chronological","","","","","","",""
"","","","","","html-keyboard-response","21","202954","0.0-21.0","8E3A2187DBA04409858ECEDB697A8F99","019cfc7c-b921-71d8-bdd7-80b8455aa9d3","019cfc7b-6c7b-7b1b-afe7-acad8efc6711","","null","
                <div class=""stimulus-container"">
                    <img src=""images/semantic_sequence/visiting_cities_semantic/visiting_cities_semantic_3.png"" class=""exp-image"">
                    <div class=""question-area""></div> 
                </div>","null","","","","","","","","","","","",""
"","","","","","html-button-response","22","204380","0.0-22.0","8E3A2187DBA04409858ECEDB697A8F99","019cfc7c-b921-71d8-bdd7-80b8455aa9d3","019cfc7b-6c7b-7b1b-afe7-acad8efc6711","","1425","
                <div class=""stimulus-container"">
                    <img src=""images/semantic_sequence/visiting_cities_semantic/visiting_cities_semantic_3.png"" class=""exp-image"">
                    <div class=""question-area"">
                        <p style=""font-size: 20px; font-weight: bold; margin: 0;"">Is there a person in this image?</p>
                    </div>
                </div>","1","main_experiment_trial","3","visiting_cities_semantic","semantic_sequence","chronological","","","","","","",""
"","","","","","html-keyboard-response","23","209382","0.0-23.0","8E3A2187DBA04409858ECEDB697A8F99","019cfc7c-b921-71d8-bdd7-80b8455aa9d3","019cfc7b-6c7b-7b1b-afe7-acad8efc6711","","null","
                <div class=""stimulus-container"">
                    <img src=""images/semantic_sequence/visiting_cities_semantic/visiting_cities_semantic_4.png"" class=""exp-image"">
                    <div class=""question-area""></div> 
                </div>","null","","","","","","","","","","","",""
"","","","","","html-button-response","24","210700","0.0-24.0","8E3A2187DBA04409858ECEDB697A8F99","019cfc7c-b921-71d8-bdd7-80b8455aa9d3","019cfc7b-6c7b-7b1b-afe7-acad8efc6711","","1318","
                <div class=""stimulus-container"">
                    <img src=""images/semantic_sequence/visiting_cities_semantic/visiting_cities_semantic_4.png"" class=""exp-image"">
                    <div class=""question-area"">
                        <p style=""font-size: 20px; font-weight: bold; margin: 0;"">Is there a person in this image?</p>
                    </div>
                </div>","1","main_experiment_trial","4","visiting_cities_semantic","semantic_sequence","chronological","","","","","","",""
"","","","","","html-keyboard-response","25","215704","0.0-25.0","8E3A2187DBA04409858ECEDB697A8F99","019cfc7c-b921-71d8-bdd7-80b8455aa9d3","019cfc7b-6c7b-7b1b-afe7-acad8efc6711","","null","
                <div class=""stimulus-container"">
                    <img src=""images/semantic_sequence/visiting_cities_semantic/visiting_cities_semantic_5.png"" class=""exp-image"">
                    <div class=""question-area""></div> 
                </div>","null","","","","","","","","","","","",""
"","","","","","html-button-response","26","216834","0.0-26.0","8E3A2187DBA04409858ECEDB697A8F99","019cfc7c-b921-71d8-bdd7-80b8455aa9d3","019cfc7b-6c7b-7b1b-afe7-acad8efc6711","","1129","
                <div class=""stimulus-container"">
                    <img src=""images/semantic_sequence/visiting_cities_semantic/visiting_cities_semantic_5.png"" class=""exp-image"">
                    <div class=""question-area"">
                        <p style=""font-size: 20px; font-weight: bold; margin: 0;"">Is there a person in this image?</p>
                    </div>
                </div>","1","main_experiment_trial","5","visiting_cities_semantic","semantic_sequence","chronological","","","","","","",""
"","","","","","html-keyboard-response","27","221838","0.0-27.0","8E3A2187DBA04409858ECEDB697A8F99","019cfc7c-b921-71d8-bdd7-80b8455aa9d3","019cfc7b-6c7b-7b1b-afe7-acad8efc6711","","null","
                <div class=""stimulus-container"">
                    <img src=""images/semantic_sequence/visiting_cities_semantic/visiting_cities_semantic_6.png"" class=""exp-image"">
                    <div class=""question-area""></div> 
                </div>","null","","","","","","","","","","","",""
"","","","","","html-button-response","28","223124","0.0-28.0","8E3A2187DBA04409858ECEDB697A8F99","019cfc7c-b921-71d8-bdd7-80b8455aa9d3","019cfc7b-6c7b-7b1b-afe7-acad8efc6711","","1286","
                <div class=""stimulus-container"">
                    <img src=""images/semantic_sequence/visiting_cities_semantic/visiting_cities_semantic_6.png"" class=""exp-image"">
                    <div class=""question-area"">
                        <p style=""font-size: 20px; font-weight: bold; margin: 0;"">Is there a person in this image?</p>
                    </div>
                </div>","1","main_experiment_trial","6","visiting_cities_semantic","semantic_sequence","chronological","","","","","","",""
"","","","","","html-keyboard-response","29","228132","0.0-29.0","8E3A2187DBA04409858ECEDB697A8F99","019cfc7c-b921-71d8-bdd7-80b8455aa9d3","019cfc7b-6c7b-7b1b-afe7-acad8efc6711","","null","
                <div class=""stimulus-container"">
                    <img src=""images/semantic_sequence/visiting_cities_semantic/visiting_cities_semantic_7.png"" class=""exp-image"">
                    <div class=""question-area""></div> 
                </div>","null","","","","","","","","","","","",""
"","","","","","html-button-response","30","229351","0.0-30.0","8E3A2187DBA04409858ECEDB697A8F99","019cfc7c-b921-71d8-bdd7-80b8455aa9d3","019cfc7b-6c7b-7b1b-afe7-acad8efc6711","","1218","
                <div class=""stimulus-container"">
                    <img src=""images/semantic_sequence/visiting_cities_semantic/visiting_cities_semantic_7.png"" class=""exp-image"">
                    <div class=""question-area"">
                        <p style=""font-size: 20px; font-weight: bold; margin: 0;"">Is there a person in this image?</p>
                    </div>
                </div>","0","main_experiment_trial","7","visiting_cities_semantic","semantic_sequence","chronological","","","","","","",""
"","","","","","html-keyboard-response","31","234354","0.0-31.0","8E3A2187DBA04409858ECEDB697A8F99","019cfc7c-b921-71d8-bdd7-80b8455aa9d3","019cfc7b-6c7b-7b1b-afe7-acad8efc6711","","null","
                <div class=""stimulus-container"">
                    <img src=""images/semantic_sequence/visiting_cities_semantic/visiting_cities_semantic_8.png"" class=""exp-image"">
                    <div class=""question-area""></div> 
                </div>","null","","","","","","","","","","","",""
"","","","","","html-button-response","32","235583","0.0-32.0","8E3A2187DBA04409858ECEDB697A8F99","019cfc7c-b921-71d8-bdd7-80b8455aa9d3","019cfc7b-6c7b-7b1b-afe7-acad8efc6711","","1228","
                <div class=""stimulus-container"">
                    <img src=""images/semantic_sequence/visiting_cities_semantic/visiting_cities_semantic_8.png"" class=""exp-image"">
                    <div class=""question-area"">
                        <p style=""font-size: 20px; font-weight: bold; margin: 0;"">Is there a person in this image?</p>
                    </div>
                </div>","0","main_experiment_trial","8","visiting_cities_semantic","semantic_sequence","chronological","","","","","","",""
"","","","","","html-keyboard-response","33","240585","0.0-33.0","8E3A2187DBA04409858ECEDB697A8F99","019cfc7c-b921-71d8-bdd7-80b8455aa9d3","019cfc7b-6c7b-7b1b-afe7-acad8efc6711","","null","
                <div class=""stimulus-container"">
                    <img src=""images/semantic_sequence/visiting_cities_semantic/visiting_cities_semantic_9.png"" class=""exp-image"">
                    <div class=""question-area""></div> 
                </div>","null","","","","","","","","","","","",""
"","","","","","html-button-response","34","241753","0.0-34.0","8E3A2187DBA04409858ECEDB697A8F99","019cfc7c-b921-71d8-bdd7-80b8455aa9d3","019cfc7b-6c7b-7b1b-afe7-acad8efc6711","","1167","
                <div class=""stimulus-container"">
                    <img src=""images/semantic_sequence/visiting_cities_semantic/visiting_cities_semantic_9.png"" class=""exp-image"">
                    <div class=""question-area"">
                        <p style=""font-size: 20px; font-weight: bold; margin: 0;"">Is there a person in this image?</p>
                    </div>
                </div>","0","main_experiment_trial","9","visiting_cities_semantic","semantic_sequence","chronological","","","","","","",""
"","","","","","html-keyboard-response","35","246754","0.0-35.0","8E3A2187DBA04409858ECEDB697A8F99","019cfc7c-b921-71d8-bdd7-80b8455aa9d3","019cfc7b-6c7b-7b1b-afe7-acad8efc6711","","null","
                <div class=""stimulus-container"">
                    <img src=""images/semantic_sequence/visiting_cities_semantic/visiting_cities_semantic_ten.png"" class=""exp-image"">
                    <div class=""question-area""></div> 
                </div>","null","","","","","","","","","","","",""
"","","","","","html-button-response","36","247986","0.0-36.0","8E3A2187DBA04409858ECEDB697A8F99","019cfc7c-b921-71d8-bdd7-80b8455aa9d3","019cfc7b-6c7b-7b1b-afe7-acad8efc6711","","1232","
                <div class=""stimulus-container"">
                    <img src=""images/semantic_sequence/visiting_cities_semantic/visiting_cities_semantic_ten.png"" class=""exp-image"">
                    <div class=""question-area"">
                        <p style=""font-size: 20px; font-weight: bold; margin: 0;"">Is there a person in this image?</p>
                    </div>
                </div>","0","main_experiment_trial","ten","visiting_cities_semantic","semantic_sequence","chronological","","","","","","",""
"","","","","","html-keyboard-response","37","252999","0.0-37.0","8E3A2187DBA04409858ECEDB697A8F99","019cfc7c-b921-71d8-bdd7-80b8455aa9d3","019cfc7b-6c7b-7b1b-afe7-acad8efc6711","","null","<div style=""background-color: white; width: 100vw; height: 100vh;""></div>","null","","","","","","","","","","","",""
"","","","","","html-keyboard-response","38","258000","0.0-38.0","8E3A2187DBA04409858ECEDB697A8F99","019cfc7c-b921-71d8-bdd7-80b8455aa9d3","019cfc7b-6c7b-7b1b-afe7-acad8efc6711","","null","
                <div class=""stimulus-container"">
                    <img src=""images/causal_sequence/package_causal/package_causal_1.png"" class=""exp-image"">
                    <div class=""question-area""></div> 
                </div>","null","","","","","","","","","","","",""
"","","","","","html-button-response","39","259469","0.0-39.0","8E3A2187DBA04409858ECEDB697A8F99","019cfc7c-b921-71d8-bdd7-80b8455aa9d3","019cfc7b-6c7b-7b1b-afe7-acad8efc6711","","1468","
                <div class=""stimulus-container"">
                    <img src=""images/causal_sequence/package_causal/package_causal_1.png"" class=""exp-image"">
                    <div class=""question-area"">
                        <p style=""font-size: 20px; font-weight: bold; margin: 0;"">Is there a person in this image?</p>
                    </div>
                </div>","0","main_experiment_trial","1","package_causal","causal_sequence","chronological","","","","","","",""
"","","","","","html-keyboard-response","40","264471","0.0-40.0","8E3A2187DBA04409858ECEDB697A8F99","019cfc7c-b921-71d8-bdd7-80b8455aa9d3","019cfc7b-6c7b-7b1b-afe7-acad8efc6711","","null","
                <div class=""stimulus-container"">
                    <img src=""images/causal_sequence/package_causal/package_causal_2.png"" class=""exp-image"">
                    <div class=""question-area""></div> 
                </div>","null","","","","","","","","","","","",""
"","","","","","html-button-response","41","265789","0.0-41.0","8E3A2187DBA04409858ECEDB697A8F99","019cfc7c-b921-71d8-bdd7-80b8455aa9d3","019cfc7b-6c7b-7b1b-afe7-acad8efc6711","","1317","
                <div class=""stimulus-container"">
                    <img src=""images/causal_sequence/package_causal/package_causal_2.png"" class=""exp-image"">
                    <div class=""question-area"">
                        <p style=""font-size: 20px; font-weight: bold; margin: 0;"">Is there a person in this image?</p>
                    </div>
                </div>","0","main_experiment_trial","2","package_causal","causal_sequence","chronological","","","","","","",""
"","","","","","html-keyboard-response","42","270796","0.0-42.0","8E3A2187DBA04409858ECEDB697A8F99","019cfc7c-b921-71d8-bdd7-80b8455aa9d3","019cfc7b-6c7b-7b1b-afe7-acad8efc6711","","null","
                <div class=""stimulus-container"">
                    <img src=""images/causal_sequence/package_causal/package_causal_3.png"" class=""exp-image"">
                    <div class=""question-area""></div> 
                </div>","null","","","","","","","","","","","",""
"","","","","","html-button-response","43","272110","0.0-43.0","8E3A2187DBA04409858ECEDB697A8F99","019cfc7c-b921-71d8-bdd7-80b8455aa9d3","019cfc7b-6c7b-7b1b-afe7-acad8efc6711","","1313","
                <div class=""stimulus-container"">
                    <img src=""images/causal_sequence/package_causal/package_causal_3.png"" class=""exp-image"">
                    <div class=""question-area"">
                        <p style=""font-size: 20px; font-weight: bold; margin: 0;"">Is there a person in this image?</p>
                    </div>
                </div>","0","main_experiment_trial","3","package_causal","causal_sequence","chronological","","","","","","",""
"","","","","","html-keyboard-response","44","277121","0.0-44.0","8E3A2187DBA04409858ECEDB697A8F99","019cfc7c-b921-71d8-bdd7-80b8455aa9d3","019cfc7b-6c7b-7b1b-afe7-acad8efc6711","","null","
                <div class=""stimulus-container"">
                    <img src=""images/causal_sequence/package_causal/package_causal_4.png"" class=""exp-image"">
                    <div class=""question-area""></div> 
                </div>","null","","","","","","","","","","","",""
"","","","","","html-button-response","45","278512","0.0-45.0","8E3A2187DBA04409858ECEDB697A8F99","019cfc7c-b921-71d8-bdd7-80b8455aa9d3","019cfc7b-6c7b-7b1b-afe7-acad8efc6711","","1390","
                <div class=""stimulus-container"">
                    <img src=""images/causal_sequence/package_causal/package_causal_4.png"" class=""exp-image"">
                    <div class=""question-area"">
                        <p style=""font-size: 20px; font-weight: bold; margin: 0;"">Is there a person in this image?</p>
                    </div>
                </div>","1","main_experiment_trial","4","package_causal","causal_sequence","chronological","","","","","","",""
"","","","","","html-keyboard-response","46","283519","0.0-46.0","8E3A2187DBA04409858ECEDB697A8F99","019cfc7c-b921-71d8-bdd7-80b8455aa9d3","019cfc7b-6c7b-7b1b-afe7-acad8efc6711","","null","
                <div class=""stimulus-container"">
                    <img src=""images/causal_sequence/package_causal/package_causal_5.png"" class=""exp-image"">
                    <div class=""question-area""></div> 
                </div>","null","","","","","","","","","","","",""
"","","","","","html-button-response","47","284519","0.0-47.0","8E3A2187DBA04409858ECEDB697A8F99","019cfc7c-b921-71d8-bdd7-80b8455aa9d3","019cfc7b-6c7b-7b1b-afe7-acad8efc6711","","999","
                <div class=""stimulus-container"">
                    <img src=""images/causal_sequence/package_causal/package_causal_5.png"" class=""exp-image"">
                    <div class=""question-area"">
                        <p style=""font-size: 20px; font-weight: bold; margin: 0;"">Is there a person in this image?</p>
                    </div>
                </div>","0","main_experiment_trial","5","package_causal","causal_sequence","chronological","","","","","","",""
"","","","","","html-keyboard-response","48","289522","0.0-48.0","8E3A2187DBA04409858ECEDB697A8F99","019cfc7c-b921-71d8-bdd7-80b8455aa9d3","019cfc7b-6c7b-7b1b-afe7-acad8efc6711","","null","
                <div class=""stimulus-container"">
                    <img src=""images/causal_sequence/package_causal/package_causal_6.png"" class=""exp-image"">
                    <div class=""question-area""></div> 
                </div>","null","","","","","","","","","","","",""
"","","","","","html-button-response","49","290622","0.0-49.0","8E3A2187DBA04409858ECEDB697A8F99","019cfc7c-b921-71d8-bdd7-80b8455aa9d3","019cfc7b-6c7b-7b1b-afe7-acad8efc6711","","1100","
                <div class=""stimulus-container"">
                    <img src=""images/causal_sequence/package_causal/package_causal_6.png"" class=""exp-image"">
                    <div class=""question-area"">
                        <p style=""font-size: 20px; font-weight: bold; margin: 0;"">Is there a person in this image?</p>
                    </div>
                </div>","0","main_experiment_trial","6","package_causal","causal_sequence","chronological","","","","","","",""
"","","","","","html-keyboard-response","50","295633","0.0-50.0","8E3A2187DBA04409858ECEDB697A8F99","019cfc7c-b921-71d8-bdd7-80b8455aa9d3","019cfc7b-6c7b-7b1b-afe7-acad8efc6711","","null","
                <div class=""stimulus-container"">
                    <img src=""images/causal_sequence/package_causal/package_causal_7.png"" class=""exp-image"">
                    <div class=""question-area""></div> 
                </div>","null","","","","","","","","","","","",""
"","","","","","html-button-response","51","296580","0.0-51.0","8E3A2187DBA04409858ECEDB697A8F99","019cfc7c-b921-71d8-bdd7-80b8455aa9d3","019cfc7b-6c7b-7b1b-afe7-acad8efc6711","","947","
                <div class=""stimulus-container"">
                    <img src=""images/causal_sequence/package_causal/package_causal_7.png"" class=""exp-image"">
                    <div class=""question-area"">
                        <p style=""font-size: 20px; font-weight: bold; margin: 0;"">Is there a person in this image?</p>
                    </div>
                </div>","0","main_experiment_trial","7","package_causal","causal_sequence","chronological","","","","","","",""
"","","","","","html-keyboard-response","52","301589","0.0-52.0","8E3A2187DBA04409858ECEDB697A8F99","019cfc7c-b921-71d8-bdd7-80b8455aa9d3","019cfc7b-6c7b-7b1b-afe7-acad8efc6711","","null","
                <div class=""stimulus-container"">
                    <img src=""images/causal_sequence/package_causal/package_causal_8.png"" class=""exp-image"">
                    <div class=""question-area""></div> 
                </div>","null","","","","","","","","","","","",""
"","","","","","html-button-response","53","302805","0.0-53.0","8E3A2187DBA04409858ECEDB697A8F99","019cfc7c-b921-71d8-bdd7-80b8455aa9d3","019cfc7b-6c7b-7b1b-afe7-acad8efc6711","","1216","
                <div class=""stimulus-container"">
                    <img src=""images/causal_sequence/package_causal/package_causal_8.png"" class=""exp-image"">
                    <div class=""question-area"">
                        <p style=""font-size: 20px; font-weight: bold; margin: 0;"">Is there a person in this image?</p>
                    </div>
                </div>","0","main_experiment_trial","8","package_causal","causal_sequence","chronological","","","","","","",""
"","","","","","html-keyboard-response","54","307809","0.0-54.0","8E3A2187DBA04409858ECEDB697A8F99","019cfc7c-b921-71d8-bdd7-80b8455aa9d3","019cfc7b-6c7b-7b1b-afe7-acad8efc6711","","null","
                <div class=""stimulus-container"">
                    <img src=""images/causal_sequence/package_causal/package_causal_9.png"" class=""exp-image"">
                    <div class=""question-area""></div> 
                </div>","null","","","","","","","","","","","",""
"","","","","","html-button-response","55","309470","0.0-55.0","8E3A2187DBA04409858ECEDB697A8F99","019cfc7c-b921-71d8-bdd7-80b8455aa9d3","019cfc7b-6c7b-7b1b-afe7-acad8efc6711","","1660","
                <div class=""stimulus-container"">
                    <img src=""images/causal_sequence/package_causal/package_causal_9.png"" class=""exp-image"">
                    <div class=""question-area"">
                        <p style=""font-size: 20px; font-weight: bold; margin: 0;"">Is there a person in this image?</p>
                    </div>
                </div>","0","main_experiment_trial","9","package_causal","causal_sequence","chronological","","","","","","",""
"","","","","","html-keyboard-response","56","314472","0.0-56.0","8E3A2187DBA04409858ECEDB697A8F99","019cfc7c-b921-71d8-bdd7-80b8455aa9d3","019cfc7b-6c7b-7b1b-afe7-acad8efc6711","","null","
                <div class=""stimulus-container"">
                    <img src=""images/causal_sequence/package_causal/package_causal_ten.png"" class=""exp-image"">
                    <div class=""question-area""></div> 
                </div>","null","","","","","","","","","","","",""
"","","","","","html-button-response","57","315619","0.0-57.0","8E3A2187DBA04409858ECEDB697A8F99","019cfc7c-b921-71d8-bdd7-80b8455aa9d3","019cfc7b-6c7b-7b1b-afe7-acad8efc6711","","1146","
                <div class=""stimulus-container"">
                    <img src=""images/causal_sequence/package_causal/package_causal_ten.png"" class=""exp-image"">
                    <div class=""question-area"">
                        <p style=""font-size: 20px; font-weight: bold; margin: 0;"">Is there a person in this image?</p>
                    </div>
                </div>","0","main_experiment_trial","ten","package_causal","causal_sequence","chronological","","","","","","",""
"","","","","","html-keyboard-response","58","320622","0.0-58.0","8E3A2187DBA04409858ECEDB697A8F99","019cfc7c-b921-71d8-bdd7-80b8455aa9d3","019cfc7b-6c7b-7b1b-afe7-acad8efc6711","","null","<div style=""background-color: white; width: 100vw; height: 100vh;""></div>","null","","","","","","","","","","","",""
"","","","","","html-keyboard-response","59","325630","0.0-59.0","8E3A2187DBA04409858ECEDB697A8F99","019cfc7c-b921-71d8-bdd7-80b8455aa9d3","019cfc7b-6c7b-7b1b-afe7-acad8efc6711","","null","
                <div class=""stimulus-container"">
                    <img src=""images/schematic_sequence/dinner_party_scheme/dinner_party_scheme_1.png"" class=""exp-image"">
                    <div class=""question-area""></div> 
                </div>","null","","","","","","","","","","","",""
"","","","","","html-button-response","60","326869","0.0-60.0","8E3A2187DBA04409858ECEDB697A8F99","019cfc7c-b921-71d8-bdd7-80b8455aa9d3","019cfc7b-6c7b-7b1b-afe7-acad8efc6711","","1239","
                <div class=""stimulus-container"">
                    <img src=""images/schematic_sequence/dinner_party_scheme/dinner_party_scheme_1.png"" class=""exp-image"">
                    <div class=""question-area"">
                        <p style=""font-size: 20px; font-weight: bold; margin: 0;"">Is there a person in this image?</p>
                    </div>
                </div>","0","main_experiment_trial","1","dinner_party_scheme","schematic_sequence","chronological","","","","","","",""
"","","","","","html-keyboard-response","61","331883","0.0-61.0","8E3A2187DBA04409858ECEDB697A8F99","019cfc7c-b921-71d8-bdd7-80b8455aa9d3","019cfc7b-6c7b-7b1b-afe7-acad8efc6711","","null","
                <div class=""stimulus-container"">
                    <img src=""images/schematic_sequence/dinner_party_scheme/dinner_party_scheme_2.png"" class=""exp-image"">
                    <div class=""question-area""></div> 
                </div>","null","","","","","","","","","","","",""
"","","","","","html-button-response","62","332965","0.0-62.0","8E3A2187DBA04409858ECEDB697A8F99","019cfc7c-b921-71d8-bdd7-80b8455aa9d3","019cfc7b-6c7b-7b1b-afe7-acad8efc6711","","1081","
                <div class=""stimulus-container"">
                    <img src=""images/schematic_sequence/dinner_party_scheme/dinner_party_scheme_2.png"" class=""exp-image"">
                    <div class=""question-area"">
                        <p style=""font-size: 20px; font-weight: bold; margin: 0;"">Is there a person in this image?</p>
                    </div>
                </div>","0","main_experiment_trial","2","dinner_party_scheme","schematic_sequence","chronological","","","","","","",""
"","","","","","html-keyboard-response","63","337966","0.0-63.0","8E3A2187DBA04409858ECEDB697A8F99","019cfc7c-b921-71d8-bdd7-80b8455aa9d3","019cfc7b-6c7b-7b1b-afe7-acad8efc6711","","null","
                <div class=""stimulus-container"">
                    <img src=""images/schematic_sequence/dinner_party_scheme/dinner_party_scheme_3.png"" class=""exp-image"">
                    <div class=""question-area""></div> 
                </div>","null","","","","","","","","","","","",""
"","","","","","html-button-response","64","339005","0.0-64.0","8E3A2187DBA04409858ECEDB697A8F99","019cfc7c-b921-71d8-bdd7-80b8455aa9d3","019cfc7b-6c7b-7b1b-afe7-acad8efc6711","","1038","
                <div class=""stimulus-container"">
                    <img src=""images/schematic_sequence/dinner_party_scheme/dinner_party_scheme_3.png"" class=""exp-image"">
                    <div class=""question-area"">
                        <p style=""font-size: 20px; font-weight: bold; margin: 0;"">Is there a person in this image?</p>
                    </div>
                </div>","0","main_experiment_trial","3","dinner_party_scheme","schematic_sequence","chronological","","","","","","",""
"","","","","","html-keyboard-response","65","344014","0.0-65.0","8E3A2187DBA04409858ECEDB697A8F99","019cfc7c-b921-71d8-bdd7-80b8455aa9d3","019cfc7b-6c7b-7b1b-afe7-acad8efc6711","","null","
                <div class=""stimulus-container"">
                    <img src=""images/schematic_sequence/dinner_party_scheme/dinner_party_scheme_4.png"" class=""exp-image"">
                    <div class=""question-area""></div> 
                </div>","null","","","","","","","","","","","",""
"","","","","","html-button-response","66","345280","0.0-66.0","8E3A2187DBA04409858ECEDB697A8F99","019cfc7c-b921-71d8-bdd7-80b8455aa9d3","019cfc7b-6c7b-7b1b-afe7-acad8efc6711","","1265","
                <div class=""stimulus-container"">
                    <img src=""images/schematic_sequence/dinner_party_scheme/dinner_party_scheme_4.png"" class=""exp-image"">
                    <div class=""question-area"">
                        <p style=""font-size: 20px; font-weight: bold; margin: 0;"">Is there a person in this image?</p>
                    </div>
                </div>","0","main_experiment_trial","4","dinner_party_scheme","schematic_sequence","chronological","","","","","","",""
"","","","","","html-keyboard-response","67","350283","0.0-67.0","8E3A2187DBA04409858ECEDB697A8F99","019cfc7c-b921-71d8-bdd7-80b8455aa9d3","019cfc7b-6c7b-7b1b-afe7-acad8efc6711","","null","
                <div class=""stimulus-container"">
                    <img src=""images/schematic_sequence/dinner_party_scheme/dinner_party_scheme_5.png"" class=""exp-image"">
                    <div class=""question-area""></div> 
                </div>","null","","","","","","","","","","","",""
"","","","","","html-button-response","68","351149","0.0-68.0","8E3A2187DBA04409858ECEDB697A8F99","019cfc7c-b921-71d8-bdd7-80b8455aa9d3","019cfc7b-6c7b-7b1b-afe7-acad8efc6711","","864","
                <div class=""stimulus-container"">
                    <img src=""images/schematic_sequence/dinner_party_scheme/dinner_party_scheme_5.png"" class=""exp-image"">
                    <div class=""question-area"">
                        <p style=""font-size: 20px; font-weight: bold; margin: 0;"">Is there a person in this image?</p>
                    </div>
                </div>","0","main_experiment_trial","5","dinner_party_scheme","schematic_sequence","chronological","","","","","","",""
"","","","","","html-keyboard-response","69","356157","0.0-69.0","8E3A2187DBA04409858ECEDB697A8F99","019cfc7c-b921-71d8-bdd7-80b8455aa9d3","019cfc7b-6c7b-7b1b-afe7-acad8efc6711","","null","
                <div class=""stimulus-container"">
                    <img src=""images/schematic_sequence/dinner_party_scheme/dinner_party_scheme_6.png"" class=""exp-image"">
                    <div class=""question-area""></div> 
                </div>","null","","","","","","","","","","","",""
"","","","","","html-button-response","70","357154","0.0-70.0","8E3A2187DBA04409858ECEDB697A8F99","019cfc7c-b921-71d8-bdd7-80b8455aa9d3","019cfc7b-6c7b-7b1b-afe7-acad8efc6711","","997","
                <div class=""stimulus-container"">
                    <img src=""images/schematic_sequence/dinner_party_scheme/dinner_party_scheme_6.png"" class=""exp-image"">
                    <div class=""question-area"">
                        <p style=""font-size: 20px; font-weight: bold; margin: 0;"">Is there a person in this image?</p>
                    </div>
                </div>","0","main_experiment_trial","6","dinner_party_scheme","schematic_sequence","chronological","","","","","","",""
"","","","","","html-keyboard-response","71","362167","0.0-71.0","8E3A2187DBA04409858ECEDB697A8F99","019cfc7c-b921-71d8-bdd7-80b8455aa9d3","019cfc7b-6c7b-7b1b-afe7-acad8efc6711","","null","
                <div class=""stimulus-container"">
                    <img src=""images/schematic_sequence/dinner_party_scheme/dinner_party_scheme_7.png"" class=""exp-image"">
                    <div class=""question-area""></div> 
                </div>","null","","","","","","","","","","","",""
"","","","","","html-button-response","72","363273","0.0-72.0","8E3A2187DBA04409858ECEDB697A8F99","019cfc7c-b921-71d8-bdd7-80b8455aa9d3","019cfc7b-6c7b-7b1b-afe7-acad8efc6711","","1105","
                <div class=""stimulus-container"">
                    <img src=""images/schematic_sequence/dinner_party_scheme/dinner_party_scheme_7.png"" class=""exp-image"">
                    <div class=""question-area"">
                        <p style=""font-size: 20px; font-weight: bold; margin: 0;"">Is there a person in this image?</p>
                    </div>
                </div>","0","main_experiment_trial","7","dinner_party_scheme","schematic_sequence","chronological","","","","","","",""
"","","","","","html-keyboard-response","73","368274","0.0-73.0","8E3A2187DBA04409858ECEDB697A8F99","019cfc7c-b921-71d8-bdd7-80b8455aa9d3","019cfc7b-6c7b-7b1b-afe7-acad8efc6711","","null","
                <div class=""stimulus-container"">
                    <img src=""images/schematic_sequence/dinner_party_scheme/dinner_party_scheme_8.png"" class=""exp-image"">
                    <div class=""question-area""></div> 
                </div>","null","","","","","","","","","","","",""
"","","","","","html-button-response","74","369236","0.0-74.0","8E3A2187DBA04409858ECEDB697A8F99","019cfc7c-b921-71d8-bdd7-80b8455aa9d3","019cfc7b-6c7b-7b1b-afe7-acad8efc6711","","961","
                <div class=""stimulus-container"">
                    <img src=""images/schematic_sequence/dinner_party_scheme/dinner_party_scheme_8.png"" class=""exp-image"">
                    <div class=""question-area"">
                        <p style=""font-size: 20px; font-weight: bold; margin: 0;"">Is there a person in this image?</p>
                    </div>
                </div>","0","main_experiment_trial","8","dinner_party_scheme","schematic_sequence","chronological","","","","","","",""
"","","","","","html-keyboard-response","75","374242","0.0-75.0","8E3A2187DBA04409858ECEDB697A8F99","019cfc7c-b921-71d8-bdd7-80b8455aa9d3","019cfc7b-6c7b-7b1b-afe7-acad8efc6711","","null","
                <div class=""stimulus-container"">
                    <img src=""images/schematic_sequence/dinner_party_scheme/dinner_party_scheme_9.png"" class=""exp-image"">
                    <div class=""question-area""></div> 
                </div>","null","","","","","","","","","","","",""
"","","","","","html-button-response","76","375265","0.0-76.0","8E3A2187DBA04409858ECEDB697A8F99","019cfc7c-b921-71d8-bdd7-80b8455aa9d3","019cfc7b-6c7b-7b1b-afe7-acad8efc6711","","1021","
                <div class=""stimulus-container"">
                    <img src=""images/schematic_sequence/dinner_party_scheme/dinner_party_scheme_9.png"" class=""exp-image"">
                    <div class=""question-area"">
                        <p style=""font-size: 20px; font-weight: bold; margin: 0;"">Is there a person in this image?</p>
                    </div>
                </div>","0","main_experiment_trial","9","dinner_party_scheme","schematic_sequence","chronological","","","","","","",""
"","","","","","html-keyboard-response","77","380266","0.0-77.0","8E3A2187DBA04409858ECEDB697A8F99","019cfc7c-b921-71d8-bdd7-80b8455aa9d3","019cfc7b-6c7b-7b1b-afe7-acad8efc6711","","null","
                <div class=""stimulus-container"">
                    <img src=""images/schematic_sequence/dinner_party_scheme/dinner_party_scheme_ten.png"" class=""exp-image"">
                    <div class=""question-area""></div> 
                </div>","null","","","","","","","","","","","",""
"","","","","","html-button-response","78","380936","0.0-78.0","8E3A2187DBA04409858ECEDB697A8F99","019cfc7c-b921-71d8-bdd7-80b8455aa9d3","019cfc7b-6c7b-7b1b-afe7-acad8efc6711","","669","
                <div class=""stimulus-container"">
                    <img src=""images/schematic_sequence/dinner_party_scheme/dinner_party_scheme_ten.png"" class=""exp-image"">
                    <div class=""question-area"">
                        <p style=""font-size: 20px; font-weight: bold; margin: 0;"">Is there a person in this image?</p>
                    </div>
                </div>","0","main_experiment_trial","ten","dinner_party_scheme","schematic_sequence","chronological","","","","","","",""
"","","","","","html-keyboard-response","79","385950","0.0-79.0","8E3A2187DBA04409858ECEDB697A8F99","019cfc7c-b921-71d8-bdd7-80b8455aa9d3","019cfc7b-6c7b-7b1b-afe7-acad8efc6711","","null","<div style=""background-color: white; width: 100vw; height: 100vh;""></div>","null","","","","","","","","","","","",""
"","","","","","html-keyboard-response","80","390953","0.0-80.0","8E3A2187DBA04409858ECEDB697A8F99","019cfc7c-b921-71d8-bdd7-80b8455aa9d3","019cfc7b-6c7b-7b1b-afe7-acad8efc6711","","null","
                <div class=""stimulus-container"">
                    <img src=""images/schematic_sequence/hotel_scheme/hotel_scheme_1.png"" class=""exp-image"">
                    <div class=""question-area""></div> 
                </div>","null","","","","","","","","","","","",""
"","","","","","html-button-response","81","392171","0.0-81.0","8E3A2187DBA04409858ECEDB697A8F99","019cfc7c-b921-71d8-bdd7-80b8455aa9d3","019cfc7b-6c7b-7b1b-afe7-acad8efc6711","","1217","
                <div class=""stimulus-container"">
                    <img src=""images/schematic_sequence/hotel_scheme/hotel_scheme_1.png"" class=""exp-image"">
                    <div class=""question-area"">
                        <p style=""font-size: 20px; font-weight: bold; margin: 0;"">Is there a person in this image?</p>
                    </div>
                </div>","1","main_experiment_trial","1","hotel_scheme","schematic_sequence","chronological","","","","","","",""
"","","","","","html-keyboard-response","82","397185","0.0-82.0","8E3A2187DBA04409858ECEDB697A8F99","019cfc7c-b921-71d8-bdd7-80b8455aa9d3","019cfc7b-6c7b-7b1b-afe7-acad8efc6711","","null","
                <div class=""stimulus-container"">
                    <img src=""images/schematic_sequence/hotel_scheme/hotel_scheme_2.png"" class=""exp-image"">
                    <div class=""question-area""></div> 
                </div>","null","","","","","","","","","","","",""
"","","","","","html-button-response","83","397816","0.0-83.0","8E3A2187DBA04409858ECEDB697A8F99","019cfc7c-b921-71d8-bdd7-80b8455aa9d3","019cfc7b-6c7b-7b1b-afe7-acad8efc6711","","630","
                <div class=""stimulus-container"">
                    <img src=""images/schematic_sequence/hotel_scheme/hotel_scheme_2.png"" class=""exp-image"">
                    <div class=""question-area"">
                        <p style=""font-size: 20px; font-weight: bold; margin: 0;"">Is there a person in this image?</p>
                    </div>
                </div>","0","main_experiment_trial","2","hotel_scheme","schematic_sequence","chronological","","","","","","",""
"","","","","","html-keyboard-response","84","402822","0.0-84.0","8E3A2187DBA04409858ECEDB697A8F99","019cfc7c-b921-71d8-bdd7-80b8455aa9d3","019cfc7b-6c7b-7b1b-afe7-acad8efc6711","","null","
                <div class=""stimulus-container"">
                    <img src=""images/schematic_sequence/hotel_scheme/hotel_scheme_3.png"" class=""exp-image"">
                    <div class=""question-area""></div> 
                </div>","null","","","","","","","","","","","",""
"","","","","","html-button-response","85","403633","0.0-85.0","8E3A2187DBA04409858ECEDB697A8F99","019cfc7c-b921-71d8-bdd7-80b8455aa9d3","019cfc7b-6c7b-7b1b-afe7-acad8efc6711","","810","
                <div class=""stimulus-container"">
                    <img src=""images/schematic_sequence/hotel_scheme/hotel_scheme_3.png"" class=""exp-image"">
                    <div class=""question-area"">
                        <p style=""font-size: 20px; font-weight: bold; margin: 0;"">Is there a person in this image?</p>
                    </div>
                </div>","0","main_experiment_trial","3","hotel_scheme","schematic_sequence","chronological","","","","","","",""
"","","","","","html-keyboard-response","86","408638","0.0-86.0","8E3A2187DBA04409858ECEDB697A8F99","019cfc7c-b921-71d8-bdd7-80b8455aa9d3","019cfc7b-6c7b-7b1b-afe7-acad8efc6711","","null","
                <div class=""stimulus-container"">
                    <img src=""images/schematic_sequence/hotel_scheme/hotel_scheme_4.png"" class=""exp-image"">
                    <div class=""question-area""></div> 
                </div>","null","","","","","","","","","","","",""
"","","","","","html-button-response","87","409778","0.0-87.0","8E3A2187DBA04409858ECEDB697A8F99","019cfc7c-b921-71d8-bdd7-80b8455aa9d3","019cfc7b-6c7b-7b1b-afe7-acad8efc6711","","1139","
                <div class=""stimulus-container"">
                    <img src=""images/schematic_sequence/hotel_scheme/hotel_scheme_4.png"" class=""exp-image"">
                    <div class=""question-area"">
                        <p style=""font-size: 20px; font-weight: bold; margin: 0;"">Is there a person in this image?</p>
                    </div>
                </div>","1","main_experiment_trial","4","hotel_scheme","schematic_sequence","chronological","","","","","","",""
"","","","","","html-keyboard-response","88","414791","0.0-88.0","8E3A2187DBA04409858ECEDB697A8F99","019cfc7c-b921-71d8-bdd7-80b8455aa9d3","019cfc7b-6c7b-7b1b-afe7-acad8efc6711","","null","
                <div class=""stimulus-container"">
                    <img src=""images/schematic_sequence/hotel_scheme/hotel_scheme_5.png"" class=""exp-image"">
                    <div class=""question-area""></div> 
                </div>","null","","","","","","","","","","","",""
"","","","","","html-button-response","89","416659","0.0-89.0","8E3A2187DBA04409858ECEDB697A8F99","019cfc7c-b921-71d8-bdd7-80b8455aa9d3","019cfc7b-6c7b-7b1b-afe7-acad8efc6711","","1867","
                <div class=""stimulus-container"">
                    <img src=""images/schematic_sequence/hotel_scheme/hotel_scheme_5.png"" class=""exp-image"">
                    <div class=""question-area"">
                        <p style=""font-size: 20px; font-weight: bold; margin: 0;"">Is there a person in this image?</p>
                    </div>
                </div>","0","main_experiment_trial","5","hotel_scheme","schematic_sequence","chronological","","","","","","",""
"","","","","","html-keyboard-response","90","421674","0.0-90.0","8E3A2187DBA04409858ECEDB697A8F99","019cfc7c-b921-71d8-bdd7-80b8455aa9d3","019cfc7b-6c7b-7b1b-afe7-acad8efc6711","","null","
                <div class=""stimulus-container"">
                    <img src=""images/schematic_sequence/hotel_scheme/hotel_scheme_6.png"" class=""exp-image"">
                    <div class=""question-area""></div> 
                </div>","null","","","","","","","","","","","",""
"","","","","","html-button-response","91","422900","0.0-91.0","8E3A2187DBA04409858ECEDB697A8F99","019cfc7c-b921-71d8-bdd7-80b8455aa9d3","019cfc7b-6c7b-7b1b-afe7-acad8efc6711","","1225","
                <div class=""stimulus-container"">
                    <img src=""images/schematic_sequence/hotel_scheme/hotel_scheme_6.png"" class=""exp-image"">
                    <div class=""question-area"">
                        <p style=""font-size: 20px; font-weight: bold; margin: 0;"">Is there a person in this image?</p>
                    </div>
                </div>","0","main_experiment_trial","6","hotel_scheme","schematic_sequence","chronological","","","","","","",""
"","","","","","html-keyboard-response","92","427913","0.0-92.0","8E3A2187DBA04409858ECEDB697A8F99","019cfc7c-b921-71d8-bdd7-80b8455aa9d3","019cfc7b-6c7b-7b1b-afe7-acad8efc6711","","null","
                <div class=""stimulus-container"">
                    <img src=""images/schematic_sequence/hotel_scheme/hotel_scheme_7.png"" class=""exp-image"">
                    <div class=""question-area""></div> 
                </div>","null","","","","","","","","","","","",""
"","","","","","html-button-response","93","428720","0.0-93.0","8E3A2187DBA04409858ECEDB697A8F99","019cfc7c-b921-71d8-bdd7-80b8455aa9d3","019cfc7b-6c7b-7b1b-afe7-acad8efc6711","","806","
                <div class=""stimulus-container"">
                    <img src=""images/schematic_sequence/hotel_scheme/hotel_scheme_7.png"" class=""exp-image"">
                    <div class=""question-area"">
                        <p style=""font-size: 20px; font-weight: bold; margin: 0;"">Is there a person in this image?</p>
                    </div>
                </div>","0","main_experiment_trial","7","hotel_scheme","schematic_sequence","chronological","","","","","","",""
"","","","","","html-keyboard-response","94","433722","0.0-94.0","8E3A2187DBA04409858ECEDB697A8F99","019cfc7c-b921-71d8-bdd7-80b8455aa9d3","019cfc7b-6c7b-7b1b-afe7-acad8efc6711","","null","
                <div class=""stimulus-container"">
                    <img src=""images/schematic_sequence/hotel_scheme/hotel_scheme_8.png"" class=""exp-image"">
                    <div class=""question-area""></div> 
                </div>","null","","","","","","","","","","","",""
"","","","","","html-button-response","95","434584","0.0-95.0","8E3A2187DBA04409858ECEDB697A8F99","019cfc7c-b921-71d8-bdd7-80b8455aa9d3","019cfc7b-6c7b-7b1b-afe7-acad8efc6711","","861","
                <div class=""stimulus-container"">
                    <img src=""images/schematic_sequence/hotel_scheme/hotel_scheme_8.png"" class=""exp-image"">
                    <div class=""question-area"">
                        <p style=""font-size: 20px; font-weight: bold; margin: 0;"">Is there a person in this image?</p>
                    </div>
                </div>","0","main_experiment_trial","8","hotel_scheme","schematic_sequence","chronological","","","","","","",""
"","","","","","html-keyboard-response","96","439589","0.0-96.0","8E3A2187DBA04409858ECEDB697A8F99","019cfc7c-b921-71d8-bdd7-80b8455aa9d3","019cfc7b-6c7b-7b1b-afe7-acad8efc6711","","null","
                <div class=""stimulus-container"">
                    <img src=""images/schematic_sequence/hotel_scheme/hotel_scheme_9.png"" class=""exp-image"">
                    <div class=""question-area""></div> 
                </div>","null","","","","","","","","","","","",""
"","","","","","html-button-response","97","440640","0.0-97.0","8E3A2187DBA04409858ECEDB697A8F99","019cfc7c-b921-71d8-bdd7-80b8455aa9d3","019cfc7b-6c7b-7b1b-afe7-acad8efc6711","","1050","
                <div class=""stimulus-container"">
                    <img src=""images/schematic_sequence/hotel_scheme/hotel_scheme_9.png"" class=""exp-image"">
                    <div class=""question-area"">
                        <p style=""font-size: 20px; font-weight: bold; margin: 0;"">Is there a person in this image?</p>
                    </div>
                </div>","0","main_experiment_trial","9","hotel_scheme","schematic_sequence","chronological","","","","","","",""
"","","","","","html-keyboard-response","98","445653","0.0-98.0","8E3A2187DBA04409858ECEDB697A8F99","019cfc7c-b921-71d8-bdd7-80b8455aa9d3","019cfc7b-6c7b-7b1b-afe7-acad8efc6711","","null","
                <div class=""stimulus-container"">
                    <img src=""images/schematic_sequence/hotel_scheme/hotel_scheme_ten.png"" class=""exp-image"">
                    <div class=""question-area""></div> 
                </div>","null","","","","","","","","","","","",""
"","","","","","html-button-response","99","446527","0.0-99.0","8E3A2187DBA04409858ECEDB697A8F99","019cfc7c-b921-71d8-bdd7-80b8455aa9d3","019cfc7b-6c7b-7b1b-afe7-acad8efc6711","","873","
                <div class=""stimulus-container"">
                    <img src=""images/schematic_sequence/hotel_scheme/hotel_scheme_ten.png"" class=""exp-image"">
                    <div class=""question-area"">
                        <p style=""font-size: 20px; font-weight: bold; margin: 0;"">Is there a person in this image?</p>
                    </div>
                </div>","0","main_experiment_trial","ten","hotel_scheme","schematic_sequence","chronological","","","","","","",""
"","","","","","html-keyboard-response","100","451534","0.0-100.0","8E3A2187DBA04409858ECEDB697A8F99","019cfc7c-b921-71d8-bdd7-80b8455aa9d3","019cfc7b-6c7b-7b1b-afe7-acad8efc6711","","null","<div style=""background-color: white; width: 100vw; height: 100vh;""></div>","null","","","","","","","","","","","",""
"","","","","","html-keyboard-response","101","456546","0.0-101.0","8E3A2187DBA04409858ECEDB697A8F99","019cfc7c-b921-71d8-bdd7-80b8455aa9d3","019cfc7b-6c7b-7b1b-afe7-acad8efc6711","","null","
                <div class=""stimulus-container"">
                    <img src=""images/causal_sequence/saving_a_cat_causal/saving_a_cat_causal_1.png"" class=""exp-image"">
                    <div class=""question-area""></div> 
                </div>","null","","","","","","","","","","","",""
"","","","","","html-button-response","102","457497","0.0-102.0","8E3A2187DBA04409858ECEDB697A8F99","019cfc7c-b921-71d8-bdd7-80b8455aa9d3","019cfc7b-6c7b-7b1b-afe7-acad8efc6711","","950","
                <div class=""stimulus-container"">
                    <img src=""images/causal_sequence/saving_a_cat_causal/saving_a_cat_causal_1.png"" class=""exp-image"">
                    <div class=""question-area"">
                        <p style=""font-size: 20px; font-weight: bold; margin: 0;"">Is there a person in this image?</p>
                    </div>
                </div>","0","main_experiment_trial","1","saving_a_cat_causal","causal_sequence","chronological","","","","","","",""
"","","","","","html-keyboard-response","103","462510","0.0-103.0","8E3A2187DBA04409858ECEDB697A8F99","019cfc7c-b921-71d8-bdd7-80b8455aa9d3","019cfc7b-6c7b-7b1b-afe7-acad8efc6711","","null","
                <div class=""stimulus-container"">
                    <img src=""images/causal_sequence/saving_a_cat_causal/saving_a_cat_causal_2.png"" class=""exp-image"">
                    <div class=""question-area""></div> 
                </div>","null","","","","","","","","","","","",""
"","","","","","html-button-response","104","463699","0.0-104.0","8E3A2187DBA04409858ECEDB697A8F99","019cfc7c-b921-71d8-bdd7-80b8455aa9d3","019cfc7b-6c7b-7b1b-afe7-acad8efc6711","","1188","
                <div class=""stimulus-container"">
                    <img src=""images/causal_sequence/saving_a_cat_causal/saving_a_cat_causal_2.png"" class=""exp-image"">
                    <div class=""question-area"">
                        <p style=""font-size: 20px; font-weight: bold; margin: 0;"">Is there a person in this image?</p>
                    </div>
                </div>","1","main_experiment_trial","2","saving_a_cat_causal","causal_sequence","chronological","","","","","","",""
"","","","","","html-keyboard-response","105","468710","0.0-105.0","8E3A2187DBA04409858ECEDB697A8F99","019cfc7c-b921-71d8-bdd7-80b8455aa9d3","019cfc7b-6c7b-7b1b-afe7-acad8efc6711","","null","
                <div class=""stimulus-container"">
                    <img src=""images/causal_sequence/saving_a_cat_causal/saving_a_cat_causal_3.png"" class=""exp-image"">
                    <div class=""question-area""></div> 
                </div>","null","","","","","","","","","","","",""
"","","","","","html-button-response","106","470457","0.0-106.0","8E3A2187DBA04409858ECEDB697A8F99","019cfc7c-b921-71d8-bdd7-80b8455aa9d3","019cfc7b-6c7b-7b1b-afe7-acad8efc6711","","1745","
                <div class=""stimulus-container"">
                    <img src=""images/causal_sequence/saving_a_cat_causal/saving_a_cat_causal_3.png"" class=""exp-image"">
                    <div class=""question-area"">
                        <p style=""font-size: 20px; font-weight: bold; margin: 0;"">Is there a person in this image?</p>
                    </div>
                </div>","1","main_experiment_trial","3","saving_a_cat_causal","causal_sequence","chronological","","","","","","",""
"","","","","","html-keyboard-response","107","475464","0.0-107.0","8E3A2187DBA04409858ECEDB697A8F99","019cfc7c-b921-71d8-bdd7-80b8455aa9d3","019cfc7b-6c7b-7b1b-afe7-acad8efc6711","","null","
                <div class=""stimulus-container"">
                    <img src=""images/causal_sequence/saving_a_cat_causal/saving_a_cat_causal_4.png"" class=""exp-image"">
                    <div class=""question-area""></div> 
                </div>","null","","","","","","","","","","","",""
"","","","","","html-button-response","108","476573","0.0-108.0","8E3A2187DBA04409858ECEDB697A8F99","019cfc7c-b921-71d8-bdd7-80b8455aa9d3","019cfc7b-6c7b-7b1b-afe7-acad8efc6711","","1108","
                <div class=""stimulus-container"">
                    <img src=""images/causal_sequence/saving_a_cat_causal/saving_a_cat_causal_4.png"" class=""exp-image"">
                    <div class=""question-area"">
                        <p style=""font-size: 20px; font-weight: bold; margin: 0;"">Is there a person in this image?</p>
                    </div>
                </div>","0","main_experiment_trial","4","saving_a_cat_causal","causal_sequence","chronological","","","","","","",""
"","","","","","html-keyboard-response","109","481580","0.0-109.0","8E3A2187DBA04409858ECEDB697A8F99","019cfc7c-b921-71d8-bdd7-80b8455aa9d3","019cfc7b-6c7b-7b1b-afe7-acad8efc6711","","null","
                <div class=""stimulus-container"">
                    <img src=""images/causal_sequence/saving_a_cat_causal/saving_a_cat_causal_5.png"" class=""exp-image"">
                    <div class=""question-area""></div> 
                </div>","null","","","","","","","","","","","",""
"","","","","","html-button-response","110","482421","0.0-110.0","8E3A2187DBA04409858ECEDB697A8F99","019cfc7c-b921-71d8-bdd7-80b8455aa9d3","019cfc7b-6c7b-7b1b-afe7-acad8efc6711","","840","
                <div class=""stimulus-container"">
                    <img src=""images/causal_sequence/saving_a_cat_causal/saving_a_cat_causal_5.png"" class=""exp-image"">
                    <div class=""question-area"">
                        <p style=""font-size: 20px; font-weight: bold; margin: 0;"">Is there a person in this image?</p>
                    </div>
                </div>","0","main_experiment_trial","5","saving_a_cat_causal","causal_sequence","chronological","","","","","","",""
"","","","","","html-keyboard-response","111","487433","0.0-111.0","8E3A2187DBA04409858ECEDB697A8F99","019cfc7c-b921-71d8-bdd7-80b8455aa9d3","019cfc7b-6c7b-7b1b-afe7-acad8efc6711","","null","
                <div class=""stimulus-container"">
                    <img src=""images/causal_sequence/saving_a_cat_causal/saving_a_cat_causal_6.png"" class=""exp-image"">
                    <div class=""question-area""></div> 
                </div>","null","","","","","","","","","","","",""
"","","","","","html-button-response","112","488326","0.0-112.0","8E3A2187DBA04409858ECEDB697A8F99","019cfc7c-b921-71d8-bdd7-80b8455aa9d3","019cfc7b-6c7b-7b1b-afe7-acad8efc6711","","892","
                <div class=""stimulus-container"">
                    <img src=""images/causal_sequence/saving_a_cat_causal/saving_a_cat_causal_6.png"" class=""exp-image"">
                    <div class=""question-area"">
                        <p style=""font-size: 20px; font-weight: bold; margin: 0;"">Is there a person in this image?</p>
                    </div>
                </div>","0","main_experiment_trial","6","saving_a_cat_causal","causal_sequence","chronological","","","","","","",""
"","","","","","html-keyboard-response","113","493330","0.0-113.0","8E3A2187DBA04409858ECEDB697A8F99","019cfc7c-b921-71d8-bdd7-80b8455aa9d3","019cfc7b-6c7b-7b1b-afe7-acad8efc6711","","null","
                <div class=""stimulus-container"">
                    <img src=""images/causal_sequence/saving_a_cat_causal/saving_a_cat_causal_7.png"" class=""exp-image"">
                    <div class=""question-area""></div> 
                </div>","null","","","","","","","","","","","",""
"","","","","","html-button-response","114","494448","0.0-114.0","8E3A2187DBA04409858ECEDB697A8F99","019cfc7c-b921-71d8-bdd7-80b8455aa9d3","019cfc7b-6c7b-7b1b-afe7-acad8efc6711","","1117","
                <div class=""stimulus-container"">
                    <img src=""images/causal_sequence/saving_a_cat_causal/saving_a_cat_causal_7.png"" class=""exp-image"">
                    <div class=""question-area"">
                        <p style=""font-size: 20px; font-weight: bold; margin: 0;"">Is there a person in this image?</p>
                    </div>
                </div>","0","main_experiment_trial","7","saving_a_cat_causal","causal_sequence","chronological","","","","","","",""
"","","","","","html-keyboard-response","115","499459","0.0-115.0","8E3A2187DBA04409858ECEDB697A8F99","019cfc7c-b921-71d8-bdd7-80b8455aa9d3","019cfc7b-6c7b-7b1b-afe7-acad8efc6711","","null","
                <div class=""stimulus-container"">
                    <img src=""images/causal_sequence/saving_a_cat_causal/saving_a_cat_causal_8.png"" class=""exp-image"">
                    <div class=""question-area""></div> 
                </div>","null","","","","","","","","","","","",""
"","","","","","html-button-response","116","500757","0.0-116.0","8E3A2187DBA04409858ECEDB697A8F99","019cfc7c-b921-71d8-bdd7-80b8455aa9d3","019cfc7b-6c7b-7b1b-afe7-acad8efc6711","","1298","
                <div class=""stimulus-container"">
                    <img src=""images/causal_sequence/saving_a_cat_causal/saving_a_cat_causal_8.png"" class=""exp-image"">
                    <div class=""question-area"">
                        <p style=""font-size: 20px; font-weight: bold; margin: 0;"">Is there a person in this image?</p>
                    </div>
                </div>","0","main_experiment_trial","8","saving_a_cat_causal","causal_sequence","chronological","","","","","","",""
"","","","","","html-keyboard-response","117","505763","0.0-117.0","8E3A2187DBA04409858ECEDB697A8F99","019cfc7c-b921-71d8-bdd7-80b8455aa9d3","019cfc7b-6c7b-7b1b-afe7-acad8efc6711","","null","
                <div class=""stimulus-container"">
                    <img src=""images/causal_sequence/saving_a_cat_causal/saving_a_cat_causal_9.png"" class=""exp-image"">
                    <div class=""question-area""></div> 
                </div>","null","","","","","","","","","","","",""
"","","","","","html-button-response","118","506983","0.0-118.0","8E3A2187DBA04409858ECEDB697A8F99","019cfc7c-b921-71d8-bdd7-80b8455aa9d3","019cfc7b-6c7b-7b1b-afe7-acad8efc6711","","1219","
                <div class=""stimulus-container"">
                    <img src=""images/causal_sequence/saving_a_cat_causal/saving_a_cat_causal_9.png"" class=""exp-image"">
                    <div class=""question-area"">
                        <p style=""font-size: 20px; font-weight: bold; margin: 0;"">Is there a person in this image?</p>
                    </div>
                </div>","0","main_experiment_trial","9","saving_a_cat_causal","causal_sequence","chronological","","","","","","",""
"","","","","","html-keyboard-response","119","511994","0.0-119.0","8E3A2187DBA04409858ECEDB697A8F99","019cfc7c-b921-71d8-bdd7-80b8455aa9d3","019cfc7b-6c7b-7b1b-afe7-acad8efc6711","","null","
                <div class=""stimulus-container"">
                    <img src=""images/causal_sequence/saving_a_cat_causal/saving_a_cat_causal_ten.png"" class=""exp-image"">
                    <div class=""question-area""></div> 
                </div>","null","","","","","","","","","","","",""
"","","","","","html-button-response","120","513076","0.0-120.0","8E3A2187DBA04409858ECEDB697A8F99","019cfc7c-b921-71d8-bdd7-80b8455aa9d3","019cfc7b-6c7b-7b1b-afe7-acad8efc6711","","1082","
                <div class=""stimulus-container"">
                    <img src=""images/causal_sequence/saving_a_cat_causal/saving_a_cat_causal_ten.png"" class=""exp-image"">
                    <div class=""question-area"">
                        <p style=""font-size: 20px; font-weight: bold; margin: 0;"">Is there a person in this image?</p>
                    </div>
                </div>","0","main_experiment_trial","ten","saving_a_cat_causal","causal_sequence","chronological","","","","","","",""
"","","","","","html-keyboard-response","121","518090","0.0-121.0","8E3A2187DBA04409858ECEDB697A8F99","019cfc7c-b921-71d8-bdd7-80b8455aa9d3","019cfc7b-6c7b-7b1b-afe7-acad8efc6711","","null","<div style=""background-color: white; width: 100vw; height: 100vh;""></div>","null","","","","","","","","","","","",""
"","","","","","html-keyboard-response","122","523108","0.0-122.0","8E3A2187DBA04409858ECEDB697A8F99","019cfc7c-b921-71d8-bdd7-80b8455aa9d3","019cfc7b-6c7b-7b1b-afe7-acad8efc6711","","null","
                <div class=""stimulus-container"">
                    <img src=""images/schematic_sequence/restaurant_scheme/restaurant_scheme_1.png"" class=""exp-image"">
                    <div class=""question-area""></div> 
                </div>","null","","","","","","","","","","","",""
"","","","","","html-button-response","123","524171","0.0-123.0","8E3A2187DBA04409858ECEDB697A8F99","019cfc7c-b921-71d8-bdd7-80b8455aa9d3","019cfc7b-6c7b-7b1b-afe7-acad8efc6711","","1063","
                <div class=""stimulus-container"">
                    <img src=""images/schematic_sequence/restaurant_scheme/restaurant_scheme_1.png"" class=""exp-image"">
                    <div class=""question-area"">
                        <p style=""font-size: 20px; font-weight: bold; margin: 0;"">Is there a person in this image?</p>
                    </div>
                </div>","0","main_experiment_trial","1","restaurant_scheme","schematic_sequence","chronological","","","","","","",""
"","","","","","html-keyboard-response","124","529174","0.0-124.0","8E3A2187DBA04409858ECEDB697A8F99","019cfc7c-b921-71d8-bdd7-80b8455aa9d3","019cfc7b-6c7b-7b1b-afe7-acad8efc6711","","null","
                <div class=""stimulus-container"">
                    <img src=""images/schematic_sequence/restaurant_scheme/restaurant_scheme_2.png"" class=""exp-image"">
                    <div class=""question-area""></div> 
                </div>","null","","","","","","","","","","","",""
"","","","","","html-button-response","125","530247","0.0-125.0","8E3A2187DBA04409858ECEDB697A8F99","019cfc7c-b921-71d8-bdd7-80b8455aa9d3","019cfc7b-6c7b-7b1b-afe7-acad8efc6711","","1072","
                <div class=""stimulus-container"">
                    <img src=""images/schematic_sequence/restaurant_scheme/restaurant_scheme_2.png"" class=""exp-image"">
                    <div class=""question-area"">
                        <p style=""font-size: 20px; font-weight: bold; margin: 0;"">Is there a person in this image?</p>
                    </div>
                </div>","1","main_experiment_trial","2","restaurant_scheme","schematic_sequence","chronological","","","","","","",""
"","","","","","html-keyboard-response","126","535251","0.0-126.0","8E3A2187DBA04409858ECEDB697A8F99","019cfc7c-b921-71d8-bdd7-80b8455aa9d3","019cfc7b-6c7b-7b1b-afe7-acad8efc6711","","null","
                <div class=""stimulus-container"">
                    <img src=""images/schematic_sequence/restaurant_scheme/restaurant_scheme_3.png"" class=""exp-image"">
                    <div class=""question-area""></div> 
                </div>","null","","","","","","","","","","","",""
"","","","","","html-button-response","127","537255","0.0-127.0","8E3A2187DBA04409858ECEDB697A8F99","019cfc7c-b921-71d8-bdd7-80b8455aa9d3","019cfc7b-6c7b-7b1b-afe7-acad8efc6711","","2002","
                <div class=""stimulus-container"">
                    <img src=""images/schematic_sequence/restaurant_scheme/restaurant_scheme_3.png"" class=""exp-image"">
                    <div class=""question-area"">
                        <p style=""font-size: 20px; font-weight: bold; margin: 0;"">Is there a person in this image?</p>
                    </div>
                </div>","1","main_experiment_trial","3","restaurant_scheme","schematic_sequence","chronological","","","","","","",""
"","","","","","html-keyboard-response","128","542261","0.0-128.0","8E3A2187DBA04409858ECEDB697A8F99","019cfc7c-b921-71d8-bdd7-80b8455aa9d3","019cfc7b-6c7b-7b1b-afe7-acad8efc6711","","null","
                <div class=""stimulus-container"">
                    <img src=""images/schematic_sequence/restaurant_scheme/restaurant_scheme_4.png"" class=""exp-image"">
                    <div class=""question-area""></div> 
                </div>","null","","","","","","","","","","","",""
"","","","","","html-button-response","129","543890","0.0-129.0","8E3A2187DBA04409858ECEDB697A8F99","019cfc7c-b921-71d8-bdd7-80b8455aa9d3","019cfc7b-6c7b-7b1b-afe7-acad8efc6711","","1629","
                <div class=""stimulus-container"">
                    <img src=""images/schematic_sequence/restaurant_scheme/restaurant_scheme_4.png"" class=""exp-image"">
                    <div class=""question-area"">
                        <p style=""font-size: 20px; font-weight: bold; margin: 0;"">Is there a person in this image?</p>
                    </div>
                </div>","0","main_experiment_trial","4","restaurant_scheme","schematic_sequence","chronological","","","","","","",""
"","","","","","html-keyboard-response","130","548897","0.0-130.0","8E3A2187DBA04409858ECEDB697A8F99","019cfc7c-b921-71d8-bdd7-80b8455aa9d3","019cfc7b-6c7b-7b1b-afe7-acad8efc6711","","null","
                <div class=""stimulus-container"">
                    <img src=""images/schematic_sequence/restaurant_scheme/restaurant_scheme_5.png"" class=""exp-image"">
                    <div class=""question-area""></div> 
                </div>","null","","","","","","","","","","","",""
"","","","","","html-button-response","131","549917","0.0-131.0","8E3A2187DBA04409858ECEDB697A8F99","019cfc7c-b921-71d8-bdd7-80b8455aa9d3","019cfc7b-6c7b-7b1b-afe7-acad8efc6711","","1019","
                <div class=""stimulus-container"">
                    <img src=""images/schematic_sequence/restaurant_scheme/restaurant_scheme_5.png"" class=""exp-image"">
                    <div class=""question-area"">
                        <p style=""font-size: 20px; font-weight: bold; margin: 0;"">Is there a person in this image?</p>
                    </div>
                </div>","0","main_experiment_trial","5","restaurant_scheme","schematic_sequence","chronological","","","","","","",""
"","","","","","html-keyboard-response","132","554921","0.0-132.0","8E3A2187DBA04409858ECEDB697A8F99","019cfc7c-b921-71d8-bdd7-80b8455aa9d3","019cfc7b-6c7b-7b1b-afe7-acad8efc6711","","null","
                <div class=""stimulus-container"">
                    <img src=""images/schematic_sequence/restaurant_scheme/restaurant_scheme_6.png"" class=""exp-image"">
                    <div class=""question-area""></div> 
                </div>","null","","","","","","","","","","","",""
"","","","","","html-button-response","133","556082","0.0-133.0","8E3A2187DBA04409858ECEDB697A8F99","019cfc7c-b921-71d8-bdd7-80b8455aa9d3","019cfc7b-6c7b-7b1b-afe7-acad8efc6711","","1160","
                <div class=""stimulus-container"">
                    <img src=""images/schematic_sequence/restaurant_scheme/restaurant_scheme_6.png"" class=""exp-image"">
                    <div class=""question-area"">
                        <p style=""font-size: 20px; font-weight: bold; margin: 0;"">Is there a person in this image?</p>
                    </div>
                </div>","1","main_experiment_trial","6","restaurant_scheme","schematic_sequence","chronological","","","","","","",""
"","","","","","html-keyboard-response","134","561086","0.0-134.0","8E3A2187DBA04409858ECEDB697A8F99","019cfc7c-b921-71d8-bdd7-80b8455aa9d3","019cfc7b-6c7b-7b1b-afe7-acad8efc6711","","null","
                <div class=""stimulus-container"">
                    <img src=""images/schematic_sequence/restaurant_scheme/restaurant_scheme_7.png"" class=""exp-image"">
                    <div class=""question-area""></div> 
                </div>","null","","","","","","","","","","","",""
"","","","","","html-button-response","135","562565","0.0-135.0","8E3A2187DBA04409858ECEDB697A8F99","019cfc7c-b921-71d8-bdd7-80b8455aa9d3","019cfc7b-6c7b-7b1b-afe7-acad8efc6711","","1478","
                <div class=""stimulus-container"">
                    <img src=""images/schematic_sequence/restaurant_scheme/restaurant_scheme_7.png"" class=""exp-image"">
                    <div class=""question-area"">
                        <p style=""font-size: 20px; font-weight: bold; margin: 0;"">Is there a person in this image?</p>
                    </div>
                </div>","1","main_experiment_trial","7","restaurant_scheme","schematic_sequence","chronological","","","","","","",""
"","","","","","html-keyboard-response","136","567573","0.0-136.0","8E3A2187DBA04409858ECEDB697A8F99","019cfc7c-b921-71d8-bdd7-80b8455aa9d3","019cfc7b-6c7b-7b1b-afe7-acad8efc6711","","null","
                <div class=""stimulus-container"">
                    <img src=""images/schematic_sequence/restaurant_scheme/restaurant_scheme_8.png"" class=""exp-image"">
                    <div class=""question-area""></div> 
                </div>","null","","","","","","","","","","","",""
"","","","","","html-button-response","137","568460","0.0-137.0","8E3A2187DBA04409858ECEDB697A8F99","019cfc7c-b921-71d8-bdd7-80b8455aa9d3","019cfc7b-6c7b-7b1b-afe7-acad8efc6711","","886","
                <div class=""stimulus-container"">
                    <img src=""images/schematic_sequence/restaurant_scheme/restaurant_scheme_8.png"" class=""exp-image"">
                    <div class=""question-area"">
                        <p style=""font-size: 20px; font-weight: bold; margin: 0;"">Is there a person in this image?</p>
                    </div>
                </div>","0","main_experiment_trial","8","restaurant_scheme","schematic_sequence","chronological","","","","","","",""
"","","","","","html-keyboard-response","138","573462","0.0-138.0","8E3A2187DBA04409858ECEDB697A8F99","019cfc7c-b921-71d8-bdd7-80b8455aa9d3","019cfc7b-6c7b-7b1b-afe7-acad8efc6711","","null","
                <div class=""stimulus-container"">
                    <img src=""images/schematic_sequence/restaurant_scheme/restaurant_scheme_9.png"" class=""exp-image"">
                    <div class=""question-area""></div> 
                </div>","null","","","","","","","","","","","",""
"","","","","","html-button-response","139","574324","0.0-139.0","8E3A2187DBA04409858ECEDB697A8F99","019cfc7c-b921-71d8-bdd7-80b8455aa9d3","019cfc7b-6c7b-7b1b-afe7-acad8efc6711","","862","
                <div class=""stimulus-container"">
                    <img src=""images/schematic_sequence/restaurant_scheme/restaurant_scheme_9.png"" class=""exp-image"">
                    <div class=""question-area"">
                        <p style=""font-size: 20px; font-weight: bold; margin: 0;"">Is there a person in this image?</p>
                    </div>
                </div>","0","main_experiment_trial","9","restaurant_scheme","schematic_sequence","chronological","","","","","","",""
"","","","","","html-keyboard-response","140","579325","0.0-140.0","8E3A2187DBA04409858ECEDB697A8F99","019cfc7c-b921-71d8-bdd7-80b8455aa9d3","019cfc7b-6c7b-7b1b-afe7-acad8efc6711","","null","
                <div class=""stimulus-container"">
                    <img src=""images/schematic_sequence/restaurant_scheme/restaurant_scheme_ten.png"" class=""exp-image"">
                    <div class=""question-area""></div> 
                </div>","null","","","","","","","","","","","",""
"","","","","","html-button-response","141","580211","0.0-141.0","8E3A2187DBA04409858ECEDB697A8F99","019cfc7c-b921-71d8-bdd7-80b8455aa9d3","019cfc7b-6c7b-7b1b-afe7-acad8efc6711","","885","
                <div class=""stimulus-container"">
                    <img src=""images/schematic_sequence/restaurant_scheme/restaurant_scheme_ten.png"" class=""exp-image"">
                    <div class=""question-area"">
                        <p style=""font-size: 20px; font-weight: bold; margin: 0;"">Is there a person in this image?</p>
                    </div>
                </div>","0","main_experiment_trial","ten","restaurant_scheme","schematic_sequence","chronological","","","","","","",""
"","","","","","html-keyboard-response","142","585221","0.0-142.0","8E3A2187DBA04409858ECEDB697A8F99","019cfc7c-b921-71d8-bdd7-80b8455aa9d3","019cfc7b-6c7b-7b1b-afe7-acad8efc6711","","null","<div style=""background-color: white; width: 100vw; height: 100vh;""></div>","null","","","","","","","","","","","",""
"","","","","","html-keyboard-response","143","590230","0.0-143.0","8E3A2187DBA04409858ECEDB697A8F99","019cfc7c-b921-71d8-bdd7-80b8455aa9d3","019cfc7b-6c7b-7b1b-afe7-acad8efc6711","","null","
                <div class=""stimulus-container"">
                    <img src=""images/semantic_sequence/self_care_activities_semantic/self_care_activities_semantic_1.png"" class=""exp-image"">
                    <div class=""question-area""></div> 
                </div>","null","","","","","","","","","","","",""
"","","","","","html-button-response","144","591391","0.0-144.0","8E3A2187DBA04409858ECEDB697A8F99","019cfc7c-b921-71d8-bdd7-80b8455aa9d3","019cfc7b-6c7b-7b1b-afe7-acad8efc6711","","1160","
                <div class=""stimulus-container"">
                    <img src=""images/semantic_sequence/self_care_activities_semantic/self_care_activities_semantic_1.png"" class=""exp-image"">
                    <div class=""question-area"">
                        <p style=""font-size: 20px; font-weight: bold; margin: 0;"">Is there a person in this image?</p>
                    </div>
                </div>","0","main_experiment_trial","1","self_care_activities_semantic","semantic_sequence","chronological","","","","","","",""
"","","","","","html-keyboard-response","145","596395","0.0-145.0","8E3A2187DBA04409858ECEDB697A8F99","019cfc7c-b921-71d8-bdd7-80b8455aa9d3","019cfc7b-6c7b-7b1b-afe7-acad8efc6711","","null","
                <div class=""stimulus-container"">
                    <img src=""images/semantic_sequence/self_care_activities_semantic/self_care_activities_semantic_2.png"" class=""exp-image"">
                    <div class=""question-area""></div> 
                </div>","null","","","","","","","","","","","",""
"","","","","","html-button-response","146","597496","0.0-146.0","8E3A2187DBA04409858ECEDB697A8F99","019cfc7c-b921-71d8-bdd7-80b8455aa9d3","019cfc7b-6c7b-7b1b-afe7-acad8efc6711","","1100","
                <div class=""stimulus-container"">
                    <img src=""images/semantic_sequence/self_care_activities_semantic/self_care_activities_semantic_2.png"" class=""exp-image"">
                    <div class=""question-area"">
                        <p style=""font-size: 20px; font-weight: bold; margin: 0;"">Is there a person in this image?</p>
                    </div>
                </div>","0","main_experiment_trial","2","self_care_activities_semantic","semantic_sequence","chronological","","","","","","",""
"","","","","","html-keyboard-response","147","602500","0.0-147.0","8E3A2187DBA04409858ECEDB697A8F99","019cfc7c-b921-71d8-bdd7-80b8455aa9d3","019cfc7b-6c7b-7b1b-afe7-acad8efc6711","","null","
                <div class=""stimulus-container"">
                    <img src=""images/semantic_sequence/self_care_activities_semantic/self_care_activities_semantic_3.png"" class=""exp-image"">
                    <div class=""question-area""></div> 
                </div>","null","","","","","","","","","","","",""
"","","","","","html-button-response","148","603523","0.0-148.0","8E3A2187DBA04409858ECEDB697A8F99","019cfc7c-b921-71d8-bdd7-80b8455aa9d3","019cfc7b-6c7b-7b1b-afe7-acad8efc6711","","1022","
                <div class=""stimulus-container"">
                    <img src=""images/semantic_sequence/self_care_activities_semantic/self_care_activities_semantic_3.png"" class=""exp-image"">
                    <div class=""question-area"">
                        <p style=""font-size: 20px; font-weight: bold; margin: 0;"">Is there a person in this image?</p>
                    </div>
                </div>","0","main_experiment_trial","3","self_care_activities_semantic","semantic_sequence","chronological","","","","","","",""
"","","","","","html-keyboard-response","149","608533","0.0-149.0","8E3A2187DBA04409858ECEDB697A8F99","019cfc7c-b921-71d8-bdd7-80b8455aa9d3","019cfc7b-6c7b-7b1b-afe7-acad8efc6711","","null","
                <div class=""stimulus-container"">
                    <img src=""images/semantic_sequence/self_care_activities_semantic/self_care_activities_semantic_4.png"" class=""exp-image"">
                    <div class=""question-area""></div> 
                </div>","null","","","","","","","","","","","",""
"","","","","","html-button-response","150","609970","0.0-150.0","8E3A2187DBA04409858ECEDB697A8F99","019cfc7c-b921-71d8-bdd7-80b8455aa9d3","019cfc7b-6c7b-7b1b-afe7-acad8efc6711","","1436","
                <div class=""stimulus-container"">
                    <img src=""images/semantic_sequence/self_care_activities_semantic/self_care_activities_semantic_4.png"" class=""exp-image"">
                    <div class=""question-area"">
                        <p style=""font-size: 20px; font-weight: bold; margin: 0;"">Is there a person in this image?</p>
                    </div>
                </div>","0","main_experiment_trial","4","self_care_activities_semantic","semantic_sequence","chronological","","","","","","",""
"","","","","","html-keyboard-response","151","614977","0.0-151.0","8E3A2187DBA04409858ECEDB697A8F99","019cfc7c-b921-71d8-bdd7-80b8455aa9d3","019cfc7b-6c7b-7b1b-afe7-acad8efc6711","","null","
                <div class=""stimulus-container"">
                    <img src=""images/semantic_sequence/self_care_activities_semantic/self_care_activities_semantic_5.png"" class=""exp-image"">
                    <div class=""question-area""></div> 
                </div>","null","","","","","","","","","","","",""
"","","","","","html-button-response","152","616002","0.0-152.0","8E3A2187DBA04409858ECEDB697A8F99","019cfc7c-b921-71d8-bdd7-80b8455aa9d3","019cfc7b-6c7b-7b1b-afe7-acad8efc6711","","1023","
                <div class=""stimulus-container"">
                    <img src=""images/semantic_sequence/self_care_activities_semantic/self_care_activities_semantic_5.png"" class=""exp-image"">
                    <div class=""question-area"">
                        <p style=""font-size: 20px; font-weight: bold; margin: 0;"">Is there a person in this image?</p>
                    </div>
                </div>","0","main_experiment_trial","5","self_care_activities_semantic","semantic_sequence","chronological","","","","","","",""
"","","","","","html-keyboard-response","153","621015","0.0-153.0","8E3A2187DBA04409858ECEDB697A8F99","019cfc7c-b921-71d8-bdd7-80b8455aa9d3","019cfc7b-6c7b-7b1b-afe7-acad8efc6711","","null","
                <div class=""stimulus-container"">
                    <img src=""images/semantic_sequence/self_care_activities_semantic/self_care_activities_semantic_6.png"" class=""exp-image"">
                    <div class=""question-area""></div> 
                </div>","null","","","","","","","","","","","",""
"","","","","","html-button-response","154","622504","0.0-154.0","8E3A2187DBA04409858ECEDB697A8F99","019cfc7c-b921-71d8-bdd7-80b8455aa9d3","019cfc7b-6c7b-7b1b-afe7-acad8efc6711","","1488","
                <div class=""stimulus-container"">
                    <img src=""images/semantic_sequence/self_care_activities_semantic/self_care_activities_semantic_6.png"" class=""exp-image"">
                    <div class=""question-area"">
                        <p style=""font-size: 20px; font-weight: bold; margin: 0;"">Is there a person in this image?</p>
                    </div>
                </div>","1","main_experiment_trial","6","self_care_activities_semantic","semantic_sequence","chronological","","","","","","",""
"","","","","","html-keyboard-response","155","627520","0.0-155.0","8E3A2187DBA04409858ECEDB697A8F99","019cfc7c-b921-71d8-bdd7-80b8455aa9d3","019cfc7b-6c7b-7b1b-afe7-acad8efc6711","","null","
                <div class=""stimulus-container"">
                    <img src=""images/semantic_sequence/self_care_activities_semantic/self_care_activities_semantic_7.png"" class=""exp-image"">
                    <div class=""question-area""></div> 
                </div>","null","","","","","","","","","","","",""
"","","","","","html-button-response","156","628978","0.0-156.0","8E3A2187DBA04409858ECEDB697A8F99","019cfc7c-b921-71d8-bdd7-80b8455aa9d3","019cfc7b-6c7b-7b1b-afe7-acad8efc6711","","1457","
                <div class=""stimulus-container"">
                    <img src=""images/semantic_sequence/self_care_activities_semantic/self_care_activities_semantic_7.png"" class=""exp-image"">
                    <div class=""question-area"">
                        <p style=""font-size: 20px; font-weight: bold; margin: 0;"">Is there a person in this image?</p>
                    </div>
                </div>","0","main_experiment_trial","7","self_care_activities_semantic","semantic_sequence","chronological","","","","","","",""
"","","","","","html-keyboard-response","157","633984","0.0-157.0","8E3A2187DBA04409858ECEDB697A8F99","019cfc7c-b921-71d8-bdd7-80b8455aa9d3","019cfc7b-6c7b-7b1b-afe7-acad8efc6711","","null","
                <div class=""stimulus-container"">
                    <img src=""images/semantic_sequence/self_care_activities_semantic/self_care_activities_semantic_8.png"" class=""exp-image"">
                    <div class=""question-area""></div> 
                </div>","null","","","","","","","","","","","",""
"","","","","","html-button-response","158","636017","0.0-158.0","8E3A2187DBA04409858ECEDB697A8F99","019cfc7c-b921-71d8-bdd7-80b8455aa9d3","019cfc7b-6c7b-7b1b-afe7-acad8efc6711","","2033","
                <div class=""stimulus-container"">
                    <img src=""images/semantic_sequence/self_care_activities_semantic/self_care_activities_semantic_8.png"" class=""exp-image"">
                    <div class=""question-area"">
                        <p style=""font-size: 20px; font-weight: bold; margin: 0;"">Is there a person in this image?</p>
                    </div>
                </div>","0","main_experiment_trial","8","self_care_activities_semantic","semantic_sequence","chronological","","","","","","",""
"","","","","","html-keyboard-response","159","641024","0.0-159.0","8E3A2187DBA04409858ECEDB697A8F99","019cfc7c-b921-71d8-bdd7-80b8455aa9d3","019cfc7b-6c7b-7b1b-afe7-acad8efc6711","","null","
                <div class=""stimulus-container"">
                    <img src=""images/semantic_sequence/self_care_activities_semantic/self_care_activities_semantic_9.png"" class=""exp-image"">
                    <div class=""question-area""></div> 
                </div>","null","","","","","","","","","","","",""
"","","","","","html-button-response","160","642150","0.0-160.0","8E3A2187DBA04409858ECEDB697A8F99","019cfc7c-b921-71d8-bdd7-80b8455aa9d3","019cfc7b-6c7b-7b1b-afe7-acad8efc6711","","1125","
                <div class=""stimulus-container"">
                    <img src=""images/semantic_sequence/self_care_activities_semantic/self_care_activities_semantic_9.png"" class=""exp-image"">
                    <div class=""question-area"">
                        <p style=""font-size: 20px; font-weight: bold; margin: 0;"">Is there a person in this image?</p>
                    </div>
                </div>","0","main_experiment_trial","9","self_care_activities_semantic","semantic_sequence","chronological","","","","","","",""
"","","","","","html-keyboard-response","161","647164","0.0-161.0","8E3A2187DBA04409858ECEDB697A8F99","019cfc7c-b921-71d8-bdd7-80b8455aa9d3","019cfc7b-6c7b-7b1b-afe7-acad8efc6711","","null","
                <div class=""stimulus-container"">
                    <img src=""images/semantic_sequence/self_care_activities_semantic/self_care_activities_semantic_ten.png"" class=""exp-image"">
                    <div class=""question-area""></div> 
                </div>","null","","","","","","","","","","","",""
"","","","","","html-button-response","162","648071","0.0-162.0","8E3A2187DBA04409858ECEDB697A8F99","019cfc7c-b921-71d8-bdd7-80b8455aa9d3","019cfc7b-6c7b-7b1b-afe7-acad8efc6711","","906","
                <div class=""stimulus-container"">
                    <img src=""images/semantic_sequence/self_care_activities_semantic/self_care_activities_semantic_ten.png"" class=""exp-image"">
                    <div class=""question-area"">
                        <p style=""font-size: 20px; font-weight: bold; margin: 0;"">Is there a person in this image?</p>
                    </div>
                </div>","0","main_experiment_trial","ten","self_care_activities_semantic","semantic_sequence","chronological","","","","","","",""
"","","","","","html-keyboard-response","163","653073","0.0-163.0","8E3A2187DBA04409858ECEDB697A8F99","019cfc7c-b921-71d8-bdd7-80b8455aa9d3","019cfc7b-6c7b-7b1b-afe7-acad8efc6711","","null","<div style=""background-color: white; width: 100vw; height: 100vh;""></div>","null","","","","","","","","","","","",""
"","","","","","html-keyboard-response","164","658085","0.0-164.0","8E3A2187DBA04409858ECEDB697A8F99","019cfc7c-b921-71d8-bdd7-80b8455aa9d3","019cfc7b-6c7b-7b1b-afe7-acad8efc6711","","null","
                <div class=""stimulus-container"">
                    <img src=""images/semantic_sequence/maintaining_a_car_semantic/maintaining_a_car_semantic_1.png"" class=""exp-image"">
                    <div class=""question-area""></div> 
                </div>","null","","","","","","","","","","","",""
"","","","","","html-button-response","165","658969","0.0-165.0","8E3A2187DBA04409858ECEDB697A8F99","019cfc7c-b921-71d8-bdd7-80b8455aa9d3","019cfc7b-6c7b-7b1b-afe7-acad8efc6711","","883","
                <div class=""stimulus-container"">
                    <img src=""images/semantic_sequence/maintaining_a_car_semantic/maintaining_a_car_semantic_1.png"" class=""exp-image"">
                    <div class=""question-area"">
                        <p style=""font-size: 20px; font-weight: bold; margin: 0;"">Is there a person in this image?</p>
                    </div>
                </div>","0","main_experiment_trial","1","maintaining_a_car_semantic","semantic_sequence","chronological","","","","","","",""
"","","","","","html-keyboard-response","166","663984","0.0-166.0","8E3A2187DBA04409858ECEDB697A8F99","019cfc7c-b921-71d8-bdd7-80b8455aa9d3","019cfc7b-6c7b-7b1b-afe7-acad8efc6711","","null","
                <div class=""stimulus-container"">
                    <img src=""images/semantic_sequence/maintaining_a_car_semantic/maintaining_a_car_semantic_2.png"" class=""exp-image"">
                    <div class=""question-area""></div> 
                </div>","null","","","","","","","","","","","",""
"","","","","","html-button-response","167","665011","0.0-167.0","8E3A2187DBA04409858ECEDB697A8F99","019cfc7c-b921-71d8-bdd7-80b8455aa9d3","019cfc7b-6c7b-7b1b-afe7-acad8efc6711","","1026","
                <div class=""stimulus-container"">
                    <img src=""images/semantic_sequence/maintaining_a_car_semantic/maintaining_a_car_semantic_2.png"" class=""exp-image"">
                    <div class=""question-area"">
                        <p style=""font-size: 20px; font-weight: bold; margin: 0;"">Is there a person in this image?</p>
                    </div>
                </div>","0","main_experiment_trial","2","maintaining_a_car_semantic","semantic_sequence","chronological","","","","","","",""
"","","","","","html-keyboard-response","168","670024","0.0-168.0","8E3A2187DBA04409858ECEDB697A8F99","019cfc7c-b921-71d8-bdd7-80b8455aa9d3","019cfc7b-6c7b-7b1b-afe7-acad8efc6711","","null","
                <div class=""stimulus-container"">
                    <img src=""images/semantic_sequence/maintaining_a_car_semantic/maintaining_a_car_semantic_3.png"" class=""exp-image"">
                    <div class=""question-area""></div> 
                </div>","null","","","","","","","","","","","",""
"","","","","","html-button-response","169","670884","0.0-169.0","8E3A2187DBA04409858ECEDB697A8F99","019cfc7c-b921-71d8-bdd7-80b8455aa9d3","019cfc7b-6c7b-7b1b-afe7-acad8efc6711","","859","
                <div class=""stimulus-container"">
                    <img src=""images/semantic_sequence/maintaining_a_car_semantic/maintaining_a_car_semantic_3.png"" class=""exp-image"">
                    <div class=""question-area"">
                        <p style=""font-size: 20px; font-weight: bold; margin: 0;"">Is there a person in this image?</p>
                    </div>
                </div>","0","main_experiment_trial","3","maintaining_a_car_semantic","semantic_sequence","chronological","","","","","","",""
"","","","","","html-keyboard-response","170","675893","0.0-170.0","8E3A2187DBA04409858ECEDB697A8F99","019cfc7c-b921-71d8-bdd7-80b8455aa9d3","019cfc7b-6c7b-7b1b-afe7-acad8efc6711","","null","
                <div class=""stimulus-container"">
                    <img src=""images/semantic_sequence/maintaining_a_car_semantic/maintaining_a_car_semantic_4.png"" class=""exp-image"">
                    <div class=""question-area""></div> 
                </div>","null","","","","","","","","","","","",""
"","","","","","html-button-response","171","676735","0.0-171.0","8E3A2187DBA04409858ECEDB697A8F99","019cfc7c-b921-71d8-bdd7-80b8455aa9d3","019cfc7b-6c7b-7b1b-afe7-acad8efc6711","","841","
                <div class=""stimulus-container"">
                    <img src=""images/semantic_sequence/maintaining_a_car_semantic/maintaining_a_car_semantic_4.png"" class=""exp-image"">
                    <div class=""question-area"">
                        <p style=""font-size: 20px; font-weight: bold; margin: 0;"">Is there a person in this image?</p>
                    </div>
                </div>","0","main_experiment_trial","4","maintaining_a_car_semantic","semantic_sequence","chronological","","","","","","",""
"","","","","","html-keyboard-response","172","681743","0.0-172.0","8E3A2187DBA04409858ECEDB697A8F99","019cfc7c-b921-71d8-bdd7-80b8455aa9d3","019cfc7b-6c7b-7b1b-afe7-acad8efc6711","","null","
                <div class=""stimulus-container"">
                    <img src=""images/semantic_sequence/maintaining_a_car_semantic/maintaining_a_car_semantic_5.png"" class=""exp-image"">
                    <div class=""question-area""></div> 
                </div>","null","","","","","","","","","","","",""
"","","","","","html-button-response","173","683024","0.0-173.0","8E3A2187DBA04409858ECEDB697A8F99","019cfc7c-b921-71d8-bdd7-80b8455aa9d3","019cfc7b-6c7b-7b1b-afe7-acad8efc6711","","1279","
                <div class=""stimulus-container"">
                    <img src=""images/semantic_sequence/maintaining_a_car_semantic/maintaining_a_car_semantic_5.png"" class=""exp-image"">
                    <div class=""question-area"">
                        <p style=""font-size: 20px; font-weight: bold; margin: 0;"">Is there a person in this image?</p>
                    </div>
                </div>","0","main_experiment_trial","5","maintaining_a_car_semantic","semantic_sequence","chronological","","","","","","",""
"","","","","","html-keyboard-response","174","688031","0.0-174.0","8E3A2187DBA04409858ECEDB697A8F99","019cfc7c-b921-71d8-bdd7-80b8455aa9d3","019cfc7b-6c7b-7b1b-afe7-acad8efc6711","","null","
                <div class=""stimulus-container"">
                    <img src=""images/semantic_sequence/maintaining_a_car_semantic/maintaining_a_car_semantic_6.png"" class=""exp-image"">
                    <div class=""question-area""></div> 
                </div>","null","","","","","","","","","","","",""
"","","","","","html-button-response","175","688721","0.0-175.0","8E3A2187DBA04409858ECEDB697A8F99","019cfc7c-b921-71d8-bdd7-80b8455aa9d3","019cfc7b-6c7b-7b1b-afe7-acad8efc6711","","689","
                <div class=""stimulus-container"">
                    <img src=""images/semantic_sequence/maintaining_a_car_semantic/maintaining_a_car_semantic_6.png"" class=""exp-image"">
                    <div class=""question-area"">
                        <p style=""font-size: 20px; font-weight: bold; margin: 0;"">Is there a person in this image?</p>
                    </div>
                </div>","0","main_experiment_trial","6","maintaining_a_car_semantic","semantic_sequence","chronological","","","","","","",""
