"success","timeout","failed_images","failed_audio","failed_video","trial_type","trial_index","time_elapsed","internal_node_id","subject_id","study_id","session_id","view_history","rt","stimulus","response","task","image_index","folder","sequence_type","presentation_order","valuable_image_index","reward_type","distance_from_x","target_X","chosen_image_index","is_x_plus_dist","correct_choice"
"true","false","[]","[]","[]","preload","0","2042","0.0-0.0","5E689FAB3C714B2793E322B0F4AA4AD6","019d6b19-e580-738f-bca6-bbdae8632500","019d6ae6-5d89-74c6-b581-3918d1816346","","","","","","","","","","","","","","","",""
"","","","","","instructions","1","74449","0.0-1.0","5E689FAB3C714B2793E322B0F4AA4AD6","019d6b19-e580-738f-bca6-bbdae8632500","019d6ae6-5d89-74c6-b581-3918d1816346","[{""page_index"":0,""viewing_time"":72407}]","72407","","","","","","","","","","","","","",""
"","","","","","instructions","2","76928","0.0-2.0","5E689FAB3C714B2793E322B0F4AA4AD6","019d6b19-e580-738f-bca6-bbdae8632500","019d6ae6-5d89-74c6-b581-3918d1816346","[{""page_index"":0,""viewing_time"":2478}]","2478","","","","","","","","","","","","","",""
"true","","","","","fullscreen","3","79233","0.0-3.0","5E689FAB3C714B2793E322B0F4AA4AD6","019d6b19-e580-738f-bca6-bbdae8632500","019d6ae6-5d89-74c6-b581-3918d1816346","","1302","","","","","","","","","","","","","",""
"","","","","","instructions","4","87429","0.0-4.0","5E689FAB3C714B2793E322B0F4AA4AD6","019d6b19-e580-738f-bca6-bbdae8632500","019d6ae6-5d89-74c6-b581-3918d1816346","[{""page_index"":0,""viewing_time"":8195}]","8195","","","","","","","","","","","","","",""
"","","","","","instructions","5","96415","0.0-5.0","5E689FAB3C714B2793E322B0F4AA4AD6","019d6b19-e580-738f-bca6-bbdae8632500","019d6ae6-5d89-74c6-b581-3918d1816346","[{""page_index"":0,""viewing_time"":8985}]","8986","","","","","","","","","","","","","",""
"","","","","","html-keyboard-response","6","100418","0.0-6.0","5E689FAB3C714B2793E322B0F4AA4AD6","019d6b19-e580-738f-bca6-bbdae8632500","019d6ae6-5d89-74c6-b581-3918d1816346","","null","
            <div class=""stimulus-container"">
                <img src=""images/instructions/movie_1.png"" class=""exp-image"">
                <div class=""question-area""></div> 
            </div>","null","","","","","","","","","","","",""
"","","","","","html-button-response","7","103166","0.0-7.0","5E689FAB3C714B2793E322B0F4AA4AD6","019d6b19-e580-738f-bca6-bbdae8632500","019d6ae6-5d89-74c6-b581-3918d1816346","","2746","
            <div class=""stimulus-container"">
                <img src=""images/instructions/movie_1.png"" class=""exp-image"">
                <div class=""question-area"">
                    <p style=""font-size: 20px; font-weight: bold; margin: 0;"">Was there a person in this image?</p>
                </div>
            </div>","0","example_question","1","","","","","","","","","",""
"","","","","","html-keyboard-response","8","107169","0.0-8.0","5E689FAB3C714B2793E322B0F4AA4AD6","019d6b19-e580-738f-bca6-bbdae8632500","019d6ae6-5d89-74c6-b581-3918d1816346","","null","
            <div class=""stimulus-container"">
                <img src=""images/instructions/movie_2.png"" class=""exp-image"">
                <div class=""question-area""></div> 
            </div>","null","","","","","","","","","","","",""
"","","","","","html-button-response","9","107677","0.0-9.0","5E689FAB3C714B2793E322B0F4AA4AD6","019d6b19-e580-738f-bca6-bbdae8632500","019d6ae6-5d89-74c6-b581-3918d1816346","","507","
            <div class=""stimulus-container"">
                <img src=""images/instructions/movie_2.png"" class=""exp-image"">
                <div class=""question-area"">
                    <p style=""font-size: 20px; font-weight: bold; margin: 0;"">Was there a person in this image?</p>
                </div>
            </div>","0","example_question","2","","","","","","","","","",""
"","","","","","html-keyboard-response","10","111680","0.0-10.0","5E689FAB3C714B2793E322B0F4AA4AD6","019d6b19-e580-738f-bca6-bbdae8632500","019d6ae6-5d89-74c6-b581-3918d1816346","","null","
            <div class=""stimulus-container"">
                <img src=""images/instructions/movie_3.png"" class=""exp-image"">
                <div class=""question-area""></div> 
            </div>","null","","","","","","","","","","","",""
"","","","","","html-button-response","11","112142","0.0-11.0","5E689FAB3C714B2793E322B0F4AA4AD6","019d6b19-e580-738f-bca6-bbdae8632500","019d6ae6-5d89-74c6-b581-3918d1816346","","460","
            <div class=""stimulus-container"">
                <img src=""images/instructions/movie_3.png"" class=""exp-image"">
                <div class=""question-area"">
                    <p style=""font-size: 20px; font-weight: bold; margin: 0;"">Was there a person in this image?</p>
                </div>
            </div>","0","example_question","3","","","","","","","","","",""
"","","","","","html-keyboard-response","12","116144","0.0-12.0","5E689FAB3C714B2793E322B0F4AA4AD6","019d6b19-e580-738f-bca6-bbdae8632500","019d6ae6-5d89-74c6-b581-3918d1816346","","null","
            <div class=""stimulus-container"">
                <img src=""images/instructions/movie_4.png"" class=""exp-image"">
                <div class=""question-area""></div> 
            </div>","null","","","","","","","","","","","",""
"","","","","","html-button-response","13","116647","0.0-13.0","5E689FAB3C714B2793E322B0F4AA4AD6","019d6b19-e580-738f-bca6-bbdae8632500","019d6ae6-5d89-74c6-b581-3918d1816346","","501","
            <div class=""stimulus-container"">
                <img src=""images/instructions/movie_4.png"" class=""exp-image"">
                <div class=""question-area"">
                    <p style=""font-size: 20px; font-weight: bold; margin: 0;"">Was there a person in this image?</p>
                </div>
            </div>","0","example_question","4","","","","","","","","","",""
"","","","","","instructions","14","155430","0.0-14.0","5E689FAB3C714B2793E322B0F4AA4AD6","019d6b19-e580-738f-bca6-bbdae8632500","019d6ae6-5d89-74c6-b581-3918d1816346","[{""page_index"":0,""viewing_time"":38783}]","38783","","","","","","","","","","","","","",""
"","","","","","instructions","15","161023","0.0-15.0","5E689FAB3C714B2793E322B0F4AA4AD6","019d6b19-e580-738f-bca6-bbdae8632500","019d6ae6-5d89-74c6-b581-3918d1816346","[{""page_index"":0,""viewing_time"":5593}]","5593","","","","","","","","","","","","","",""
"","","","","","html-keyboard-response","16","166025","0.0-16.0","5E689FAB3C714B2793E322B0F4AA4AD6","019d6b19-e580-738f-bca6-bbdae8632500","019d6ae6-5d89-74c6-b581-3918d1816346","","null","<div style=""background-color: white; width: 100vw; height: 100vh;""></div>","null","","","","","","","","","","","",""
"","","","","","html-keyboard-response","17","171028","0.0-17.0","5E689FAB3C714B2793E322B0F4AA4AD6","019d6b19-e580-738f-bca6-bbdae8632500","019d6ae6-5d89-74c6-b581-3918d1816346","","null","
                <div class=""stimulus-container"">
                    <img src=""images/causal_sequence/dog_causal/dog_causal_1.png"" class=""exp-image"">
                    <div class=""question-area""></div> 
                </div>","null","","","","","","","","","","","",""
"","","","","","html-button-response","18","172402","0.0-18.0","5E689FAB3C714B2793E322B0F4AA4AD6","019d6b19-e580-738f-bca6-bbdae8632500","019d6ae6-5d89-74c6-b581-3918d1816346","","1372","
                <div class=""stimulus-container"">
                    <img src=""images/causal_sequence/dog_causal/dog_causal_1.png"" class=""exp-image"">
                    <div class=""question-area"">
                        <p style=""font-size: 20px; font-weight: bold; margin: 0;"">Is there a person in this image?</p>
                    </div>
                </div>","0","main_experiment_trial","1","dog_causal","causal_sequence","chronological","","","","","","",""
"","","","","","html-keyboard-response","19","177405","0.0-19.0","5E689FAB3C714B2793E322B0F4AA4AD6","019d6b19-e580-738f-bca6-bbdae8632500","019d6ae6-5d89-74c6-b581-3918d1816346","","null","
                <div class=""stimulus-container"">
                    <img src=""images/causal_sequence/dog_causal/dog_causal_2.png"" class=""exp-image"">
                    <div class=""question-area""></div> 
                </div>","null","","","","","","","","","","","",""
"","","","","","html-button-response","20","178465","0.0-20.0","5E689FAB3C714B2793E322B0F4AA4AD6","019d6b19-e580-738f-bca6-bbdae8632500","019d6ae6-5d89-74c6-b581-3918d1816346","","1058","
                <div class=""stimulus-container"">
                    <img src=""images/causal_sequence/dog_causal/dog_causal_2.png"" class=""exp-image"">
                    <div class=""question-area"">
                        <p style=""font-size: 20px; font-weight: bold; margin: 0;"">Is there a person in this image?</p>
                    </div>
                </div>","0","main_experiment_trial","2","dog_causal","causal_sequence","chronological","","","","","","",""
"","","","","","html-keyboard-response","21","183468","0.0-21.0","5E689FAB3C714B2793E322B0F4AA4AD6","019d6b19-e580-738f-bca6-bbdae8632500","019d6ae6-5d89-74c6-b581-3918d1816346","","null","
                <div class=""stimulus-container"">
                    <img src=""images/causal_sequence/dog_causal/dog_causal_3.png"" class=""exp-image"">
                    <div class=""question-area""></div> 
                </div>","null","","","","","","","","","","","",""
"","","","","","html-button-response","22","184711","0.0-22.0","5E689FAB3C714B2793E322B0F4AA4AD6","019d6b19-e580-738f-bca6-bbdae8632500","019d6ae6-5d89-74c6-b581-3918d1816346","","1242","
                <div class=""stimulus-container"">
                    <img src=""images/causal_sequence/dog_causal/dog_causal_3.png"" class=""exp-image"">
                    <div class=""question-area"">
                        <p style=""font-size: 20px; font-weight: bold; margin: 0;"">Is there a person in this image?</p>
                    </div>
                </div>","0","main_experiment_trial","3","dog_causal","causal_sequence","chronological","","","","","","",""
"","","","","","html-keyboard-response","23","189713","0.0-23.0","5E689FAB3C714B2793E322B0F4AA4AD6","019d6b19-e580-738f-bca6-bbdae8632500","019d6ae6-5d89-74c6-b581-3918d1816346","","null","
                <div class=""stimulus-container"">
                    <img src=""images/causal_sequence/dog_causal/dog_causal_4.png"" class=""exp-image"">
                    <div class=""question-area""></div> 
                </div>","null","","","","","","","","","","","",""
"","","","","","html-button-response","24","190243","0.0-24.0","5E689FAB3C714B2793E322B0F4AA4AD6","019d6b19-e580-738f-bca6-bbdae8632500","019d6ae6-5d89-74c6-b581-3918d1816346","","529","
                <div class=""stimulus-container"">
                    <img src=""images/causal_sequence/dog_causal/dog_causal_4.png"" class=""exp-image"">
                    <div class=""question-area"">
                        <p style=""font-size: 20px; font-weight: bold; margin: 0;"">Is there a person in this image?</p>
                    </div>
                </div>","0","main_experiment_trial","4","dog_causal","causal_sequence","chronological","","","","","","",""
"","","","","","html-keyboard-response","25","195245","0.0-25.0","5E689FAB3C714B2793E322B0F4AA4AD6","019d6b19-e580-738f-bca6-bbdae8632500","019d6ae6-5d89-74c6-b581-3918d1816346","","null","
                <div class=""stimulus-container"">
                    <img src=""images/causal_sequence/dog_causal/dog_causal_5.png"" class=""exp-image"">
                    <div class=""question-area""></div> 
                </div>","null","","","","","","","","","","","",""
"","","","","","html-button-response","26","196184","0.0-26.0","5E689FAB3C714B2793E322B0F4AA4AD6","019d6b19-e580-738f-bca6-bbdae8632500","019d6ae6-5d89-74c6-b581-3918d1816346","","938","
                <div class=""stimulus-container"">
                    <img src=""images/causal_sequence/dog_causal/dog_causal_5.png"" class=""exp-image"">
                    <div class=""question-area"">
                        <p style=""font-size: 20px; font-weight: bold; margin: 0;"">Is there a person in this image?</p>
                    </div>
                </div>","0","main_experiment_trial","5","dog_causal","causal_sequence","chronological","","","","","","",""
"","","","","","html-keyboard-response","27","201186","0.0-27.0","5E689FAB3C714B2793E322B0F4AA4AD6","019d6b19-e580-738f-bca6-bbdae8632500","019d6ae6-5d89-74c6-b581-3918d1816346","","null","
                <div class=""stimulus-container"">
                    <img src=""images/causal_sequence/dog_causal/dog_causal_6.png"" class=""exp-image"">
                    <div class=""question-area""></div> 
                </div>","null","","","","","","","","","","","",""
"","","","","","html-button-response","28","201692","0.0-28.0","5E689FAB3C714B2793E322B0F4AA4AD6","019d6b19-e580-738f-bca6-bbdae8632500","019d6ae6-5d89-74c6-b581-3918d1816346","","505","
                <div class=""stimulus-container"">
                    <img src=""images/causal_sequence/dog_causal/dog_causal_6.png"" class=""exp-image"">
                    <div class=""question-area"">
                        <p style=""font-size: 20px; font-weight: bold; margin: 0;"">Is there a person in this image?</p>
                    </div>
                </div>","0","main_experiment_trial","6","dog_causal","causal_sequence","chronological","","","","","","",""
"","","","","","html-keyboard-response","29","206694","0.0-29.0","5E689FAB3C714B2793E322B0F4AA4AD6","019d6b19-e580-738f-bca6-bbdae8632500","019d6ae6-5d89-74c6-b581-3918d1816346","","null","
                <div class=""stimulus-container"">
                    <img src=""images/causal_sequence/dog_causal/dog_causal_7.png"" class=""exp-image"">
                    <div class=""question-area""></div> 
                </div>","null","","","","","","","","","","","",""
"","","","","","html-button-response","30","207409","0.0-30.0","5E689FAB3C714B2793E322B0F4AA4AD6","019d6b19-e580-738f-bca6-bbdae8632500","019d6ae6-5d89-74c6-b581-3918d1816346","","714","
                <div class=""stimulus-container"">
                    <img src=""images/causal_sequence/dog_causal/dog_causal_7.png"" class=""exp-image"">
                    <div class=""question-area"">
                        <p style=""font-size: 20px; font-weight: bold; margin: 0;"">Is there a person in this image?</p>
                    </div>
                </div>","0","main_experiment_trial","7","dog_causal","causal_sequence","chronological","","","","","","",""
"","","","","","html-keyboard-response","31","212411","0.0-31.0","5E689FAB3C714B2793E322B0F4AA4AD6","019d6b19-e580-738f-bca6-bbdae8632500","019d6ae6-5d89-74c6-b581-3918d1816346","","null","
                <div class=""stimulus-container"">
                    <img src=""images/causal_sequence/dog_causal/dog_causal_8.png"" class=""exp-image"">
                    <div class=""question-area""></div> 
                </div>","null","","","","","","","","","","","",""
"","","","","","html-button-response","32","213263","0.0-32.0","5E689FAB3C714B2793E322B0F4AA4AD6","019d6b19-e580-738f-bca6-bbdae8632500","019d6ae6-5d89-74c6-b581-3918d1816346","","851","
                <div class=""stimulus-container"">
                    <img src=""images/causal_sequence/dog_causal/dog_causal_8.png"" class=""exp-image"">
                    <div class=""question-area"">
                        <p style=""font-size: 20px; font-weight: bold; margin: 0;"">Is there a person in this image?</p>
                    </div>
                </div>","0","main_experiment_trial","8","dog_causal","causal_sequence","chronological","","","","","","",""
"","","","","","html-keyboard-response","33","218266","0.0-33.0","5E689FAB3C714B2793E322B0F4AA4AD6","019d6b19-e580-738f-bca6-bbdae8632500","019d6ae6-5d89-74c6-b581-3918d1816346","","null","
                <div class=""stimulus-container"">
                    <img src=""images/causal_sequence/dog_causal/dog_causal_9.png"" class=""exp-image"">
                    <div class=""question-area""></div> 
                </div>","null","","","","","","","","","","","",""
"","","","","","html-button-response","34","219028","0.0-34.0","5E689FAB3C714B2793E322B0F4AA4AD6","019d6b19-e580-738f-bca6-bbdae8632500","019d6ae6-5d89-74c6-b581-3918d1816346","","761","
                <div class=""stimulus-container"">
                    <img src=""images/causal_sequence/dog_causal/dog_causal_9.png"" class=""exp-image"">
                    <div class=""question-area"">
                        <p style=""font-size: 20px; font-weight: bold; margin: 0;"">Is there a person in this image?</p>
                    </div>
                </div>","0","main_experiment_trial","9","dog_causal","causal_sequence","chronological","","","","","","",""
"","","","","","html-keyboard-response","35","224031","0.0-35.0","5E689FAB3C714B2793E322B0F4AA4AD6","019d6b19-e580-738f-bca6-bbdae8632500","019d6ae6-5d89-74c6-b581-3918d1816346","","null","
                <div class=""stimulus-container"">
                    <img src=""images/causal_sequence/dog_causal/dog_causal_ten.png"" class=""exp-image"">
                    <div class=""question-area""></div> 
                </div>","null","","","","","","","","","","","",""
"","","","","","html-button-response","36","224847","0.0-36.0","5E689FAB3C714B2793E322B0F4AA4AD6","019d6b19-e580-738f-bca6-bbdae8632500","019d6ae6-5d89-74c6-b581-3918d1816346","","815","
                <div class=""stimulus-container"">
                    <img src=""images/causal_sequence/dog_causal/dog_causal_ten.png"" class=""exp-image"">
                    <div class=""question-area"">
                        <p style=""font-size: 20px; font-weight: bold; margin: 0;"">Is there a person in this image?</p>
                    </div>
                </div>","0","main_experiment_trial","ten","dog_causal","causal_sequence","chronological","","","","","","",""
"","","","","","html-keyboard-response","37","229849","0.0-37.0","5E689FAB3C714B2793E322B0F4AA4AD6","019d6b19-e580-738f-bca6-bbdae8632500","019d6ae6-5d89-74c6-b581-3918d1816346","","null","<div style=""background-color: white; width: 100vw; height: 100vh;""></div>","null","","","","","","","","","","","",""
"","","","","","html-keyboard-response","38","234852","0.0-38.0","5E689FAB3C714B2793E322B0F4AA4AD6","019d6b19-e580-738f-bca6-bbdae8632500","019d6ae6-5d89-74c6-b581-3918d1816346","","null","
                <div class=""stimulus-container"">
                    <img src=""images/causal_sequence/saving_a_cat_causal/saving_a_cat_causal_1.png"" class=""exp-image"">
                    <div class=""question-area""></div> 
                </div>","null","","","","","","","","","","","",""
"","","","","","html-button-response","39","236042","0.0-39.0","5E689FAB3C714B2793E322B0F4AA4AD6","019d6b19-e580-738f-bca6-bbdae8632500","019d6ae6-5d89-74c6-b581-3918d1816346","","1189","
                <div class=""stimulus-container"">
                    <img src=""images/causal_sequence/saving_a_cat_causal/saving_a_cat_causal_1.png"" class=""exp-image"">
                    <div class=""question-area"">
                        <p style=""font-size: 20px; font-weight: bold; margin: 0;"">Is there a person in this image?</p>
                    </div>
                </div>","0","main_experiment_trial","1","saving_a_cat_causal","causal_sequence","chronological","","","","","","",""
"","","","","","html-keyboard-response","40","241043","0.0-40.0","5E689FAB3C714B2793E322B0F4AA4AD6","019d6b19-e580-738f-bca6-bbdae8632500","019d6ae6-5d89-74c6-b581-3918d1816346","","null","
                <div class=""stimulus-container"">
                    <img src=""images/causal_sequence/saving_a_cat_causal/saving_a_cat_causal_2.png"" class=""exp-image"">
                    <div class=""question-area""></div> 
                </div>","null","","","","","","","","","","","",""
"","","","","","html-button-response","41","241848","0.0-41.0","5E689FAB3C714B2793E322B0F4AA4AD6","019d6b19-e580-738f-bca6-bbdae8632500","019d6ae6-5d89-74c6-b581-3918d1816346","","804","
                <div class=""stimulus-container"">
                    <img src=""images/causal_sequence/saving_a_cat_causal/saving_a_cat_causal_2.png"" class=""exp-image"">
                    <div class=""question-area"">
                        <p style=""font-size: 20px; font-weight: bold; margin: 0;"">Is there a person in this image?</p>
                    </div>
                </div>","1","main_experiment_trial","2","saving_a_cat_causal","causal_sequence","chronological","","","","","","",""
"","","","","","html-keyboard-response","42","246851","0.0-42.0","5E689FAB3C714B2793E322B0F4AA4AD6","019d6b19-e580-738f-bca6-bbdae8632500","019d6ae6-5d89-74c6-b581-3918d1816346","","null","
                <div class=""stimulus-container"">
                    <img src=""images/causal_sequence/saving_a_cat_causal/saving_a_cat_causal_3.png"" class=""exp-image"">
                    <div class=""question-area""></div> 
                </div>","null","","","","","","","","","","","",""
"","","","","","html-button-response","43","248163","0.0-43.0","5E689FAB3C714B2793E322B0F4AA4AD6","019d6b19-e580-738f-bca6-bbdae8632500","019d6ae6-5d89-74c6-b581-3918d1816346","","1312","
                <div class=""stimulus-container"">
                    <img src=""images/causal_sequence/saving_a_cat_causal/saving_a_cat_causal_3.png"" class=""exp-image"">
                    <div class=""question-area"">
                        <p style=""font-size: 20px; font-weight: bold; margin: 0;"">Is there a person in this image?</p>
                    </div>
                </div>","1","main_experiment_trial","3","saving_a_cat_causal","causal_sequence","chronological","","","","","","",""
"","","","","","html-keyboard-response","44","253165","0.0-44.0","5E689FAB3C714B2793E322B0F4AA4AD6","019d6b19-e580-738f-bca6-bbdae8632500","019d6ae6-5d89-74c6-b581-3918d1816346","","null","
                <div class=""stimulus-container"">
                    <img src=""images/causal_sequence/saving_a_cat_causal/saving_a_cat_causal_4.png"" class=""exp-image"">
                    <div class=""question-area""></div> 
                </div>","null","","","","","","","","","","","",""
"","","","","","html-button-response","45","253904","0.0-45.0","5E689FAB3C714B2793E322B0F4AA4AD6","019d6b19-e580-738f-bca6-bbdae8632500","019d6ae6-5d89-74c6-b581-3918d1816346","","738","
                <div class=""stimulus-container"">
                    <img src=""images/causal_sequence/saving_a_cat_causal/saving_a_cat_causal_4.png"" class=""exp-image"">
                    <div class=""question-area"">
                        <p style=""font-size: 20px; font-weight: bold; margin: 0;"">Is there a person in this image?</p>
                    </div>
                </div>","0","main_experiment_trial","4","saving_a_cat_causal","causal_sequence","chronological","","","","","","",""
"","","","","","html-keyboard-response","46","258905","0.0-46.0","5E689FAB3C714B2793E322B0F4AA4AD6","019d6b19-e580-738f-bca6-bbdae8632500","019d6ae6-5d89-74c6-b581-3918d1816346","","null","
                <div class=""stimulus-container"">
                    <img src=""images/causal_sequence/saving_a_cat_causal/saving_a_cat_causal_5.png"" class=""exp-image"">
                    <div class=""question-area""></div> 
                </div>","null","","","","","","","","","","","",""
"","","","","","html-button-response","47","259700","0.0-47.0","5E689FAB3C714B2793E322B0F4AA4AD6","019d6b19-e580-738f-bca6-bbdae8632500","019d6ae6-5d89-74c6-b581-3918d1816346","","794","
                <div class=""stimulus-container"">
                    <img src=""images/causal_sequence/saving_a_cat_causal/saving_a_cat_causal_5.png"" class=""exp-image"">
                    <div class=""question-area"">
                        <p style=""font-size: 20px; font-weight: bold; margin: 0;"">Is there a person in this image?</p>
                    </div>
                </div>","0","main_experiment_trial","5","saving_a_cat_causal","causal_sequence","chronological","","","","","","",""
"","","","","","html-keyboard-response","48","264702","0.0-48.0","5E689FAB3C714B2793E322B0F4AA4AD6","019d6b19-e580-738f-bca6-bbdae8632500","019d6ae6-5d89-74c6-b581-3918d1816346","","null","
                <div class=""stimulus-container"">
                    <img src=""images/causal_sequence/saving_a_cat_causal/saving_a_cat_causal_6.png"" class=""exp-image"">
                    <div class=""question-area""></div> 
                </div>","null","","","","","","","","","","","",""
"","","","","","html-button-response","49","266267","0.0-49.0","5E689FAB3C714B2793E322B0F4AA4AD6","019d6b19-e580-738f-bca6-bbdae8632500","019d6ae6-5d89-74c6-b581-3918d1816346","","1564","
                <div class=""stimulus-container"">
                    <img src=""images/causal_sequence/saving_a_cat_causal/saving_a_cat_causal_6.png"" class=""exp-image"">
                    <div class=""question-area"">
                        <p style=""font-size: 20px; font-weight: bold; margin: 0;"">Is there a person in this image?</p>
                    </div>
                </div>","0","main_experiment_trial","6","saving_a_cat_causal","causal_sequence","chronological","","","","","","",""
"","","","","","html-keyboard-response","50","271268","0.0-50.0","5E689FAB3C714B2793E322B0F4AA4AD6","019d6b19-e580-738f-bca6-bbdae8632500","019d6ae6-5d89-74c6-b581-3918d1816346","","null","
                <div class=""stimulus-container"">
                    <img src=""images/causal_sequence/saving_a_cat_causal/saving_a_cat_causal_7.png"" class=""exp-image"">
                    <div class=""question-area""></div> 
                </div>","null","","","","","","","","","","","",""
"","","","","","html-button-response","51","272732","0.0-51.0","5E689FAB3C714B2793E322B0F4AA4AD6","019d6b19-e580-738f-bca6-bbdae8632500","019d6ae6-5d89-74c6-b581-3918d1816346","","1463","
                <div class=""stimulus-container"">
                    <img src=""images/causal_sequence/saving_a_cat_causal/saving_a_cat_causal_7.png"" class=""exp-image"">
                    <div class=""question-area"">
                        <p style=""font-size: 20px; font-weight: bold; margin: 0;"">Is there a person in this image?</p>
                    </div>
                </div>","0","main_experiment_trial","7","saving_a_cat_causal","causal_sequence","chronological","","","","","","",""
"","","","","","html-keyboard-response","52","277734","0.0-52.0","5E689FAB3C714B2793E322B0F4AA4AD6","019d6b19-e580-738f-bca6-bbdae8632500","019d6ae6-5d89-74c6-b581-3918d1816346","","null","
                <div class=""stimulus-container"">
                    <img src=""images/causal_sequence/saving_a_cat_causal/saving_a_cat_causal_8.png"" class=""exp-image"">
                    <div class=""question-area""></div> 
                </div>","null","","","","","","","","","","","",""
"","","","","","html-button-response","53","278592","0.0-53.0","5E689FAB3C714B2793E322B0F4AA4AD6","019d6b19-e580-738f-bca6-bbdae8632500","019d6ae6-5d89-74c6-b581-3918d1816346","","856","
                <div class=""stimulus-container"">
                    <img src=""images/causal_sequence/saving_a_cat_causal/saving_a_cat_causal_8.png"" class=""exp-image"">
                    <div class=""question-area"">
                        <p style=""font-size: 20px; font-weight: bold; margin: 0;"">Is there a person in this image?</p>
                    </div>
                </div>","0","main_experiment_trial","8","saving_a_cat_causal","causal_sequence","chronological","","","","","","",""
"","","","","","html-keyboard-response","54","283594","0.0-54.0","5E689FAB3C714B2793E322B0F4AA4AD6","019d6b19-e580-738f-bca6-bbdae8632500","019d6ae6-5d89-74c6-b581-3918d1816346","","null","
                <div class=""stimulus-container"">
                    <img src=""images/causal_sequence/saving_a_cat_causal/saving_a_cat_causal_9.png"" class=""exp-image"">
                    <div class=""question-area""></div> 
                </div>","null","","","","","","","","","","","",""
"","","","","","html-button-response","55","284204","0.0-55.0","5E689FAB3C714B2793E322B0F4AA4AD6","019d6b19-e580-738f-bca6-bbdae8632500","019d6ae6-5d89-74c6-b581-3918d1816346","","609","
                <div class=""stimulus-container"">
                    <img src=""images/causal_sequence/saving_a_cat_causal/saving_a_cat_causal_9.png"" class=""exp-image"">
                    <div class=""question-area"">
                        <p style=""font-size: 20px; font-weight: bold; margin: 0;"">Is there a person in this image?</p>
                    </div>
                </div>","0","main_experiment_trial","9","saving_a_cat_causal","causal_sequence","chronological","","","","","","",""
"","","","","","html-keyboard-response","56","289207","0.0-56.0","5E689FAB3C714B2793E322B0F4AA4AD6","019d6b19-e580-738f-bca6-bbdae8632500","019d6ae6-5d89-74c6-b581-3918d1816346","","null","
                <div class=""stimulus-container"">
                    <img src=""images/causal_sequence/saving_a_cat_causal/saving_a_cat_causal_ten.png"" class=""exp-image"">
                    <div class=""question-area""></div> 
                </div>","null","","","","","","","","","","","",""
"","","","","","html-button-response","57","289859","0.0-57.0","5E689FAB3C714B2793E322B0F4AA4AD6","019d6b19-e580-738f-bca6-bbdae8632500","019d6ae6-5d89-74c6-b581-3918d1816346","","651","
                <div class=""stimulus-container"">
                    <img src=""images/causal_sequence/saving_a_cat_causal/saving_a_cat_causal_ten.png"" class=""exp-image"">
                    <div class=""question-area"">
                        <p style=""font-size: 20px; font-weight: bold; margin: 0;"">Is there a person in this image?</p>
                    </div>
                </div>","0","main_experiment_trial","ten","saving_a_cat_causal","causal_sequence","chronological","","","","","","",""
"","","","","","html-keyboard-response","58","294861","0.0-58.0","5E689FAB3C714B2793E322B0F4AA4AD6","019d6b19-e580-738f-bca6-bbdae8632500","019d6ae6-5d89-74c6-b581-3918d1816346","","null","<div style=""background-color: white; width: 100vw; height: 100vh;""></div>","null","","","","","","","","","","","",""
"","","","","","html-keyboard-response","59","299864","0.0-59.0","5E689FAB3C714B2793E322B0F4AA4AD6","019d6b19-e580-738f-bca6-bbdae8632500","019d6ae6-5d89-74c6-b581-3918d1816346","","null","
                <div class=""stimulus-container"">
                    <img src=""semantic_sequence_notimeline/professions_semantic/professions_semantic_1.png"" class=""exp-image"">
                    <div class=""question-area""></div> 
                </div>","null","","","","","","","","","","","",""
"","","","","","html-button-response","60","300701","0.0-60.0","5E689FAB3C714B2793E322B0F4AA4AD6","019d6b19-e580-738f-bca6-bbdae8632500","019d6ae6-5d89-74c6-b581-3918d1816346","","836","
                <div class=""stimulus-container"">
                    <img src=""semantic_sequence_notimeline/professions_semantic/professions_semantic_1.png"" class=""exp-image"">
                    <div class=""question-area"">
                        <p style=""font-size: 20px; font-weight: bold; margin: 0;"">Is there a person in this image?</p>
                    </div>
                </div>","0","main_experiment_trial","1","professions_semantic","semantic_sequence_notimeline","chronological","","","","","","",""
"","","","","","html-keyboard-response","61","305704","0.0-61.0","5E689FAB3C714B2793E322B0F4AA4AD6","019d6b19-e580-738f-bca6-bbdae8632500","019d6ae6-5d89-74c6-b581-3918d1816346","","null","
                <div class=""stimulus-container"">
                    <img src=""semantic_sequence_notimeline/professions_semantic/professions_semantic_2.png"" class=""exp-image"">
                    <div class=""question-area""></div> 
                </div>","null","","","","","","","","","","","",""
"","","","","","html-button-response","62","306355","0.0-62.0","5E689FAB3C714B2793E322B0F4AA4AD6","019d6b19-e580-738f-bca6-bbdae8632500","019d6ae6-5d89-74c6-b581-3918d1816346","","650","
                <div class=""stimulus-container"">
                    <img src=""semantic_sequence_notimeline/professions_semantic/professions_semantic_2.png"" class=""exp-image"">
                    <div class=""question-area"">
                        <p style=""font-size: 20px; font-weight: bold; margin: 0;"">Is there a person in this image?</p>
                    </div>
                </div>","0","main_experiment_trial","2","professions_semantic","semantic_sequence_notimeline","chronological","","","","","","",""
"","","","","","html-keyboard-response","63","311359","0.0-63.0","5E689FAB3C714B2793E322B0F4AA4AD6","019d6b19-e580-738f-bca6-bbdae8632500","019d6ae6-5d89-74c6-b581-3918d1816346","","null","
                <div class=""stimulus-container"">
                    <img src=""semantic_sequence_notimeline/professions_semantic/professions_semantic_3.png"" class=""exp-image"">
                    <div class=""question-area""></div> 
                </div>","null","","","","","","","","","","","",""
"","","","","","html-button-response","64","312208","0.0-64.0","5E689FAB3C714B2793E322B0F4AA4AD6","019d6b19-e580-738f-bca6-bbdae8632500","019d6ae6-5d89-74c6-b581-3918d1816346","","846","
                <div class=""stimulus-container"">
                    <img src=""semantic_sequence_notimeline/professions_semantic/professions_semantic_3.png"" class=""exp-image"">
                    <div class=""question-area"">
                        <p style=""font-size: 20px; font-weight: bold; margin: 0;"">Is there a person in this image?</p>
                    </div>
                </div>","0","main_experiment_trial","3","professions_semantic","semantic_sequence_notimeline","chronological","","","","","","",""
"","","","","","html-keyboard-response","65","317210","0.0-65.0","5E689FAB3C714B2793E322B0F4AA4AD6","019d6b19-e580-738f-bca6-bbdae8632500","019d6ae6-5d89-74c6-b581-3918d1816346","","null","
                <div class=""stimulus-container"">
                    <img src=""semantic_sequence_notimeline/professions_semantic/professions_semantic_4.png"" class=""exp-image"">
                    <div class=""question-area""></div> 
                </div>","null","","","","","","","","","","","",""
"","","","","","html-button-response","66","317903","0.0-66.0","5E689FAB3C714B2793E322B0F4AA4AD6","019d6b19-e580-738f-bca6-bbdae8632500","019d6ae6-5d89-74c6-b581-3918d1816346","","692","
                <div class=""stimulus-container"">
                    <img src=""semantic_sequence_notimeline/professions_semantic/professions_semantic_4.png"" class=""exp-image"">
                    <div class=""question-area"">
                        <p style=""font-size: 20px; font-weight: bold; margin: 0;"">Is there a person in this image?</p>
                    </div>
                </div>","0","main_experiment_trial","4","professions_semantic","semantic_sequence_notimeline","chronological","","","","","","",""
"","","","","","html-keyboard-response","67","322905","0.0-67.0","5E689FAB3C714B2793E322B0F4AA4AD6","019d6b19-e580-738f-bca6-bbdae8632500","019d6ae6-5d89-74c6-b581-3918d1816346","","null","
                <div class=""stimulus-container"">
                    <img src=""semantic_sequence_notimeline/professions_semantic/professions_semantic_5.png"" class=""exp-image"">
                    <div class=""question-area""></div> 
                </div>","null","","","","","","","","","","","",""
"","","","","","html-button-response","68","324145","0.0-68.0","5E689FAB3C714B2793E322B0F4AA4AD6","019d6b19-e580-738f-bca6-bbdae8632500","019d6ae6-5d89-74c6-b581-3918d1816346","","1239","
                <div class=""stimulus-container"">
                    <img src=""semantic_sequence_notimeline/professions_semantic/professions_semantic_5.png"" class=""exp-image"">
                    <div class=""question-area"">
                        <p style=""font-size: 20px; font-weight: bold; margin: 0;"">Is there a person in this image?</p>
                    </div>
                </div>","0","main_experiment_trial","5","professions_semantic","semantic_sequence_notimeline","chronological","","","","","","",""
"","","","","","html-keyboard-response","69","329148","0.0-69.0","5E689FAB3C714B2793E322B0F4AA4AD6","019d6b19-e580-738f-bca6-bbdae8632500","019d6ae6-5d89-74c6-b581-3918d1816346","","null","
                <div class=""stimulus-container"">
                    <img src=""semantic_sequence_notimeline/professions_semantic/professions_semantic_6.png"" class=""exp-image"">
                    <div class=""question-area""></div> 
                </div>","null","","","","","","","","","","","",""
"","","","","","html-button-response","70","329840","0.0-70.0","5E689FAB3C714B2793E322B0F4AA4AD6","019d6b19-e580-738f-bca6-bbdae8632500","019d6ae6-5d89-74c6-b581-3918d1816346","","690","
                <div class=""stimulus-container"">
                    <img src=""semantic_sequence_notimeline/professions_semantic/professions_semantic_6.png"" class=""exp-image"">
                    <div class=""question-area"">
                        <p style=""font-size: 20px; font-weight: bold; margin: 0;"">Is there a person in this image?</p>
                    </div>
                </div>","0","main_experiment_trial","6","professions_semantic","semantic_sequence_notimeline","chronological","","","","","","",""
"","","","","","html-keyboard-response","71","334842","0.0-71.0","5E689FAB3C714B2793E322B0F4AA4AD6","019d6b19-e580-738f-bca6-bbdae8632500","019d6ae6-5d89-74c6-b581-3918d1816346","","null","
                <div class=""stimulus-container"">
                    <img src=""semantic_sequence_notimeline/professions_semantic/professions_semantic_7.png"" class=""exp-image"">
                    <div class=""question-area""></div> 
                </div>","null","","","","","","","","","","","",""
"","","","","","html-button-response","72","335607","0.0-72.0","5E689FAB3C714B2793E322B0F4AA4AD6","019d6b19-e580-738f-bca6-bbdae8632500","019d6ae6-5d89-74c6-b581-3918d1816346","","764","
                <div class=""stimulus-container"">
                    <img src=""semantic_sequence_notimeline/professions_semantic/professions_semantic_7.png"" class=""exp-image"">
                    <div class=""question-area"">
                        <p style=""font-size: 20px; font-weight: bold; margin: 0;"">Is there a person in this image?</p>
                    </div>
                </div>","0","main_experiment_trial","7","professions_semantic","semantic_sequence_notimeline","chronological","","","","","","",""
"","","","","","html-keyboard-response","73","340608","0.0-73.0","5E689FAB3C714B2793E322B0F4AA4AD6","019d6b19-e580-738f-bca6-bbdae8632500","019d6ae6-5d89-74c6-b581-3918d1816346","","null","
                <div class=""stimulus-container"">
                    <img src=""semantic_sequence_notimeline/professions_semantic/professions_semantic_8.png"" class=""exp-image"">
                    <div class=""question-area""></div> 
                </div>","null","","","","","","","","","","","",""
"","","","","","html-button-response","74","341241","0.0-74.0","5E689FAB3C714B2793E322B0F4AA4AD6","019d6b19-e580-738f-bca6-bbdae8632500","019d6ae6-5d89-74c6-b581-3918d1816346","","632","
                <div class=""stimulus-container"">
                    <img src=""semantic_sequence_notimeline/professions_semantic/professions_semantic_8.png"" class=""exp-image"">
                    <div class=""question-area"">
                        <p style=""font-size: 20px; font-weight: bold; margin: 0;"">Is there a person in this image?</p>
                    </div>
                </div>","0","main_experiment_trial","8","professions_semantic","semantic_sequence_notimeline","chronological","","","","","","",""
"","","","","","html-keyboard-response","75","346243","0.0-75.0","5E689FAB3C714B2793E322B0F4AA4AD6","019d6b19-e580-738f-bca6-bbdae8632500","019d6ae6-5d89-74c6-b581-3918d1816346","","null","
                <div class=""stimulus-container"">
                    <img src=""semantic_sequence_notimeline/professions_semantic/professions_semantic_9.png"" class=""exp-image"">
                    <div class=""question-area""></div> 
                </div>","null","","","","","","","","","","","",""
"","","","","","html-button-response","76","346929","0.0-76.0","5E689FAB3C714B2793E322B0F4AA4AD6","019d6b19-e580-738f-bca6-bbdae8632500","019d6ae6-5d89-74c6-b581-3918d1816346","","685","
                <div class=""stimulus-container"">
                    <img src=""semantic_sequence_notimeline/professions_semantic/professions_semantic_9.png"" class=""exp-image"">
                    <div class=""question-area"">
                        <p style=""font-size: 20px; font-weight: bold; margin: 0;"">Is there a person in this image?</p>
                    </div>
                </div>","0","main_experiment_trial","9","professions_semantic","semantic_sequence_notimeline","chronological","","","","","","",""
"","","","","","html-keyboard-response","77","351932","0.0-77.0","5E689FAB3C714B2793E322B0F4AA4AD6","019d6b19-e580-738f-bca6-bbdae8632500","019d6ae6-5d89-74c6-b581-3918d1816346","","null","
                <div class=""stimulus-container"">
                    <img src=""semantic_sequence_notimeline/professions_semantic/professions_semantic_ten.png"" class=""exp-image"">
                    <div class=""question-area""></div> 
                </div>","null","","","","","","","","","","","",""
"","","","","","html-button-response","78","352686","0.0-78.0","5E689FAB3C714B2793E322B0F4AA4AD6","019d6b19-e580-738f-bca6-bbdae8632500","019d6ae6-5d89-74c6-b581-3918d1816346","","752","
                <div class=""stimulus-container"">
                    <img src=""semantic_sequence_notimeline/professions_semantic/professions_semantic_ten.png"" class=""exp-image"">
                    <div class=""question-area"">
                        <p style=""font-size: 20px; font-weight: bold; margin: 0;"">Is there a person in this image?</p>
                    </div>
                </div>","0","main_experiment_trial","ten","professions_semantic","semantic_sequence_notimeline","chronological","","","","","","",""
"","","","","","html-keyboard-response","79","357688","0.0-79.0","5E689FAB3C714B2793E322B0F4AA4AD6","019d6b19-e580-738f-bca6-bbdae8632500","019d6ae6-5d89-74c6-b581-3918d1816346","","null","<div style=""background-color: white; width: 100vw; height: 100vh;""></div>","null","","","","","","","","","","","",""
"","","","","","html-keyboard-response","80","362690","0.0-80.0","5E689FAB3C714B2793E322B0F4AA4AD6","019d6b19-e580-738f-bca6-bbdae8632500","019d6ae6-5d89-74c6-b581-3918d1816346","","null","
                <div class=""stimulus-container"">
                    <img src=""images/causal_sequence/coin_causal/coin_causal_1.png"" class=""exp-image"">
                    <div class=""question-area""></div> 
                </div>","null","","","","","","","","","","","",""
"","","","","","html-button-response","81","363291","0.0-81.0","5E689FAB3C714B2793E322B0F4AA4AD6","019d6b19-e580-738f-bca6-bbdae8632500","019d6ae6-5d89-74c6-b581-3918d1816346","","600","
                <div class=""stimulus-container"">
                    <img src=""images/causal_sequence/coin_causal/coin_causal_1.png"" class=""exp-image"">
                    <div class=""question-area"">
                        <p style=""font-size: 20px; font-weight: bold; margin: 0;"">Is there a person in this image?</p>
                    </div>
                </div>","0","main_experiment_trial","1","coin_causal","causal_sequence","chronological","","","","","","",""
"","","","","","html-keyboard-response","82","368293","0.0-82.0","5E689FAB3C714B2793E322B0F4AA4AD6","019d6b19-e580-738f-bca6-bbdae8632500","019d6ae6-5d89-74c6-b581-3918d1816346","","null","
                <div class=""stimulus-container"">
                    <img src=""images/causal_sequence/coin_causal/coin_causal_2.png"" class=""exp-image"">
                    <div class=""question-area""></div> 
                </div>","null","","","","","","","","","","","",""
"","","","","","html-button-response","83","369008","0.0-83.0","5E689FAB3C714B2793E322B0F4AA4AD6","019d6b19-e580-738f-bca6-bbdae8632500","019d6ae6-5d89-74c6-b581-3918d1816346","","714","
                <div class=""stimulus-container"">
                    <img src=""images/causal_sequence/coin_causal/coin_causal_2.png"" class=""exp-image"">
                    <div class=""question-area"">
                        <p style=""font-size: 20px; font-weight: bold; margin: 0;"">Is there a person in this image?</p>
                    </div>
                </div>","0","main_experiment_trial","2","coin_causal","causal_sequence","chronological","","","","","","",""
"","","","","","html-keyboard-response","84","374010","0.0-84.0","5E689FAB3C714B2793E322B0F4AA4AD6","019d6b19-e580-738f-bca6-bbdae8632500","019d6ae6-5d89-74c6-b581-3918d1816346","","null","
                <div class=""stimulus-container"">
                    <img src=""images/causal_sequence/coin_causal/coin_causal_3.png"" class=""exp-image"">
                    <div class=""question-area""></div> 
                </div>","null","","","","","","","","","","","",""
"","","","","","html-button-response","85","374676","0.0-85.0","5E689FAB3C714B2793E322B0F4AA4AD6","019d6b19-e580-738f-bca6-bbdae8632500","019d6ae6-5d89-74c6-b581-3918d1816346","","665","
                <div class=""stimulus-container"">
                    <img src=""images/causal_sequence/coin_causal/coin_causal_3.png"" class=""exp-image"">
                    <div class=""question-area"">
                        <p style=""font-size: 20px; font-weight: bold; margin: 0;"">Is there a person in this image?</p>
                    </div>
                </div>","0","main_experiment_trial","3","coin_causal","causal_sequence","chronological","","","","","","",""
"","","","","","html-keyboard-response","86","379678","0.0-86.0","5E689FAB3C714B2793E322B0F4AA4AD6","019d6b19-e580-738f-bca6-bbdae8632500","019d6ae6-5d89-74c6-b581-3918d1816346","","null","
                <div class=""stimulus-container"">
                    <img src=""images/causal_sequence/coin_causal/coin_causal_4.png"" class=""exp-image"">
                    <div class=""question-area""></div> 
                </div>","null","","","","","","","","","","","",""
"","","","","","html-button-response","87","380388","0.0-87.0","5E689FAB3C714B2793E322B0F4AA4AD6","019d6b19-e580-738f-bca6-bbdae8632500","019d6ae6-5d89-74c6-b581-3918d1816346","","709","
                <div class=""stimulus-container"">
                    <img src=""images/causal_sequence/coin_causal/coin_causal_4.png"" class=""exp-image"">
                    <div class=""question-area"">
                        <p style=""font-size: 20px; font-weight: bold; margin: 0;"">Is there a person in this image?</p>
                    </div>
                </div>","0","main_experiment_trial","4","coin_causal","causal_sequence","chronological","","","","","","",""
"","","","","","html-keyboard-response","88","385390","0.0-88.0","5E689FAB3C714B2793E322B0F4AA4AD6","019d6b19-e580-738f-bca6-bbdae8632500","019d6ae6-5d89-74c6-b581-3918d1816346","","null","
                <div class=""stimulus-container"">
                    <img src=""images/causal_sequence/coin_causal/coin_causal_5.png"" class=""exp-image"">
                    <div class=""question-area""></div> 
                </div>","null","","","","","","","","","","","",""
"","","","","","html-button-response","89","386107","0.0-89.0","5E689FAB3C714B2793E322B0F4AA4AD6","019d6b19-e580-738f-bca6-bbdae8632500","019d6ae6-5d89-74c6-b581-3918d1816346","","716","
                <div class=""stimulus-container"">
                    <img src=""images/causal_sequence/coin_causal/coin_causal_5.png"" class=""exp-image"">
                    <div class=""question-area"">
                        <p style=""font-size: 20px; font-weight: bold; margin: 0;"">Is there a person in this image?</p>
                    </div>
                </div>","0","main_experiment_trial","5","coin_causal","causal_sequence","chronological","","","","","","",""
"","","","","","html-keyboard-response","90","391108","0.0-90.0","5E689FAB3C714B2793E322B0F4AA4AD6","019d6b19-e580-738f-bca6-bbdae8632500","019d6ae6-5d89-74c6-b581-3918d1816346","","null","
                <div class=""stimulus-container"">
                    <img src=""images/causal_sequence/coin_causal/coin_causal_6.png"" class=""exp-image"">
                    <div class=""question-area""></div> 
                </div>","null","","","","","","","","","","","",""
"","","","","","html-button-response","91","391676","0.0-91.0","5E689FAB3C714B2793E322B0F4AA4AD6","019d6b19-e580-738f-bca6-bbdae8632500","019d6ae6-5d89-74c6-b581-3918d1816346","","567","
                <div class=""stimulus-container"">
                    <img src=""images/causal_sequence/coin_causal/coin_causal_6.png"" class=""exp-image"">
                    <div class=""question-area"">
                        <p style=""font-size: 20px; font-weight: bold; margin: 0;"">Is there a person in this image?</p>
                    </div>
                </div>","0","main_experiment_trial","6","coin_causal","causal_sequence","chronological","","","","","","",""
"","","","","","html-keyboard-response","92","396678","0.0-92.0","5E689FAB3C714B2793E322B0F4AA4AD6","019d6b19-e580-738f-bca6-bbdae8632500","019d6ae6-5d89-74c6-b581-3918d1816346","","null","
                <div class=""stimulus-container"">
                    <img src=""images/causal_sequence/coin_causal/coin_causal_7.png"" class=""exp-image"">
                    <div class=""question-area""></div> 
                </div>","null","","","","","","","","","","","",""
"","","","","","html-button-response","93","397340","0.0-93.0","5E689FAB3C714B2793E322B0F4AA4AD6","019d6b19-e580-738f-bca6-bbdae8632500","019d6ae6-5d89-74c6-b581-3918d1816346","","661","
                <div class=""stimulus-container"">
                    <img src=""images/causal_sequence/coin_causal/coin_causal_7.png"" class=""exp-image"">
                    <div class=""question-area"">
                        <p style=""font-size: 20px; font-weight: bold; margin: 0;"">Is there a person in this image?</p>
                    </div>
                </div>","1","main_experiment_trial","7","coin_causal","causal_sequence","chronological","","","","","","",""
"","","","","","html-keyboard-response","94","402343","0.0-94.0","5E689FAB3C714B2793E322B0F4AA4AD6","019d6b19-e580-738f-bca6-bbdae8632500","019d6ae6-5d89-74c6-b581-3918d1816346","","null","
                <div class=""stimulus-container"">
                    <img src=""images/causal_sequence/coin_causal/coin_causal_8.png"" class=""exp-image"">
                    <div class=""question-area""></div> 
                </div>","null","","","","","","","","","","","",""
"","","","","","html-button-response","95","403278","0.0-95.0","5E689FAB3C714B2793E322B0F4AA4AD6","019d6b19-e580-738f-bca6-bbdae8632500","019d6ae6-5d89-74c6-b581-3918d1816346","","934","
                <div class=""stimulus-container"">
                    <img src=""images/causal_sequence/coin_causal/coin_causal_8.png"" class=""exp-image"">
                    <div class=""question-area"">
                        <p style=""font-size: 20px; font-weight: bold; margin: 0;"">Is there a person in this image?</p>
                    </div>
                </div>","0","main_experiment_trial","8","coin_causal","causal_sequence","chronological","","","","","","",""
"","","","","","html-keyboard-response","96","408280","0.0-96.0","5E689FAB3C714B2793E322B0F4AA4AD6","019d6b19-e580-738f-bca6-bbdae8632500","019d6ae6-5d89-74c6-b581-3918d1816346","","null","
                <div class=""stimulus-container"">
                    <img src=""images/causal_sequence/coin_causal/coin_causal_9.png"" class=""exp-image"">
                    <div class=""question-area""></div> 
                </div>","null","","","","","","","","","","","",""
"","","","","","html-button-response","97","408882","0.0-97.0","5E689FAB3C714B2793E322B0F4AA4AD6","019d6b19-e580-738f-bca6-bbdae8632500","019d6ae6-5d89-74c6-b581-3918d1816346","","600","
                <div class=""stimulus-container"">
                    <img src=""images/causal_sequence/coin_causal/coin_causal_9.png"" class=""exp-image"">
                    <div class=""question-area"">
                        <p style=""font-size: 20px; font-weight: bold; margin: 0;"">Is there a person in this image?</p>
                    </div>
                </div>","0","main_experiment_trial","9","coin_causal","causal_sequence","chronological","","","","","","",""
"","","","","","html-keyboard-response","98","413884","0.0-98.0","5E689FAB3C714B2793E322B0F4AA4AD6","019d6b19-e580-738f-bca6-bbdae8632500","019d6ae6-5d89-74c6-b581-3918d1816346","","null","
                <div class=""stimulus-container"">
                    <img src=""images/causal_sequence/coin_causal/coin_causal_ten.png"" class=""exp-image"">
                    <div class=""question-area""></div> 
                </div>","null","","","","","","","","","","","",""
"","","","","","html-button-response","99","414814","0.0-99.0","5E689FAB3C714B2793E322B0F4AA4AD6","019d6b19-e580-738f-bca6-bbdae8632500","019d6ae6-5d89-74c6-b581-3918d1816346","","929","
                <div class=""stimulus-container"">
                    <img src=""images/causal_sequence/coin_causal/coin_causal_ten.png"" class=""exp-image"">
                    <div class=""question-area"">
                        <p style=""font-size: 20px; font-weight: bold; margin: 0;"">Is there a person in this image?</p>
                    </div>
                </div>","0","main_experiment_trial","ten","coin_causal","causal_sequence","chronological","","","","","","",""
"","","","","","html-keyboard-response","100","419816","0.0-100.0","5E689FAB3C714B2793E322B0F4AA4AD6","019d6b19-e580-738f-bca6-bbdae8632500","019d6ae6-5d89-74c6-b581-3918d1816346","","null","<div style=""background-color: white; width: 100vw; height: 100vh;""></div>","null","","","","","","","","","","","",""
"","","","","","html-keyboard-response","101","424817","0.0-101.0","5E689FAB3C714B2793E322B0F4AA4AD6","019d6b19-e580-738f-bca6-bbdae8632500","019d6ae6-5d89-74c6-b581-3918d1816346","","null","
                <div class=""stimulus-container"">
                    <img src=""images/causal_sequence/the_performance_causal/the_performance_causal_1.png"" class=""exp-image"">
                    <div class=""question-area""></div> 
                </div>","null","","","","","","","","","","","",""
"","","","","","html-button-response","102","425516","0.0-102.0","5E689FAB3C714B2793E322B0F4AA4AD6","019d6b19-e580-738f-bca6-bbdae8632500","019d6ae6-5d89-74c6-b581-3918d1816346","","696","
                <div class=""stimulus-container"">
                    <img src=""images/causal_sequence/the_performance_causal/the_performance_causal_1.png"" class=""exp-image"">
                    <div class=""question-area"">
                        <p style=""font-size: 20px; font-weight: bold; margin: 0;"">Is there a person in this image?</p>
                    </div>
                </div>","0","main_experiment_trial","1","the_performance_causal","causal_sequence","chronological","","","","","","",""
"","","","","","html-keyboard-response","103","430518","0.0-103.0","5E689FAB3C714B2793E322B0F4AA4AD6","019d6b19-e580-738f-bca6-bbdae8632500","019d6ae6-5d89-74c6-b581-3918d1816346","","null","
                <div class=""stimulus-container"">
                    <img src=""images/causal_sequence/the_performance_causal/the_performance_causal_2.png"" class=""exp-image"">
                    <div class=""question-area""></div> 
                </div>","null","","","","","","","","","","","",""
"","","","","","html-button-response","104","431902","0.0-104.0","5E689FAB3C714B2793E322B0F4AA4AD6","019d6b19-e580-738f-bca6-bbdae8632500","019d6ae6-5d89-74c6-b581-3918d1816346","","1383","
                <div class=""stimulus-container"">
                    <img src=""images/causal_sequence/the_performance_causal/the_performance_causal_2.png"" class=""exp-image"">
                    <div class=""question-area"">
                        <p style=""font-size: 20px; font-weight: bold; margin: 0;"">Is there a person in this image?</p>
                    </div>
                </div>","0","main_experiment_trial","2","the_performance_causal","causal_sequence","chronological","","","","","","",""
"","","","","","html-keyboard-response","105","436904","0.0-105.0","5E689FAB3C714B2793E322B0F4AA4AD6","019d6b19-e580-738f-bca6-bbdae8632500","019d6ae6-5d89-74c6-b581-3918d1816346","","null","
                <div class=""stimulus-container"">
                    <img src=""images/causal_sequence/the_performance_causal/the_performance_causal_3.png"" class=""exp-image"">
                    <div class=""question-area""></div> 
                </div>","null","","","","","","","","","","","",""
"","","","","","html-button-response","106","437443","0.0-106.0","5E689FAB3C714B2793E322B0F4AA4AD6","019d6b19-e580-738f-bca6-bbdae8632500","019d6ae6-5d89-74c6-b581-3918d1816346","","537","
                <div class=""stimulus-container"">
                    <img src=""images/causal_sequence/the_performance_causal/the_performance_causal_3.png"" class=""exp-image"">
                    <div class=""question-area"">
                        <p style=""font-size: 20px; font-weight: bold; margin: 0;"">Is there a person in this image?</p>
                    </div>
                </div>","0","main_experiment_trial","3","the_performance_causal","causal_sequence","chronological","","","","","","",""
"","","","","","html-keyboard-response","107","442446","0.0-107.0","5E689FAB3C714B2793E322B0F4AA4AD6","019d6b19-e580-738f-bca6-bbdae8632500","019d6ae6-5d89-74c6-b581-3918d1816346","","null","
                <div class=""stimulus-container"">
                    <img src=""images/causal_sequence/the_performance_causal/the_performance_causal_4.png"" class=""exp-image"">
                    <div class=""question-area""></div> 
                </div>","null","","","","","","","","","","","",""
"","","","","","html-button-response","108","443392","0.0-108.0","5E689FAB3C714B2793E322B0F4AA4AD6","019d6b19-e580-738f-bca6-bbdae8632500","019d6ae6-5d89-74c6-b581-3918d1816346","","945","
                <div class=""stimulus-container"">
                    <img src=""images/causal_sequence/the_performance_causal/the_performance_causal_4.png"" class=""exp-image"">
                    <div class=""question-area"">
                        <p style=""font-size: 20px; font-weight: bold; margin: 0;"">Is there a person in this image?</p>
                    </div>
                </div>","0","main_experiment_trial","4","the_performance_causal","causal_sequence","chronological","","","","","","",""
"","","","","","html-keyboard-response","109","448394","0.0-109.0","5E689FAB3C714B2793E322B0F4AA4AD6","019d6b19-e580-738f-bca6-bbdae8632500","019d6ae6-5d89-74c6-b581-3918d1816346","","null","
                <div class=""stimulus-container"">
                    <img src=""images/causal_sequence/the_performance_causal/the_performance_causal_5.png"" class=""exp-image"">
                    <div class=""question-area""></div> 
                </div>","null","","","","","","","","","","","",""
"","","","","","html-button-response","110","448927","0.0-110.0","5E689FAB3C714B2793E322B0F4AA4AD6","019d6b19-e580-738f-bca6-bbdae8632500","019d6ae6-5d89-74c6-b581-3918d1816346","","532","
                <div class=""stimulus-container"">
                    <img src=""images/causal_sequence/the_performance_causal/the_performance_causal_5.png"" class=""exp-image"">
                    <div class=""question-area"">
                        <p style=""font-size: 20px; font-weight: bold; margin: 0;"">Is there a person in this image?</p>
                    </div>
                </div>","0","main_experiment_trial","5","the_performance_causal","causal_sequence","chronological","","","","","","",""
"","","","","","html-keyboard-response","111","453930","0.0-111.0","5E689FAB3C714B2793E322B0F4AA4AD6","019d6b19-e580-738f-bca6-bbdae8632500","019d6ae6-5d89-74c6-b581-3918d1816346","","null","
                <div class=""stimulus-container"">
                    <img src=""images/causal_sequence/the_performance_causal/the_performance_causal_6.png"" class=""exp-image"">
                    <div class=""question-area""></div> 
                </div>","null","","","","","","","","","","","",""
"","","","","","html-button-response","112","454414","0.0-112.0","5E689FAB3C714B2793E322B0F4AA4AD6","019d6b19-e580-738f-bca6-bbdae8632500","019d6ae6-5d89-74c6-b581-3918d1816346","","482","
                <div class=""stimulus-container"">
                    <img src=""images/causal_sequence/the_performance_causal/the_performance_causal_6.png"" class=""exp-image"">
                    <div class=""question-area"">
                        <p style=""font-size: 20px; font-weight: bold; margin: 0;"">Is there a person in this image?</p>
                    </div>
                </div>","0","main_experiment_trial","6","the_performance_causal","causal_sequence","chronological","","","","","","",""
"","","","","","html-keyboard-response","113","459416","0.0-113.0","5E689FAB3C714B2793E322B0F4AA4AD6","019d6b19-e580-738f-bca6-bbdae8632500","019d6ae6-5d89-74c6-b581-3918d1816346","","null","
                <div class=""stimulus-container"">
                    <img src=""images/causal_sequence/the_performance_causal/the_performance_causal_7.png"" class=""exp-image"">
                    <div class=""question-area""></div> 
                </div>","null","","","","","","","","","","","",""
"","","","","","html-button-response","114","460331","0.0-114.0","5E689FAB3C714B2793E322B0F4AA4AD6","019d6b19-e580-738f-bca6-bbdae8632500","019d6ae6-5d89-74c6-b581-3918d1816346","","914","
                <div class=""stimulus-container"">
                    <img src=""images/causal_sequence/the_performance_causal/the_performance_causal_7.png"" class=""exp-image"">
                    <div class=""question-area"">
                        <p style=""font-size: 20px; font-weight: bold; margin: 0;"">Is there a person in this image?</p>
                    </div>
                </div>","0","main_experiment_trial","7","the_performance_causal","causal_sequence","chronological","","","","","","",""
"","","","","","html-keyboard-response","115","465334","0.0-115.0","5E689FAB3C714B2793E322B0F4AA4AD6","019d6b19-e580-738f-bca6-bbdae8632500","019d6ae6-5d89-74c6-b581-3918d1816346","","null","
                <div class=""stimulus-container"">
                    <img src=""images/causal_sequence/the_performance_causal/the_performance_causal_8.png"" class=""exp-image"">
                    <div class=""question-area""></div> 
                </div>","null","","","","","","","","","","","",""
"","","","","","html-button-response","116","465793","0.0-116.0","5E689FAB3C714B2793E322B0F4AA4AD6","019d6b19-e580-738f-bca6-bbdae8632500","019d6ae6-5d89-74c6-b581-3918d1816346","","458","
                <div class=""stimulus-container"">
                    <img src=""images/causal_sequence/the_performance_causal/the_performance_causal_8.png"" class=""exp-image"">
                    <div class=""question-area"">
                        <p style=""font-size: 20px; font-weight: bold; margin: 0;"">Is there a person in this image?</p>
                    </div>
                </div>","0","main_experiment_trial","8","the_performance_causal","causal_sequence","chronological","","","","","","",""
"","","","","","html-keyboard-response","117","470795","0.0-117.0","5E689FAB3C714B2793E322B0F4AA4AD6","019d6b19-e580-738f-bca6-bbdae8632500","019d6ae6-5d89-74c6-b581-3918d1816346","","null","
                <div class=""stimulus-container"">
                    <img src=""images/causal_sequence/the_performance_causal/the_performance_causal_9.png"" class=""exp-image"">
                    <div class=""question-area""></div> 
                </div>","null","","","","","","","","","","","",""
"","","","","","html-button-response","118","471635","0.0-118.0","5E689FAB3C714B2793E322B0F4AA4AD6","019d6b19-e580-738f-bca6-bbdae8632500","019d6ae6-5d89-74c6-b581-3918d1816346","","840","
                <div class=""stimulus-container"">
                    <img src=""images/causal_sequence/the_performance_causal/the_performance_causal_9.png"" class=""exp-image"">
                    <div class=""question-area"">
                        <p style=""font-size: 20px; font-weight: bold; margin: 0;"">Is there a person in this image?</p>
                    </div>
                </div>","0","main_experiment_trial","9","the_performance_causal","causal_sequence","chronological","","","","","","",""
"","","","","","html-keyboard-response","119","476638","0.0-119.0","5E689FAB3C714B2793E322B0F4AA4AD6","019d6b19-e580-738f-bca6-bbdae8632500","019d6ae6-5d89-74c6-b581-3918d1816346","","null","
                <div class=""stimulus-container"">
                    <img src=""images/causal_sequence/the_performance_causal/the_performance_causal_ten.png"" class=""exp-image"">
                    <div class=""question-area""></div> 
                </div>","null","","","","","","","","","","","",""
"","","","","","html-button-response","120","477610","0.0-120.0","5E689FAB3C714B2793E322B0F4AA4AD6","019d6b19-e580-738f-bca6-bbdae8632500","019d6ae6-5d89-74c6-b581-3918d1816346","","971","
                <div class=""stimulus-container"">
                    <img src=""images/causal_sequence/the_performance_causal/the_performance_causal_ten.png"" class=""exp-image"">
                    <div class=""question-area"">
                        <p style=""font-size: 20px; font-weight: bold; margin: 0;"">Is there a person in this image?</p>
                    </div>
                </div>","0","main_experiment_trial","ten","the_performance_causal","causal_sequence","chronological","","","","","","",""
"","","","","","html-keyboard-response","121","482613","0.0-121.0","5E689FAB3C714B2793E322B0F4AA4AD6","019d6b19-e580-738f-bca6-bbdae8632500","019d6ae6-5d89-74c6-b581-3918d1816346","","null","<div style=""background-color: white; width: 100vw; height: 100vh;""></div>","null","","","","","","","","","","","",""
"","","","","","html-keyboard-response","122","487615","0.0-122.0","5E689FAB3C714B2793E322B0F4AA4AD6","019d6b19-e580-738f-bca6-bbdae8632500","019d6ae6-5d89-74c6-b581-3918d1816346","","null","
                <div class=""stimulus-container"">
                    <img src=""semantic_sequence_notimeline/household_objects_semantic/household_objects_semantic_1.png"" class=""exp-image"">
                    <div class=""question-area""></div> 
                </div>","null","","","","","","","","","","","",""
"","","","","","html-button-response","123","488252","0.0-123.0","5E689FAB3C714B2793E322B0F4AA4AD6","019d6b19-e580-738f-bca6-bbdae8632500","019d6ae6-5d89-74c6-b581-3918d1816346","","636","
                <div class=""stimulus-container"">
                    <img src=""semantic_sequence_notimeline/household_objects_semantic/household_objects_semantic_1.png"" class=""exp-image"">
                    <div class=""question-area"">
                        <p style=""font-size: 20px; font-weight: bold; margin: 0;"">Is there a person in this image?</p>
                    </div>
                </div>","1","main_experiment_trial","1","household_objects_semantic","semantic_sequence_notimeline","chronological","","","","","","",""
"","","","","","html-keyboard-response","124","493254","0.0-124.0","5E689FAB3C714B2793E322B0F4AA4AD6","019d6b19-e580-738f-bca6-bbdae8632500","019d6ae6-5d89-74c6-b581-3918d1816346","","null","
                <div class=""stimulus-container"">
                    <img src=""semantic_sequence_notimeline/household_objects_semantic/household_objects_semantic_2.png"" class=""exp-image"">
                    <div class=""question-area""></div> 
                </div>","null","","","","","","","","","","","",""
"","","","","","html-button-response","125","494051","0.0-125.0","5E689FAB3C714B2793E322B0F4AA4AD6","019d6b19-e580-738f-bca6-bbdae8632500","019d6ae6-5d89-74c6-b581-3918d1816346","","796","
                <div class=""stimulus-container"">
                    <img src=""semantic_sequence_notimeline/household_objects_semantic/household_objects_semantic_2.png"" class=""exp-image"">
                    <div class=""question-area"">
                        <p style=""font-size: 20px; font-weight: bold; margin: 0;"">Is there a person in this image?</p>
                    </div>
                </div>","1","main_experiment_trial","2","household_objects_semantic","semantic_sequence_notimeline","chronological","","","","","","",""
"","","","","","html-keyboard-response","126","499054","0.0-126.0","5E689FAB3C714B2793E322B0F4AA4AD6","019d6b19-e580-738f-bca6-bbdae8632500","019d6ae6-5d89-74c6-b581-3918d1816346","","null","
                <div class=""stimulus-container"">
                    <img src=""semantic_sequence_notimeline/household_objects_semantic/household_objects_semantic_3.png"" class=""exp-image"">
                    <div class=""question-area""></div> 
                </div>","null","","","","","","","","","","","",""
"","","","","","html-button-response","127","500047","0.0-127.0","5E689FAB3C714B2793E322B0F4AA4AD6","019d6b19-e580-738f-bca6-bbdae8632500","019d6ae6-5d89-74c6-b581-3918d1816346","","992","
                <div class=""stimulus-container"">
                    <img src=""semantic_sequence_notimeline/household_objects_semantic/household_objects_semantic_3.png"" class=""exp-image"">
                    <div class=""question-area"">
                        <p style=""font-size: 20px; font-weight: bold; margin: 0;"">Is there a person in this image?</p>
                    </div>
                </div>","1","main_experiment_trial","3","household_objects_semantic","semantic_sequence_notimeline","chronological","","","","","","",""
"","","","","","html-keyboard-response","128","505049","0.0-128.0","5E689FAB3C714B2793E322B0F4AA4AD6","019d6b19-e580-738f-bca6-bbdae8632500","019d6ae6-5d89-74c6-b581-3918d1816346","","null","
                <div class=""stimulus-container"">
                    <img src=""semantic_sequence_notimeline/household_objects_semantic/household_objects_semantic_4.png"" class=""exp-image"">
                    <div class=""question-area""></div> 
                </div>","null","","","","","","","","","","","",""
"","","","","","html-button-response","129","506067","0.0-129.0","5E689FAB3C714B2793E322B0F4AA4AD6","019d6b19-e580-738f-bca6-bbdae8632500","019d6ae6-5d89-74c6-b581-3918d1816346","","1017","
                <div class=""stimulus-container"">
                    <img src=""semantic_sequence_notimeline/household_objects_semantic/household_objects_semantic_4.png"" class=""exp-image"">
                    <div class=""question-area"">
                        <p style=""font-size: 20px; font-weight: bold; margin: 0;"">Is there a person in this image?</p>
                    </div>
                </div>","1","main_experiment_trial","4","household_objects_semantic","semantic_sequence_notimeline","chronological","","","","","","",""
"","","","","","html-keyboard-response","130","511069","0.0-130.0","5E689FAB3C714B2793E322B0F4AA4AD6","019d6b19-e580-738f-bca6-bbdae8632500","019d6ae6-5d89-74c6-b581-3918d1816346","","null","
                <div class=""stimulus-container"">
                    <img src=""semantic_sequence_notimeline/household_objects_semantic/household_objects_semantic_5.png"" class=""exp-image"">
                    <div class=""question-area""></div> 
                </div>","null","","","","","","","","","","","",""
"","","","","","html-button-response","131","511888","0.0-131.0","5E689FAB3C714B2793E322B0F4AA4AD6","019d6b19-e580-738f-bca6-bbdae8632500","019d6ae6-5d89-74c6-b581-3918d1816346","","817","
                <div class=""stimulus-container"">
                    <img src=""semantic_sequence_notimeline/household_objects_semantic/household_objects_semantic_5.png"" class=""exp-image"">
                    <div class=""question-area"">
                        <p style=""font-size: 20px; font-weight: bold; margin: 0;"">Is there a person in this image?</p>
                    </div>
                </div>","1","main_experiment_trial","5","household_objects_semantic","semantic_sequence_notimeline","chronological","","","","","","",""
"","","","","","html-keyboard-response","132","516890","0.0-132.0","5E689FAB3C714B2793E322B0F4AA4AD6","019d6b19-e580-738f-bca6-bbdae8632500","019d6ae6-5d89-74c6-b581-3918d1816346","","null","
                <div class=""stimulus-container"">
                    <img src=""semantic_sequence_notimeline/household_objects_semantic/household_objects_semantic_6.png"" class=""exp-image"">
                    <div class=""question-area""></div> 
                </div>","null","","","","","","","","","","","",""
"","","","","","html-button-response","133","517906","0.0-133.0","5E689FAB3C714B2793E322B0F4AA4AD6","019d6b19-e580-738f-bca6-bbdae8632500","019d6ae6-5d89-74c6-b581-3918d1816346","","1014","
                <div class=""stimulus-container"">
                    <img src=""semantic_sequence_notimeline/household_objects_semantic/household_objects_semantic_6.png"" class=""exp-image"">
                    <div class=""question-area"">
                        <p style=""font-size: 20px; font-weight: bold; margin: 0;"">Is there a person in this image?</p>
                    </div>
                </div>","1","main_experiment_trial","6","household_objects_semantic","semantic_sequence_notimeline","chronological","","","","","","",""
"","","","","","html-keyboard-response","134","522909","0.0-134.0","5E689FAB3C714B2793E322B0F4AA4AD6","019d6b19-e580-738f-bca6-bbdae8632500","019d6ae6-5d89-74c6-b581-3918d1816346","","null","
                <div class=""stimulus-container"">
                    <img src=""semantic_sequence_notimeline/household_objects_semantic/household_objects_semantic_7.png"" class=""exp-image"">
                    <div class=""question-area""></div> 
                </div>","null","","","","","","","","","","","",""
"","","","","","html-button-response","135","524597","0.0-135.0","5E689FAB3C714B2793E322B0F4AA4AD6","019d6b19-e580-738f-bca6-bbdae8632500","019d6ae6-5d89-74c6-b581-3918d1816346","","1686","
                <div class=""stimulus-container"">
                    <img src=""semantic_sequence_notimeline/household_objects_semantic/household_objects_semantic_7.png"" class=""exp-image"">
                    <div class=""question-area"">
                        <p style=""font-size: 20px; font-weight: bold; margin: 0;"">Is there a person in this image?</p>
                    </div>
                </div>","1","main_experiment_trial","7","household_objects_semantic","semantic_sequence_notimeline","chronological","","","","","","",""
"","","","","","html-keyboard-response","136","529599","0.0-136.0","5E689FAB3C714B2793E322B0F4AA4AD6","019d6b19-e580-738f-bca6-bbdae8632500","019d6ae6-5d89-74c6-b581-3918d1816346","","null","
                <div class=""stimulus-container"">
                    <img src=""semantic_sequence_notimeline/household_objects_semantic/household_objects_semantic_8.png"" class=""exp-image"">
                    <div class=""question-area""></div> 
                </div>","null","","","","","","","","","","","",""
"","","","","","html-button-response","137","530201","0.0-137.0","5E689FAB3C714B2793E322B0F4AA4AD6","019d6b19-e580-738f-bca6-bbdae8632500","019d6ae6-5d89-74c6-b581-3918d1816346","","600","
                <div class=""stimulus-container"">
                    <img src=""semantic_sequence_notimeline/household_objects_semantic/household_objects_semantic_8.png"" class=""exp-image"">
                    <div class=""question-area"">
                        <p style=""font-size: 20px; font-weight: bold; margin: 0;"">Is there a person in this image?</p>
                    </div>
                </div>","1","main_experiment_trial","8","household_objects_semantic","semantic_sequence_notimeline","chronological","","","","","","",""
"","","","","","html-keyboard-response","138","535202","0.0-138.0","5E689FAB3C714B2793E322B0F4AA4AD6","019d6b19-e580-738f-bca6-bbdae8632500","019d6ae6-5d89-74c6-b581-3918d1816346","","null","
                <div class=""stimulus-container"">
                    <img src=""semantic_sequence_notimeline/household_objects_semantic/household_objects_semantic_9.png"" class=""exp-image"">
                    <div class=""question-area""></div> 
                </div>","null","","","","","","","","","","","",""
"","","","","","html-button-response","139","535792","0.0-139.0","5E689FAB3C714B2793E322B0F4AA4AD6","019d6b19-e580-738f-bca6-bbdae8632500","019d6ae6-5d89-74c6-b581-3918d1816346","","588","
                <div class=""stimulus-container"">
                    <img src=""semantic_sequence_notimeline/household_objects_semantic/household_objects_semantic_9.png"" class=""exp-image"">
                    <div class=""question-area"">
                        <p style=""font-size: 20px; font-weight: bold; margin: 0;"">Is there a person in this image?</p>
                    </div>
                </div>","1","main_experiment_trial","9","household_objects_semantic","semantic_sequence_notimeline","chronological","","","","","","",""
"","","","","","html-keyboard-response","140","540794","0.0-140.0","5E689FAB3C714B2793E322B0F4AA4AD6","019d6b19-e580-738f-bca6-bbdae8632500","019d6ae6-5d89-74c6-b581-3918d1816346","","null","
                <div class=""stimulus-container"">
                    <img src=""semantic_sequence_notimeline/household_objects_semantic/household_objects_semantic_ten.png"" class=""exp-image"">
                    <div class=""question-area""></div> 
                </div>","null","","","","","","","","","","","",""
"","","","","","html-button-response","141","542746","0.0-141.0","5E689FAB3C714B2793E322B0F4AA4AD6","019d6b19-e580-738f-bca6-bbdae8632500","019d6ae6-5d89-74c6-b581-3918d1816346","","1950","
                <div class=""stimulus-container"">
                    <img src=""semantic_sequence_notimeline/household_objects_semantic/household_objects_semantic_ten.png"" class=""exp-image"">
                    <div class=""question-area"">
                        <p style=""font-size: 20px; font-weight: bold; margin: 0;"">Is there a person in this image?</p>
                    </div>
                </div>","1","main_experiment_trial","ten","household_objects_semantic","semantic_sequence_notimeline","chronological","","","","","","",""
"","","","","","html-keyboard-response","142","547748","0.0-142.0","5E689FAB3C714B2793E322B0F4AA4AD6","019d6b19-e580-738f-bca6-bbdae8632500","019d6ae6-5d89-74c6-b581-3918d1816346","","null","<div style=""background-color: white; width: 100vw; height: 100vh;""></div>","null","","","","","","","","","","","",""
"","","","","","html-keyboard-response","143","552750","0.0-143.0","5E689FAB3C714B2793E322B0F4AA4AD6","019d6b19-e580-738f-bca6-bbdae8632500","019d6ae6-5d89-74c6-b581-3918d1816346","","null","
                <div class=""stimulus-container"">
                    <img src=""semantic_sequence_notimeline/animals_semantic/animals_semantic_1.png"" class=""exp-image"">
                    <div class=""question-area""></div> 
                </div>","null","","","","","","","","","","","",""
"","","","","","html-button-response","144","553512","0.0-144.0","5E689FAB3C714B2793E322B0F4AA4AD6","019d6b19-e580-738f-bca6-bbdae8632500","019d6ae6-5d89-74c6-b581-3918d1816346","","761","
                <div class=""stimulus-container"">
                    <img src=""semantic_sequence_notimeline/animals_semantic/animals_semantic_1.png"" class=""exp-image"">
                    <div class=""question-area"">
                        <p style=""font-size: 20px; font-weight: bold; margin: 0;"">Is there a person in this image?</p>
                    </div>
                </div>","1","main_experiment_trial","1","animals_semantic","semantic_sequence_notimeline","chronological","","","","","","",""
"","","","","","html-keyboard-response","145","558515","0.0-145.0","5E689FAB3C714B2793E322B0F4AA4AD6","019d6b19-e580-738f-bca6-bbdae8632500","019d6ae6-5d89-74c6-b581-3918d1816346","","null","
                <div class=""stimulus-container"">
                    <img src=""semantic_sequence_notimeline/animals_semantic/animals_semantic_2.png"" class=""exp-image"">
                    <div class=""question-area""></div> 
                </div>","null","","","","","","","","","","","",""
"","","","","","html-button-response","146","559084","0.0-146.0","5E689FAB3C714B2793E322B0F4AA4AD6","019d6b19-e580-738f-bca6-bbdae8632500","019d6ae6-5d89-74c6-b581-3918d1816346","","568","
                <div class=""stimulus-container"">
                    <img src=""semantic_sequence_notimeline/animals_semantic/animals_semantic_2.png"" class=""exp-image"">
                    <div class=""question-area"">
                        <p style=""font-size: 20px; font-weight: bold; margin: 0;"">Is there a person in this image?</p>
                    </div>
                </div>","1","main_experiment_trial","2","animals_semantic","semantic_sequence_notimeline","chronological","","","","","","",""
"","","","","","html-keyboard-response","147","564086","0.0-147.0","5E689FAB3C714B2793E322B0F4AA4AD6","019d6b19-e580-738f-bca6-bbdae8632500","019d6ae6-5d89-74c6-b581-3918d1816346","","null","
                <div class=""stimulus-container"">
                    <img src=""semantic_sequence_notimeline/animals_semantic/animals_semantic_3.png"" class=""exp-image"">
                    <div class=""question-area""></div> 
                </div>","null","","","","","","","","","","","",""
"","","","","","html-button-response","148","564696","0.0-148.0","5E689FAB3C714B2793E322B0F4AA4AD6","019d6b19-e580-738f-bca6-bbdae8632500","019d6ae6-5d89-74c6-b581-3918d1816346","","609","
                <div class=""stimulus-container"">
                    <img src=""semantic_sequence_notimeline/animals_semantic/animals_semantic_3.png"" class=""exp-image"">
                    <div class=""question-area"">
                        <p style=""font-size: 20px; font-weight: bold; margin: 0;"">Is there a person in this image?</p>
                    </div>
                </div>","1","main_experiment_trial","3","animals_semantic","semantic_sequence_notimeline","chronological","","","","","","",""
"","","","","","html-keyboard-response","149","569698","0.0-149.0","5E689FAB3C714B2793E322B0F4AA4AD6","019d6b19-e580-738f-bca6-bbdae8632500","019d6ae6-5d89-74c6-b581-3918d1816346","","null","
                <div class=""stimulus-container"">
                    <img src=""semantic_sequence_notimeline/animals_semantic/animals_semantic_4.png"" class=""exp-image"">
                    <div class=""question-area""></div> 
                </div>","null","","","","","","","","","","","",""
"","","","","","html-button-response","150","570482","0.0-150.0","5E689FAB3C714B2793E322B0F4AA4AD6","019d6b19-e580-738f-bca6-bbdae8632500","019d6ae6-5d89-74c6-b581-3918d1816346","","783","
                <div class=""stimulus-container"">
                    <img src=""semantic_sequence_notimeline/animals_semantic/animals_semantic_4.png"" class=""exp-image"">
                    <div class=""question-area"">
                        <p style=""font-size: 20px; font-weight: bold; margin: 0;"">Is there a person in this image?</p>
                    </div>
                </div>","1","main_experiment_trial","4","animals_semantic","semantic_sequence_notimeline","chronological","","","","","","",""
"","","","","","html-keyboard-response","151","575484","0.0-151.0","5E689FAB3C714B2793E322B0F4AA4AD6","019d6b19-e580-738f-bca6-bbdae8632500","019d6ae6-5d89-74c6-b581-3918d1816346","","null","
                <div class=""stimulus-container"">
                    <img src=""semantic_sequence_notimeline/animals_semantic/animals_semantic_5.png"" class=""exp-image"">
                    <div class=""question-area""></div> 
                </div>","null","","","","","","","","","","","",""
"","","","","","html-button-response","152","576088","0.0-152.0","5E689FAB3C714B2793E322B0F4AA4AD6","019d6b19-e580-738f-bca6-bbdae8632500","019d6ae6-5d89-74c6-b581-3918d1816346","","602","
                <div class=""stimulus-container"">
                    <img src=""semantic_sequence_notimeline/animals_semantic/animals_semantic_5.png"" class=""exp-image"">
                    <div class=""question-area"">
                        <p style=""font-size: 20px; font-weight: bold; margin: 0;"">Is there a person in this image?</p>
                    </div>
                </div>","1","main_experiment_trial","5","animals_semantic","semantic_sequence_notimeline","chronological","","","","","","",""
"","","","","","html-keyboard-response","153","581091","0.0-153.0","5E689FAB3C714B2793E322B0F4AA4AD6","019d6b19-e580-738f-bca6-bbdae8632500","019d6ae6-5d89-74c6-b581-3918d1816346","","null","
                <div class=""stimulus-container"">
                    <img src=""semantic_sequence_notimeline/animals_semantic/animals_semantic_6.png"" class=""exp-image"">
                    <div class=""question-area""></div> 
                </div>","null","","","","","","","","","","","",""
"","","","","","html-button-response","154","582057","0.0-154.0","5E689FAB3C714B2793E322B0F4AA4AD6","019d6b19-e580-738f-bca6-bbdae8632500","019d6ae6-5d89-74c6-b581-3918d1816346","","965","
                <div class=""stimulus-container"">
                    <img src=""semantic_sequence_notimeline/animals_semantic/animals_semantic_6.png"" class=""exp-image"">
                    <div class=""question-area"">
                        <p style=""font-size: 20px; font-weight: bold; margin: 0;"">Is there a person in this image?</p>
                    </div>
                </div>","1","main_experiment_trial","6","animals_semantic","semantic_sequence_notimeline","chronological","","","","","","",""
"","","","","","html-keyboard-response","155","587058","0.0-155.0","5E689FAB3C714B2793E322B0F4AA4AD6","019d6b19-e580-738f-bca6-bbdae8632500","019d6ae6-5d89-74c6-b581-3918d1816346","","null","
                <div class=""stimulus-container"">
                    <img src=""semantic_sequence_notimeline/animals_semantic/animals_semantic_7.png"" class=""exp-image"">
                    <div class=""question-area""></div> 
                </div>","null","","","","","","","","","","","",""
"","","","","","html-button-response","156","587837","0.0-156.0","5E689FAB3C714B2793E322B0F4AA4AD6","019d6b19-e580-738f-bca6-bbdae8632500","019d6ae6-5d89-74c6-b581-3918d1816346","","778","
                <div class=""stimulus-container"">
                    <img src=""semantic_sequence_notimeline/animals_semantic/animals_semantic_7.png"" class=""exp-image"">
                    <div class=""question-area"">
                        <p style=""font-size: 20px; font-weight: bold; margin: 0;"">Is there a person in this image?</p>
                    </div>
                </div>","1","main_experiment_trial","7","animals_semantic","semantic_sequence_notimeline","chronological","","","","","","",""
"","","","","","html-keyboard-response","157","592839","0.0-157.0","5E689FAB3C714B2793E322B0F4AA4AD6","019d6b19-e580-738f-bca6-bbdae8632500","019d6ae6-5d89-74c6-b581-3918d1816346","","null","
                <div class=""stimulus-container"">
                    <img src=""semantic_sequence_notimeline/animals_semantic/animals_semantic_8.png"" class=""exp-image"">
                    <div class=""question-area""></div> 
                </div>","null","","","","","","","","","","","",""
"","","","","","html-button-response","158","593898","0.0-158.0","5E689FAB3C714B2793E322B0F4AA4AD6","019d6b19-e580-738f-bca6-bbdae8632500","019d6ae6-5d89-74c6-b581-3918d1816346","","1058","
                <div class=""stimulus-container"">
                    <img src=""semantic_sequence_notimeline/animals_semantic/animals_semantic_8.png"" class=""exp-image"">
                    <div class=""question-area"">
                        <p style=""font-size: 20px; font-weight: bold; margin: 0;"">Is there a person in this image?</p>
                    </div>
                </div>","1","main_experiment_trial","8","animals_semantic","semantic_sequence_notimeline","chronological","","","","","","",""
"","","","","","html-keyboard-response","159","598900","0.0-159.0","5E689FAB3C714B2793E322B0F4AA4AD6","019d6b19-e580-738f-bca6-bbdae8632500","019d6ae6-5d89-74c6-b581-3918d1816346","","null","
                <div class=""stimulus-container"">
                    <img src=""semantic_sequence_notimeline/animals_semantic/animals_semantic_9.png"" class=""exp-image"">
                    <div class=""question-area""></div> 
                </div>","null","","","","","","","","","","","",""
"","","","","","html-button-response","160","600500","0.0-160.0","5E689FAB3C714B2793E322B0F4AA4AD6","019d6b19-e580-738f-bca6-bbdae8632500","019d6ae6-5d89-74c6-b581-3918d1816346","","1597","
                <div class=""stimulus-container"">
                    <img src=""semantic_sequence_notimeline/animals_semantic/animals_semantic_9.png"" class=""exp-image"">
                    <div class=""question-area"">
                        <p style=""font-size: 20px; font-weight: bold; margin: 0;"">Is there a person in this image?</p>
                    </div>
                </div>","1","main_experiment_trial","9","animals_semantic","semantic_sequence_notimeline","chronological","","","","","","",""
"","","","","","html-keyboard-response","161","605503","0.0-161.0","5E689FAB3C714B2793E322B0F4AA4AD6","019d6b19-e580-738f-bca6-bbdae8632500","019d6ae6-5d89-74c6-b581-3918d1816346","","null","
                <div class=""stimulus-container"">
                    <img src=""semantic_sequence_notimeline/animals_semantic/animals_semantic_ten.png"" class=""exp-image"">
                    <div class=""question-area""></div> 
                </div>","null","","","","","","","","","","","",""
"","","","","","html-button-response","162","606366","0.0-162.0","5E689FAB3C714B2793E322B0F4AA4AD6","019d6b19-e580-738f-bca6-bbdae8632500","019d6ae6-5d89-74c6-b581-3918d1816346","","861","
                <div class=""stimulus-container"">
                    <img src=""semantic_sequence_notimeline/animals_semantic/animals_semantic_ten.png"" class=""exp-image"">
                    <div class=""question-area"">
                        <p style=""font-size: 20px; font-weight: bold; margin: 0;"">Is there a person in this image?</p>
                    </div>
                </div>","1","main_experiment_trial","ten","animals_semantic","semantic_sequence_notimeline","chronological","","","","","","",""
"","","","","","html-keyboard-response","163","611367","0.0-163.0","5E689FAB3C714B2793E322B0F4AA4AD6","019d6b19-e580-738f-bca6-bbdae8632500","019d6ae6-5d89-74c6-b581-3918d1816346","","null","<div style=""background-color: white; width: 100vw; height: 100vh;""></div>","null","","","","","","","","","","","",""
"","","","","","html-keyboard-response","164","616369","0.0-164.0","5E689FAB3C714B2793E322B0F4AA4AD6","019d6b19-e580-738f-bca6-bbdae8632500","019d6ae6-5d89-74c6-b581-3918d1816346","","null","
                <div class=""stimulus-container"">
                    <img src=""images/causal_sequence/museum_causal/museum_causal_1.png"" class=""exp-image"">
                    <div class=""question-area""></div> 
                </div>","null","","","","","","","","","","","",""
"","","","","","html-button-response","165","617573","0.0-165.0","5E689FAB3C714B2793E322B0F4AA4AD6","019d6b19-e580-738f-bca6-bbdae8632500","019d6ae6-5d89-74c6-b581-3918d1816346","","1202","
                <div class=""stimulus-container"">
                    <img src=""images/causal_sequence/museum_causal/museum_causal_1.png"" class=""exp-image"">
                    <div class=""question-area"">
                        <p style=""font-size: 20px; font-weight: bold; margin: 0;"">Is there a person in this image?</p>
                    </div>
                </div>","0","main_experiment_trial","1","museum_causal","causal_sequence","chronological","","","","","","",""
"","","","","","html-keyboard-response","166","622575","0.0-166.0","5E689FAB3C714B2793E322B0F4AA4AD6","019d6b19-e580-738f-bca6-bbdae8632500","019d6ae6-5d89-74c6-b581-3918d1816346","","null","
                <div class=""stimulus-container"">
                    <img src=""images/causal_sequence/museum_causal/museum_causal_2.png"" class=""exp-image"">
                    <div class=""question-area""></div> 
                </div>","null","","","","","","","","","","","",""
"","","","","","html-button-response","167","623349","0.0-167.0","5E689FAB3C714B2793E322B0F4AA4AD6","019d6b19-e580-738f-bca6-bbdae8632500","019d6ae6-5d89-74c6-b581-3918d1816346","","773","
                <div class=""stimulus-container"">
                    <img src=""images/causal_sequence/museum_causal/museum_causal_2.png"" class=""exp-image"">
                    <div class=""question-area"">
                        <p style=""font-size: 20px; font-weight: bold; margin: 0;"">Is there a person in this image?</p>
                    </div>
                </div>","0","main_experiment_trial","2","museum_causal","causal_sequence","chronological","","","","","","",""
"","","","","","html-keyboard-response","168","628351","0.0-168.0","5E689FAB3C714B2793E322B0F4AA4AD6","019d6b19-e580-738f-bca6-bbdae8632500","019d6ae6-5d89-74c6-b581-3918d1816346","","null","
                <div class=""stimulus-container"">
                    <img src=""images/causal_sequence/museum_causal/museum_causal_3.png"" class=""exp-image"">
                    <div class=""question-area""></div> 
                </div>","null","","","","","","","","","","","",""
"","","","","","html-button-response","169","628880","0.0-169.0","5E689FAB3C714B2793E322B0F4AA4AD6","019d6b19-e580-738f-bca6-bbdae8632500","019d6ae6-5d89-74c6-b581-3918d1816346","","528","
                <div class=""stimulus-container"">
                    <img src=""images/causal_sequence/museum_causal/museum_causal_3.png"" class=""exp-image"">
                    <div class=""question-area"">
                        <p style=""font-size: 20px; font-weight: bold; margin: 0;"">Is there a person in this image?</p>
                    </div>
                </div>","0","main_experiment_trial","3","museum_causal","causal_sequence","chronological","","","","","","",""
"","","","","","html-keyboard-response","170","633882","0.0-170.0","5E689FAB3C714B2793E322B0F4AA4AD6","019d6b19-e580-738f-bca6-bbdae8632500","019d6ae6-5d89-74c6-b581-3918d1816346","","null","
                <div class=""stimulus-container"">
                    <img src=""images/causal_sequence/museum_causal/museum_causal_4.png"" class=""exp-image"">
                    <div class=""question-area""></div> 
                </div>","null","","","","","","","","","","","",""
"","","","","","html-button-response","171","635065","0.0-171.0","5E689FAB3C714B2793E322B0F4AA4AD6","019d6b19-e580-738f-bca6-bbdae8632500","019d6ae6-5d89-74c6-b581-3918d1816346","","1183","
                <div class=""stimulus-container"">
                    <img src=""images/causal_sequence/museum_causal/museum_causal_4.png"" class=""exp-image"">
                    <div class=""question-area"">
                        <p style=""font-size: 20px; font-weight: bold; margin: 0;"">Is there a person in this image?</p>
                    </div>
                </div>","1","main_experiment_trial","4","museum_causal","causal_sequence","chronological","","","","","","",""
"","","","","","html-keyboard-response","172","640067","0.0-172.0","5E689FAB3C714B2793E322B0F4AA4AD6","019d6b19-e580-738f-bca6-bbdae8632500","019d6ae6-5d89-74c6-b581-3918d1816346","","null","
                <div class=""stimulus-container"">
                    <img src=""images/causal_sequence/museum_causal/museum_causal_5.png"" class=""exp-image"">
                    <div class=""question-area""></div> 
                </div>","null","","","","","","","","","","","",""
"","","","","","html-button-response","173","641116","0.0-173.0","5E689FAB3C714B2793E322B0F4AA4AD6","019d6b19-e580-738f-bca6-bbdae8632500","019d6ae6-5d89-74c6-b581-3918d1816346","","1048","
                <div class=""stimulus-container"">
                    <img src=""images/causal_sequence/museum_causal/museum_causal_5.png"" class=""exp-image"">
                    <div class=""question-area"">
                        <p style=""font-size: 20px; font-weight: bold; margin: 0;"">Is there a person in this image?</p>
                    </div>
                </div>","0","main_experiment_trial","5","museum_causal","causal_sequence","chronological","","","","","","",""
"","","","","","html-keyboard-response","174","646118","0.0-174.0","5E689FAB3C714B2793E322B0F4AA4AD6","019d6b19-e580-738f-bca6-bbdae8632500","019d6ae6-5d89-74c6-b581-3918d1816346","","null","
                <div class=""stimulus-container"">
                    <img src=""images/causal_sequence/museum_causal/museum_causal_6.png"" class=""exp-image"">
                    <div class=""question-area""></div> 
                </div>","null","","","","","","","","","","","",""
"","","","","","html-button-response","175","648123","0.0-175.0","5E689FAB3C714B2793E322B0F4AA4AD6","019d6b19-e580-738f-bca6-bbdae8632500","019d6ae6-5d89-74c6-b581-3918d1816346","","2003","
                <div class=""stimulus-container"">
                    <img src=""images/causal_sequence/museum_causal/museum_causal_6.png"" class=""exp-image"">
                    <div class=""question-area"">
                        <p style=""font-size: 20px; font-weight: bold; margin: 0;"">Is there a person in this image?</p>
                    </div>
                </div>","0","main_experiment_trial","6","museum_causal","causal_sequence","chronological","","","","","","",""
"","","","","","html-keyboard-response","176","653125","0.0-176.0","5E689FAB3C714B2793E322B0F4AA4AD6","019d6b19-e580-738f-bca6-bbdae8632500","019d6ae6-5d89-74c6-b581-3918d1816346","","null","
                <div class=""stimulus-container"">
                    <img src=""images/causal_sequence/museum_causal/museum_causal_7.png"" class=""exp-image"">
                    <div class=""question-area""></div> 
                </div>","null","","","","","","","","","","","",""
"","","","","","html-button-response","177","653857","0.0-177.0","5E689FAB3C714B2793E322B0F4AA4AD6","019d6b19-e580-738f-bca6-bbdae8632500","019d6ae6-5d89-74c6-b581-3918d1816346","","731","
                <div class=""stimulus-container"">
                    <img src=""images/causal_sequence/museum_causal/museum_causal_7.png"" class=""exp-image"">
                    <div class=""question-area"">
