"success","timeout","failed_images","failed_audio","failed_video","trial_type","trial_index","time_elapsed","internal_node_id","subject_id","study_id","session_id","view_history","rt","stimulus","response","task","image_index","folder","sequence_type","presentation_order","valuable_image_index","reward_type","correct_choice","distance_from_x","target_X","chosen_image_index","is_x_plus_dist"
"true","false","[]","[]","[]","preload","0","5214","0.0-0.0","B141EBC545E34693805D45B8E42F96B0","019dac6d-dff1-738a-936f-cf065820d608","019dac5b-243f-7307-af64-a10f53f1ef70","","","","","","","","","","","","","","","",""
"","","","","","instructions","1","45301","0.0-1.0","B141EBC545E34693805D45B8E42F96B0","019dac6d-dff1-738a-936f-cf065820d608","019dac5b-243f-7307-af64-a10f53f1ef70","[{""page_index"":0,""viewing_time"":40086}]","40086","","","","","","","","","","","","","",""
"","","","","","instructions","2","54216","0.0-2.0","B141EBC545E34693805D45B8E42F96B0","019dac6d-dff1-738a-936f-cf065820d608","019dac5b-243f-7307-af64-a10f53f1ef70","[{""page_index"":0,""viewing_time"":8913}]","8914","","","","","","","","","","","","","",""
"true","","","","","fullscreen","3","59254","0.0-3.0","B141EBC545E34693805D45B8E42F96B0","019dac6d-dff1-738a-936f-cf065820d608","019dac5b-243f-7307-af64-a10f53f1ef70","","4030","","","","","","","","","","","","","",""
"","","","","","instructions","4","72681","0.0-4.0","B141EBC545E34693805D45B8E42F96B0","019dac6d-dff1-738a-936f-cf065820d608","019dac5b-243f-7307-af64-a10f53f1ef70","[{""page_index"":0,""viewing_time"":13425}]","13426","","","","","","","","","","","","","",""
"","","","","","instructions","5","83298","0.0-5.0","B141EBC545E34693805D45B8E42F96B0","019dac6d-dff1-738a-936f-cf065820d608","019dac5b-243f-7307-af64-a10f53f1ef70","[{""page_index"":0,""viewing_time"":10612}]","10612","","","","","","","","","","","","","",""
"","","","","","html-keyboard-response","6","87503","0.0-6.0","B141EBC545E34693805D45B8E42F96B0","019dac6d-dff1-738a-936f-cf065820d608","019dac5b-243f-7307-af64-a10f53f1ef70","","null","
                <div class=""stimulus-container"">
                    <img src=""images/instructions/movie_1.png"" class=""exp-image"">
                    <div class=""question-area""></div> 
                </div>","null","","","","","","","","","","","",""
"","","","","","html-button-response","7","88765","0.0-7.0","B141EBC545E34693805D45B8E42F96B0","019dac6d-dff1-738a-936f-cf065820d608","019dac5b-243f-7307-af64-a10f53f1ef70","","1260","
                <div class=""stimulus-container"">
                    <img src=""images/instructions/movie_1.png"" class=""exp-image"">
                    <div class=""question-area"">
                        <p style=""font-size: 20px; font-weight: bold; margin: 0;"">Was there a person in this image?</p>
                    </div>
                </div>","0","example_question","1","","","","","","","","","",""
"","","","","","html-keyboard-response","8","93187","0.0-8.0","B141EBC545E34693805D45B8E42F96B0","019dac6d-dff1-738a-936f-cf065820d608","019dac5b-243f-7307-af64-a10f53f1ef70","","null","
                <div class=""stimulus-container"">
                    <img src=""images/instructions/movie_2.png"" class=""exp-image"">
                    <div class=""question-area""></div> 
                </div>","null","","","","","","","","","","","",""
"","","","","","html-button-response","9","94499","0.0-9.0","B141EBC545E34693805D45B8E42F96B0","019dac6d-dff1-738a-936f-cf065820d608","019dac5b-243f-7307-af64-a10f53f1ef70","","1309","
                <div class=""stimulus-container"">
                    <img src=""images/instructions/movie_2.png"" class=""exp-image"">
                    <div class=""question-area"">
                        <p style=""font-size: 20px; font-weight: bold; margin: 0;"">Was there a person in this image?</p>
                    </div>
                </div>","0","example_question","2","","","","","","","","","",""
"","","","","","html-keyboard-response","10","98505","0.0-10.0","B141EBC545E34693805D45B8E42F96B0","019dac6d-dff1-738a-936f-cf065820d608","019dac5b-243f-7307-af64-a10f53f1ef70","","null","
                <div class=""stimulus-container"">
                    <img src=""images/instructions/movie_3.png"" class=""exp-image"">
                    <div class=""question-area""></div> 
                </div>","null","","","","","","","","","","","",""
"","","","","","html-button-response","11","99382","0.0-11.0","B141EBC545E34693805D45B8E42F96B0","019dac6d-dff1-738a-936f-cf065820d608","019dac5b-243f-7307-af64-a10f53f1ef70","","875","
                <div class=""stimulus-container"">
                    <img src=""images/instructions/movie_3.png"" class=""exp-image"">
                    <div class=""question-area"">
                        <p style=""font-size: 20px; font-weight: bold; margin: 0;"">Was there a person in this image?</p>
                    </div>
                </div>","0","example_question","3","","","","","","","","","",""
"","","","","","html-keyboard-response","12","103387","0.0-12.0","B141EBC545E34693805D45B8E42F96B0","019dac6d-dff1-738a-936f-cf065820d608","019dac5b-243f-7307-af64-a10f53f1ef70","","null","
                <div class=""stimulus-container"">
                    <img src=""images/instructions/movie_4.png"" class=""exp-image"">
                    <div class=""question-area""></div> 
                </div>","null","","","","","","","","","","","",""
"","","","","","html-button-response","13","104131","0.0-13.0","B141EBC545E34693805D45B8E42F96B0","019dac6d-dff1-738a-936f-cf065820d608","019dac5b-243f-7307-af64-a10f53f1ef70","","742","
                <div class=""stimulus-container"">
                    <img src=""images/instructions/movie_4.png"" class=""exp-image"">
                    <div class=""question-area"">
                        <p style=""font-size: 20px; font-weight: bold; margin: 0;"">Was there a person in this image?</p>
                    </div>
                </div>","0","example_question","4","","","","","","","","","",""
"","","","","","instructions","14","106148","0.0-14.0","B141EBC545E34693805D45B8E42F96B0","019dac6d-dff1-738a-936f-cf065820d608","019dac5b-243f-7307-af64-a10f53f1ef70","[{""page_index"":0,""viewing_time"":2015}]","2016","","","","","","","","","","","","","",""
"","","","","","instructions","15","111830","0.0-15.0","B141EBC545E34693805D45B8E42F96B0","019dac6d-dff1-738a-936f-cf065820d608","019dac5b-243f-7307-af64-a10f53f1ef70","[{""page_index"":0,""viewing_time"":5680}]","5680","","","","","","","","","","","","","",""
"","","","","","html-keyboard-response","16","116837","0.0-16.0","B141EBC545E34693805D45B8E42F96B0","019dac6d-dff1-738a-936f-cf065820d608","019dac5b-243f-7307-af64-a10f53f1ef70","","null","<div style=""background-color: white; width: 100vw; height: 100vh;""></div>","null","","","","","","","","","","","",""
"","","","","","html-keyboard-response","17","121844","0.0-17.0","B141EBC545E34693805D45B8E42F96B0","019dac6d-dff1-738a-936f-cf065820d608","019dac5b-243f-7307-af64-a10f53f1ef70","","null","
                <div class=""stimulus-container"">
                    <img src=""images/semantic_sequence/kitchen_operations_semantic/kitchen_operations_semantic_1.png"" class=""exp-image"">
                    <div class=""question-area""></div> 
                </div>","null","","","","","","","","","","","",""
"","","","","","html-button-response","18","123481","0.0-18.0","B141EBC545E34693805D45B8E42F96B0","019dac6d-dff1-738a-936f-cf065820d608","019dac5b-243f-7307-af64-a10f53f1ef70","","1636","
                <div class=""stimulus-container"">
                    <img src=""images/semantic_sequence/kitchen_operations_semantic/kitchen_operations_semantic_1.png"" class=""exp-image"">
                    <div class=""question-area"">
                        <p style=""font-size: 20px; font-weight: bold; margin: 0;"">Is there a person in this image?</p>
                    </div>
                </div>","0","main_experiment_trial","1","kitchen_operations_semantic","semantic_sequence","chronological","","","","","","",""
"","","","","","html-keyboard-response","19","128488","0.0-19.0","B141EBC545E34693805D45B8E42F96B0","019dac6d-dff1-738a-936f-cf065820d608","019dac5b-243f-7307-af64-a10f53f1ef70","","null","
                <div class=""stimulus-container"">
                    <img src=""images/semantic_sequence/kitchen_operations_semantic/kitchen_operations_semantic_2.png"" class=""exp-image"">
                    <div class=""question-area""></div> 
                </div>","null","","","","","","","","","","","",""
"","","","","","html-button-response","20","129448","0.0-20.0","B141EBC545E34693805D45B8E42F96B0","019dac6d-dff1-738a-936f-cf065820d608","019dac5b-243f-7307-af64-a10f53f1ef70","","958","
                <div class=""stimulus-container"">
                    <img src=""images/semantic_sequence/kitchen_operations_semantic/kitchen_operations_semantic_2.png"" class=""exp-image"">
                    <div class=""question-area"">
                        <p style=""font-size: 20px; font-weight: bold; margin: 0;"">Is there a person in this image?</p>
                    </div>
                </div>","0","main_experiment_trial","2","kitchen_operations_semantic","semantic_sequence","chronological","","","","","","",""
"","","","","","html-keyboard-response","21","134454","0.0-21.0","B141EBC545E34693805D45B8E42F96B0","019dac6d-dff1-738a-936f-cf065820d608","019dac5b-243f-7307-af64-a10f53f1ef70","","null","
                <div class=""stimulus-container"">
                    <img src=""images/semantic_sequence/kitchen_operations_semantic/kitchen_operations_semantic_3.png"" class=""exp-image"">
                    <div class=""question-area""></div> 
                </div>","null","","","","","","","","","","","",""
"","","","","","html-button-response","22","135347","0.0-22.0","B141EBC545E34693805D45B8E42F96B0","019dac6d-dff1-738a-936f-cf065820d608","019dac5b-243f-7307-af64-a10f53f1ef70","","893","
                <div class=""stimulus-container"">
                    <img src=""images/semantic_sequence/kitchen_operations_semantic/kitchen_operations_semantic_3.png"" class=""exp-image"">
                    <div class=""question-area"">
                        <p style=""font-size: 20px; font-weight: bold; margin: 0;"">Is there a person in this image?</p>
                    </div>
                </div>","0","main_experiment_trial","3","kitchen_operations_semantic","semantic_sequence","chronological","","","","","","",""
"","","","","","html-keyboard-response","23","140354","0.0-23.0","B141EBC545E34693805D45B8E42F96B0","019dac6d-dff1-738a-936f-cf065820d608","019dac5b-243f-7307-af64-a10f53f1ef70","","null","
                <div class=""stimulus-container"">
                    <img src=""images/semantic_sequence/kitchen_operations_semantic/kitchen_operations_semantic_4.png"" class=""exp-image"">
                    <div class=""question-area""></div> 
                </div>","null","","","","","","","","","","","",""
"","","","","","html-button-response","24","141131","0.0-24.0","B141EBC545E34693805D45B8E42F96B0","019dac6d-dff1-738a-936f-cf065820d608","019dac5b-243f-7307-af64-a10f53f1ef70","","774","
                <div class=""stimulus-container"">
                    <img src=""images/semantic_sequence/kitchen_operations_semantic/kitchen_operations_semantic_4.png"" class=""exp-image"">
                    <div class=""question-area"">
                        <p style=""font-size: 20px; font-weight: bold; margin: 0;"">Is there a person in this image?</p>
                    </div>
                </div>","0","main_experiment_trial","4","kitchen_operations_semantic","semantic_sequence","chronological","","","","","","",""
"","","","","","html-keyboard-response","25","146470","0.0-25.0","B141EBC545E34693805D45B8E42F96B0","019dac6d-dff1-738a-936f-cf065820d608","019dac5b-243f-7307-af64-a10f53f1ef70","","null","
                <div class=""stimulus-container"">
                    <img src=""images/semantic_sequence/kitchen_operations_semantic/kitchen_operations_semantic_5.png"" class=""exp-image"">
                    <div class=""question-area""></div> 
                </div>","null","","","","","","","","","","","",""
"","","","","","html-button-response","26","147180","0.0-26.0","B141EBC545E34693805D45B8E42F96B0","019dac6d-dff1-738a-936f-cf065820d608","019dac5b-243f-7307-af64-a10f53f1ef70","","711","
                <div class=""stimulus-container"">
                    <img src=""images/semantic_sequence/kitchen_operations_semantic/kitchen_operations_semantic_5.png"" class=""exp-image"">
                    <div class=""question-area"">
                        <p style=""font-size: 20px; font-weight: bold; margin: 0;"">Is there a person in this image?</p>
                    </div>
                </div>","0","main_experiment_trial","5","kitchen_operations_semantic","semantic_sequence","chronological","","","","","","",""
"","","","","","html-keyboard-response","27","152353","0.0-27.0","B141EBC545E34693805D45B8E42F96B0","019dac6d-dff1-738a-936f-cf065820d608","019dac5b-243f-7307-af64-a10f53f1ef70","","null","
                <div class=""stimulus-container"">
                    <img src=""images/semantic_sequence/kitchen_operations_semantic/kitchen_operations_semantic_6.png"" class=""exp-image"">
                    <div class=""question-area""></div> 
                </div>","null","","","","","","","","","","","",""
"","","","","","html-button-response","28","152964","0.0-28.0","B141EBC545E34693805D45B8E42F96B0","019dac6d-dff1-738a-936f-cf065820d608","019dac5b-243f-7307-af64-a10f53f1ef70","","610","
                <div class=""stimulus-container"">
                    <img src=""images/semantic_sequence/kitchen_operations_semantic/kitchen_operations_semantic_6.png"" class=""exp-image"">
                    <div class=""question-area"">
                        <p style=""font-size: 20px; font-weight: bold; margin: 0;"">Is there a person in this image?</p>
                    </div>
                </div>","0","main_experiment_trial","6","kitchen_operations_semantic","semantic_sequence","chronological","","","","","","",""
"","","","","","html-keyboard-response","29","158336","0.0-29.0","B141EBC545E34693805D45B8E42F96B0","019dac6d-dff1-738a-936f-cf065820d608","019dac5b-243f-7307-af64-a10f53f1ef70","","null","
                <div class=""stimulus-container"">
                    <img src=""images/semantic_sequence/kitchen_operations_semantic/kitchen_operations_semantic_7.png"" class=""exp-image"">
                    <div class=""question-area""></div> 
                </div>","null","","","","","","","","","","","",""
"","","","","","html-button-response","30","159015","0.0-30.0","B141EBC545E34693805D45B8E42F96B0","019dac6d-dff1-738a-936f-cf065820d608","019dac5b-243f-7307-af64-a10f53f1ef70","","677","
                <div class=""stimulus-container"">
                    <img src=""images/semantic_sequence/kitchen_operations_semantic/kitchen_operations_semantic_7.png"" class=""exp-image"">
                    <div class=""question-area"">
                        <p style=""font-size: 20px; font-weight: bold; margin: 0;"">Is there a person in this image?</p>
                    </div>
                </div>","0","main_experiment_trial","7","kitchen_operations_semantic","semantic_sequence","chronological","","","","","","",""
"","","","","","html-keyboard-response","31","164021","0.0-31.0","B141EBC545E34693805D45B8E42F96B0","019dac6d-dff1-738a-936f-cf065820d608","019dac5b-243f-7307-af64-a10f53f1ef70","","null","
                <div class=""stimulus-container"">
                    <img src=""images/semantic_sequence/kitchen_operations_semantic/kitchen_operations_semantic_8.png"" class=""exp-image"">
                    <div class=""question-area""></div> 
                </div>","null","","","","","","","","","","","",""
"","","","","","html-button-response","32","164681","0.0-32.0","B141EBC545E34693805D45B8E42F96B0","019dac6d-dff1-738a-936f-cf065820d608","019dac5b-243f-7307-af64-a10f53f1ef70","","658","
                <div class=""stimulus-container"">
                    <img src=""images/semantic_sequence/kitchen_operations_semantic/kitchen_operations_semantic_8.png"" class=""exp-image"">
                    <div class=""question-area"">
                        <p style=""font-size: 20px; font-weight: bold; margin: 0;"">Is there a person in this image?</p>
                    </div>
                </div>","0","main_experiment_trial","8","kitchen_operations_semantic","semantic_sequence","chronological","","","","","","",""
"","","","","","html-keyboard-response","33","169691","0.0-33.0","B141EBC545E34693805D45B8E42F96B0","019dac6d-dff1-738a-936f-cf065820d608","019dac5b-243f-7307-af64-a10f53f1ef70","","null","
                <div class=""stimulus-container"">
                    <img src=""images/semantic_sequence/kitchen_operations_semantic/kitchen_operations_semantic_9.png"" class=""exp-image"">
                    <div class=""question-area""></div> 
                </div>","null","","","","","","","","","","","",""
"","","","","","html-button-response","34","170363","0.0-34.0","B141EBC545E34693805D45B8E42F96B0","019dac6d-dff1-738a-936f-cf065820d608","019dac5b-243f-7307-af64-a10f53f1ef70","","672","
                <div class=""stimulus-container"">
                    <img src=""images/semantic_sequence/kitchen_operations_semantic/kitchen_operations_semantic_9.png"" class=""exp-image"">
                    <div class=""question-area"">
                        <p style=""font-size: 20px; font-weight: bold; margin: 0;"">Is there a person in this image?</p>
                    </div>
                </div>","0","main_experiment_trial","9","kitchen_operations_semantic","semantic_sequence","chronological","","","","","","",""
"","","","","","html-keyboard-response","35","175371","0.0-35.0","B141EBC545E34693805D45B8E42F96B0","019dac6d-dff1-738a-936f-cf065820d608","019dac5b-243f-7307-af64-a10f53f1ef70","","null","
                <div class=""stimulus-container"">
                    <img src=""images/semantic_sequence/kitchen_operations_semantic/kitchen_operations_semantic_ten.png"" class=""exp-image"">
                    <div class=""question-area""></div> 
                </div>","null","","","","","","","","","","","",""
"","","","","","html-button-response","36","176213","0.0-36.0","B141EBC545E34693805D45B8E42F96B0","019dac6d-dff1-738a-936f-cf065820d608","019dac5b-243f-7307-af64-a10f53f1ef70","","842","
                <div class=""stimulus-container"">
                    <img src=""images/semantic_sequence/kitchen_operations_semantic/kitchen_operations_semantic_ten.png"" class=""exp-image"">
                    <div class=""question-area"">
                        <p style=""font-size: 20px; font-weight: bold; margin: 0;"">Is there a person in this image?</p>
                    </div>
                </div>","0","main_experiment_trial","ten","kitchen_operations_semantic","semantic_sequence","chronological","","","","","","",""
"","","","","","html-keyboard-response","37","181344","0.0-37.0","B141EBC545E34693805D45B8E42F96B0","019dac6d-dff1-738a-936f-cf065820d608","019dac5b-243f-7307-af64-a10f53f1ef70","","null","<div style=""background-color: white; width: 100vw; height: 100vh;""></div>","null","","","","","","","","","","","",""
"","","","","","html-keyboard-response","38","186555","0.0-38.0","B141EBC545E34693805D45B8E42F96B0","019dac6d-dff1-738a-936f-cf065820d608","019dac5b-243f-7307-af64-a10f53f1ef70","","null","
                <div class=""stimulus-container"">
                    <img src=""images/causal_sequence/museum_causal/museum_causal_1.png"" class=""exp-image"">
                    <div class=""question-area""></div> 
                </div>","null","","","","","","","","","","","",""
"","","","","","html-button-response","39","187713","0.0-39.0","B141EBC545E34693805D45B8E42F96B0","019dac6d-dff1-738a-936f-cf065820d608","019dac5b-243f-7307-af64-a10f53f1ef70","","1157","
                <div class=""stimulus-container"">
                    <img src=""images/causal_sequence/museum_causal/museum_causal_1.png"" class=""exp-image"">
                    <div class=""question-area"">
                        <p style=""font-size: 20px; font-weight: bold; margin: 0;"">Is there a person in this image?</p>
                    </div>
                </div>","0","main_experiment_trial","1","museum_causal","causal_sequence","chronological","","","","","","",""
"","","","","","html-keyboard-response","40","192769","0.0-40.0","B141EBC545E34693805D45B8E42F96B0","019dac6d-dff1-738a-936f-cf065820d608","019dac5b-243f-7307-af64-a10f53f1ef70","","null","
                <div class=""stimulus-container"">
                    <img src=""images/causal_sequence/museum_causal/museum_causal_2.png"" class=""exp-image"">
                    <div class=""question-area""></div> 
                </div>","null","","","","","","","","","","","",""
"","","","","","html-button-response","41","193597","0.0-41.0","B141EBC545E34693805D45B8E42F96B0","019dac6d-dff1-738a-936f-cf065820d608","019dac5b-243f-7307-af64-a10f53f1ef70","","826","
                <div class=""stimulus-container"">
                    <img src=""images/causal_sequence/museum_causal/museum_causal_2.png"" class=""exp-image"">
                    <div class=""question-area"">
                        <p style=""font-size: 20px; font-weight: bold; margin: 0;"">Is there a person in this image?</p>
                    </div>
                </div>","1","main_experiment_trial","2","museum_causal","causal_sequence","chronological","","","","","","",""
"","","","","","html-keyboard-response","42","198639","0.0-42.0","B141EBC545E34693805D45B8E42F96B0","019dac6d-dff1-738a-936f-cf065820d608","019dac5b-243f-7307-af64-a10f53f1ef70","","null","
                <div class=""stimulus-container"">
                    <img src=""images/causal_sequence/museum_causal/museum_causal_3.png"" class=""exp-image"">
                    <div class=""question-area""></div> 
                </div>","null","","","","","","","","","","","",""
"","","","","","html-button-response","43","199780","0.0-43.0","B141EBC545E34693805D45B8E42F96B0","019dac6d-dff1-738a-936f-cf065820d608","019dac5b-243f-7307-af64-a10f53f1ef70","","1138","
                <div class=""stimulus-container"">
                    <img src=""images/causal_sequence/museum_causal/museum_causal_3.png"" class=""exp-image"">
                    <div class=""question-area"">
                        <p style=""font-size: 20px; font-weight: bold; margin: 0;"">Is there a person in this image?</p>
                    </div>
                </div>","0","main_experiment_trial","3","museum_causal","causal_sequence","chronological","","","","","","",""
"","","","","","html-keyboard-response","44","204787","0.0-44.0","B141EBC545E34693805D45B8E42F96B0","019dac6d-dff1-738a-936f-cf065820d608","019dac5b-243f-7307-af64-a10f53f1ef70","","null","
                <div class=""stimulus-container"">
                    <img src=""images/causal_sequence/museum_causal/museum_causal_4.png"" class=""exp-image"">
                    <div class=""question-area""></div> 
                </div>","null","","","","","","","","","","","",""
"","","","","","html-button-response","45","205614","0.0-45.0","B141EBC545E34693805D45B8E42F96B0","019dac6d-dff1-738a-936f-cf065820d608","019dac5b-243f-7307-af64-a10f53f1ef70","","826","
                <div class=""stimulus-container"">
                    <img src=""images/causal_sequence/museum_causal/museum_causal_4.png"" class=""exp-image"">
                    <div class=""question-area"">
                        <p style=""font-size: 20px; font-weight: bold; margin: 0;"">Is there a person in this image?</p>
                    </div>
                </div>","1","main_experiment_trial","4","museum_causal","causal_sequence","chronological","","","","","","",""
"","","","","","html-keyboard-response","46","210619","0.0-46.0","B141EBC545E34693805D45B8E42F96B0","019dac6d-dff1-738a-936f-cf065820d608","019dac5b-243f-7307-af64-a10f53f1ef70","","null","
                <div class=""stimulus-container"">
                    <img src=""images/causal_sequence/museum_causal/museum_causal_5.png"" class=""exp-image"">
                    <div class=""question-area""></div> 
                </div>","null","","","","","","","","","","","",""
"","","","","","html-button-response","47","211463","0.0-47.0","B141EBC545E34693805D45B8E42F96B0","019dac6d-dff1-738a-936f-cf065820d608","019dac5b-243f-7307-af64-a10f53f1ef70","","842","
                <div class=""stimulus-container"">
                    <img src=""images/causal_sequence/museum_causal/museum_causal_5.png"" class=""exp-image"">
                    <div class=""question-area"">
                        <p style=""font-size: 20px; font-weight: bold; margin: 0;"">Is there a person in this image?</p>
                    </div>
                </div>","0","main_experiment_trial","5","museum_causal","causal_sequence","chronological","","","","","","",""
"","","","","","html-keyboard-response","48","216865","0.0-48.0","B141EBC545E34693805D45B8E42F96B0","019dac6d-dff1-738a-936f-cf065820d608","019dac5b-243f-7307-af64-a10f53f1ef70","","null","
                <div class=""stimulus-container"">
                    <img src=""images/causal_sequence/museum_causal/museum_causal_6.png"" class=""exp-image"">
                    <div class=""question-area""></div> 
                </div>","null","","","","","","","","","","","",""
"","","","","","html-button-response","49","217730","0.0-49.0","B141EBC545E34693805D45B8E42F96B0","019dac6d-dff1-738a-936f-cf065820d608","019dac5b-243f-7307-af64-a10f53f1ef70","","863","
                <div class=""stimulus-container"">
                    <img src=""images/causal_sequence/museum_causal/museum_causal_6.png"" class=""exp-image"">
                    <div class=""question-area"">
                        <p style=""font-size: 20px; font-weight: bold; margin: 0;"">Is there a person in this image?</p>
                    </div>
                </div>","0","main_experiment_trial","6","museum_causal","causal_sequence","chronological","","","","","","",""
"","","","","","html-keyboard-response","50","222732","0.0-50.0","B141EBC545E34693805D45B8E42F96B0","019dac6d-dff1-738a-936f-cf065820d608","019dac5b-243f-7307-af64-a10f53f1ef70","","null","
                <div class=""stimulus-container"">
                    <img src=""images/causal_sequence/museum_causal/museum_causal_7.png"" class=""exp-image"">
                    <div class=""question-area""></div> 
                </div>","null","","","","","","","","","","","",""
"","","","","","html-button-response","51","224480","0.0-51.0","B141EBC545E34693805D45B8E42F96B0","019dac6d-dff1-738a-936f-cf065820d608","019dac5b-243f-7307-af64-a10f53f1ef70","","1748","
                <div class=""stimulus-container"">
                    <img src=""images/causal_sequence/museum_causal/museum_causal_7.png"" class=""exp-image"">
                    <div class=""question-area"">
                        <p style=""font-size: 20px; font-weight: bold; margin: 0;"">Is there a person in this image?</p>
                    </div>
                </div>","1","main_experiment_trial","7","museum_causal","causal_sequence","chronological","","","","","","",""
"","","","","","html-keyboard-response","52","229486","0.0-52.0","B141EBC545E34693805D45B8E42F96B0","019dac6d-dff1-738a-936f-cf065820d608","019dac5b-243f-7307-af64-a10f53f1ef70","","null","
                <div class=""stimulus-container"">
                    <img src=""images/causal_sequence/museum_causal/museum_causal_8.png"" class=""exp-image"">
                    <div class=""question-area""></div> 
                </div>","null","","","","","","","","","","","",""
"","","","","","html-button-response","53","231112","0.0-53.0","B141EBC545E34693805D45B8E42F96B0","019dac6d-dff1-738a-936f-cf065820d608","019dac5b-243f-7307-af64-a10f53f1ef70","","1626","
                <div class=""stimulus-container"">
                    <img src=""images/causal_sequence/museum_causal/museum_causal_8.png"" class=""exp-image"">
                    <div class=""question-area"">
                        <p style=""font-size: 20px; font-weight: bold; margin: 0;"">Is there a person in this image?</p>
                    </div>
                </div>","0","main_experiment_trial","8","museum_causal","causal_sequence","chronological","","","","","","",""
"","","","","","html-keyboard-response","54","236119","0.0-54.0","B141EBC545E34693805D45B8E42F96B0","019dac6d-dff1-738a-936f-cf065820d608","019dac5b-243f-7307-af64-a10f53f1ef70","","null","
                <div class=""stimulus-container"">
                    <img src=""images/causal_sequence/museum_causal/museum_causal_9.png"" class=""exp-image"">
                    <div class=""question-area""></div> 
                </div>","null","","","","","","","","","","","",""
"","","","","","html-button-response","55","236829","0.0-55.0","B141EBC545E34693805D45B8E42F96B0","019dac6d-dff1-738a-936f-cf065820d608","019dac5b-243f-7307-af64-a10f53f1ef70","","710","
                <div class=""stimulus-container"">
                    <img src=""images/causal_sequence/museum_causal/museum_causal_9.png"" class=""exp-image"">
                    <div class=""question-area"">
                        <p style=""font-size: 20px; font-weight: bold; margin: 0;"">Is there a person in this image?</p>
                    </div>
                </div>","1","main_experiment_trial","9","museum_causal","causal_sequence","chronological","","","","","","",""
"","","","","","html-keyboard-response","56","241836","0.0-56.0","B141EBC545E34693805D45B8E42F96B0","019dac6d-dff1-738a-936f-cf065820d608","019dac5b-243f-7307-af64-a10f53f1ef70","","null","
                <div class=""stimulus-container"">
                    <img src=""images/causal_sequence/museum_causal/museum_causal_ten.png"" class=""exp-image"">
                    <div class=""question-area""></div> 
                </div>","null","","","","","","","","","","","",""
"","","","","","html-button-response","57","242980","0.0-57.0","B141EBC545E34693805D45B8E42F96B0","019dac6d-dff1-738a-936f-cf065820d608","019dac5b-243f-7307-af64-a10f53f1ef70","","1143","
                <div class=""stimulus-container"">
                    <img src=""images/causal_sequence/museum_causal/museum_causal_ten.png"" class=""exp-image"">
                    <div class=""question-area"">
                        <p style=""font-size: 20px; font-weight: bold; margin: 0;"">Is there a person in this image?</p>
                    </div>
                </div>","0","main_experiment_trial","ten","museum_causal","causal_sequence","chronological","","","","","","",""
"","","","","","html-keyboard-response","58","247987","0.0-58.0","B141EBC545E34693805D45B8E42F96B0","019dac6d-dff1-738a-936f-cf065820d608","019dac5b-243f-7307-af64-a10f53f1ef70","","null","<div style=""background-color: white; width: 100vw; height: 100vh;""></div>","null","","","","","","","","","","","",""
"","","","","","html-keyboard-response","59","253319","0.0-59.0","B141EBC545E34693805D45B8E42F96B0","019dac6d-dff1-738a-936f-cf065820d608","019dac5b-243f-7307-af64-a10f53f1ef70","","null","
                <div class=""stimulus-container"">
                    <img src=""images/semantic_sequence/maintaining_a_car_semantic/maintaining_a_car_semantic_1.png"" class=""exp-image"">
                    <div class=""question-area""></div> 
                </div>","null","","","","","","","","","","","",""
"","","","","","html-button-response","60","254280","0.0-60.0","B141EBC545E34693805D45B8E42F96B0","019dac6d-dff1-738a-936f-cf065820d608","019dac5b-243f-7307-af64-a10f53f1ef70","","960","
                <div class=""stimulus-container"">
                    <img src=""images/semantic_sequence/maintaining_a_car_semantic/maintaining_a_car_semantic_1.png"" class=""exp-image"">
                    <div class=""question-area"">
                        <p style=""font-size: 20px; font-weight: bold; margin: 0;"">Is there a person in this image?</p>
                    </div>
                </div>","0","main_experiment_trial","1","maintaining_a_car_semantic","semantic_sequence","chronological","","","","","","",""
"","","","","","html-keyboard-response","61","259619","0.0-61.0","B141EBC545E34693805D45B8E42F96B0","019dac6d-dff1-738a-936f-cf065820d608","019dac5b-243f-7307-af64-a10f53f1ef70","","null","
                <div class=""stimulus-container"">
                    <img src=""images/semantic_sequence/maintaining_a_car_semantic/maintaining_a_car_semantic_2.png"" class=""exp-image"">
                    <div class=""question-area""></div> 
                </div>","null","","","","","","","","","","","",""
"","","","","","html-button-response","62","260347","0.0-62.0","B141EBC545E34693805D45B8E42F96B0","019dac6d-dff1-738a-936f-cf065820d608","019dac5b-243f-7307-af64-a10f53f1ef70","","726","
                <div class=""stimulus-container"">
                    <img src=""images/semantic_sequence/maintaining_a_car_semantic/maintaining_a_car_semantic_2.png"" class=""exp-image"">
                    <div class=""question-area"">
                        <p style=""font-size: 20px; font-weight: bold; margin: 0;"">Is there a person in this image?</p>
                    </div>
                </div>","0","main_experiment_trial","2","maintaining_a_car_semantic","semantic_sequence","chronological","","","","","","",""
"","","","","","html-keyboard-response","63","265512","0.0-63.0","B141EBC545E34693805D45B8E42F96B0","019dac6d-dff1-738a-936f-cf065820d608","019dac5b-243f-7307-af64-a10f53f1ef70","","null","
                <div class=""stimulus-container"">
                    <img src=""images/semantic_sequence/maintaining_a_car_semantic/maintaining_a_car_semantic_3.png"" class=""exp-image"">
                    <div class=""question-area""></div> 
                </div>","null","","","","","","","","","","","",""
"","","","","","html-button-response","64","266147","0.0-64.0","B141EBC545E34693805D45B8E42F96B0","019dac6d-dff1-738a-936f-cf065820d608","019dac5b-243f-7307-af64-a10f53f1ef70","","632","
                <div class=""stimulus-container"">
                    <img src=""images/semantic_sequence/maintaining_a_car_semantic/maintaining_a_car_semantic_3.png"" class=""exp-image"">
                    <div class=""question-area"">
                        <p style=""font-size: 20px; font-weight: bold; margin: 0;"">Is there a person in this image?</p>
                    </div>
                </div>","0","main_experiment_trial","3","maintaining_a_car_semantic","semantic_sequence","chronological","","","","","","",""
"","","","","","html-keyboard-response","65","271151","0.0-65.0","B141EBC545E34693805D45B8E42F96B0","019dac6d-dff1-738a-936f-cf065820d608","019dac5b-243f-7307-af64-a10f53f1ef70","","null","
                <div class=""stimulus-container"">
                    <img src=""images/semantic_sequence/maintaining_a_car_semantic/maintaining_a_car_semantic_4.png"" class=""exp-image"">
                    <div class=""question-area""></div> 
                </div>","null","","","","","","","","","","","",""
"","","","","","html-button-response","66","271929","0.0-66.0","B141EBC545E34693805D45B8E42F96B0","019dac6d-dff1-738a-936f-cf065820d608","019dac5b-243f-7307-af64-a10f53f1ef70","","775","
                <div class=""stimulus-container"">
                    <img src=""images/semantic_sequence/maintaining_a_car_semantic/maintaining_a_car_semantic_4.png"" class=""exp-image"">
                    <div class=""question-area"">
                        <p style=""font-size: 20px; font-weight: bold; margin: 0;"">Is there a person in this image?</p>
                    </div>
                </div>","0","main_experiment_trial","4","maintaining_a_car_semantic","semantic_sequence","chronological","","","","","","",""
"","","","","","html-keyboard-response","67","276935","0.0-67.0","B141EBC545E34693805D45B8E42F96B0","019dac6d-dff1-738a-936f-cf065820d608","019dac5b-243f-7307-af64-a10f53f1ef70","","null","
                <div class=""stimulus-container"">
                    <img src=""images/semantic_sequence/maintaining_a_car_semantic/maintaining_a_car_semantic_5.png"" class=""exp-image"">
                    <div class=""question-area""></div> 
                </div>","null","","","","","","","","","","","",""
"","","","","","html-button-response","68","278246","0.0-68.0","B141EBC545E34693805D45B8E42F96B0","019dac6d-dff1-738a-936f-cf065820d608","019dac5b-243f-7307-af64-a10f53f1ef70","","1310","
                <div class=""stimulus-container"">
                    <img src=""images/semantic_sequence/maintaining_a_car_semantic/maintaining_a_car_semantic_5.png"" class=""exp-image"">
                    <div class=""question-area"">
                        <p style=""font-size: 20px; font-weight: bold; margin: 0;"">Is there a person in this image?</p>
                    </div>
                </div>","0","main_experiment_trial","5","maintaining_a_car_semantic","semantic_sequence","chronological","","","","","","",""
"","","","","","html-keyboard-response","69","283346","0.0-69.0","B141EBC545E34693805D45B8E42F96B0","019dac6d-dff1-738a-936f-cf065820d608","019dac5b-243f-7307-af64-a10f53f1ef70","","null","
                <div class=""stimulus-container"">
                    <img src=""images/semantic_sequence/maintaining_a_car_semantic/maintaining_a_car_semantic_6.png"" class=""exp-image"">
                    <div class=""question-area""></div> 
                </div>","null","","","","","","","","","","","",""
"","","","","","html-button-response","70","284414","0.0-70.0","B141EBC545E34693805D45B8E42F96B0","019dac6d-dff1-738a-936f-cf065820d608","019dac5b-243f-7307-af64-a10f53f1ef70","","1066","
                <div class=""stimulus-container"">
                    <img src=""images/semantic_sequence/maintaining_a_car_semantic/maintaining_a_car_semantic_6.png"" class=""exp-image"">
                    <div class=""question-area"">
                        <p style=""font-size: 20px; font-weight: bold; margin: 0;"">Is there a person in this image?</p>
                    </div>
                </div>","0","main_experiment_trial","6","maintaining_a_car_semantic","semantic_sequence","chronological","","","","","","",""
"","","","","","html-keyboard-response","71","289416","0.0-71.0","B141EBC545E34693805D45B8E42F96B0","019dac6d-dff1-738a-936f-cf065820d608","019dac5b-243f-7307-af64-a10f53f1ef70","","null","
                <div class=""stimulus-container"">
                    <img src=""images/semantic_sequence/maintaining_a_car_semantic/maintaining_a_car_semantic_7.png"" class=""exp-image"">
                    <div class=""question-area""></div> 
                </div>","null","","","","","","","","","","","",""
"","","","","","html-button-response","72","290529","0.0-72.0","B141EBC545E34693805D45B8E42F96B0","019dac6d-dff1-738a-936f-cf065820d608","019dac5b-243f-7307-af64-a10f53f1ef70","","1113","
                <div class=""stimulus-container"">
                    <img src=""images/semantic_sequence/maintaining_a_car_semantic/maintaining_a_car_semantic_7.png"" class=""exp-image"">
                    <div class=""question-area"">
                        <p style=""font-size: 20px; font-weight: bold; margin: 0;"">Is there a person in this image?</p>
                    </div>
                </div>","0","main_experiment_trial","7","maintaining_a_car_semantic","semantic_sequence","chronological","","","","","","",""
"","","","","","html-keyboard-response","73","295536","0.0-73.0","B141EBC545E34693805D45B8E42F96B0","019dac6d-dff1-738a-936f-cf065820d608","019dac5b-243f-7307-af64-a10f53f1ef70","","null","
                <div class=""stimulus-container"">
                    <img src=""images/semantic_sequence/maintaining_a_car_semantic/maintaining_a_car_semantic_8.png"" class=""exp-image"">
                    <div class=""question-area""></div> 
                </div>","null","","","","","","","","","","","",""
"","","","","","html-button-response","74","296212","0.0-74.0","B141EBC545E34693805D45B8E42F96B0","019dac6d-dff1-738a-936f-cf065820d608","019dac5b-243f-7307-af64-a10f53f1ef70","","675","
                <div class=""stimulus-container"">
                    <img src=""images/semantic_sequence/maintaining_a_car_semantic/maintaining_a_car_semantic_8.png"" class=""exp-image"">
                    <div class=""question-area"">
                        <p style=""font-size: 20px; font-weight: bold; margin: 0;"">Is there a person in this image?</p>
                    </div>
                </div>","0","main_experiment_trial","8","maintaining_a_car_semantic","semantic_sequence","chronological","","","","","","",""
"","","","","","html-keyboard-response","75","301215","0.0-75.0","B141EBC545E34693805D45B8E42F96B0","019dac6d-dff1-738a-936f-cf065820d608","019dac5b-243f-7307-af64-a10f53f1ef70","","null","
                <div class=""stimulus-container"">
                    <img src=""images/semantic_sequence/maintaining_a_car_semantic/maintaining_a_car_semantic_9.png"" class=""exp-image"">
                    <div class=""question-area""></div> 
                </div>","null","","","","","","","","","","","",""
"","","","","","html-button-response","76","301929","0.0-76.0","B141EBC545E34693805D45B8E42F96B0","019dac6d-dff1-738a-936f-cf065820d608","019dac5b-243f-7307-af64-a10f53f1ef70","","712","
                <div class=""stimulus-container"">
                    <img src=""images/semantic_sequence/maintaining_a_car_semantic/maintaining_a_car_semantic_9.png"" class=""exp-image"">
                    <div class=""question-area"">
                        <p style=""font-size: 20px; font-weight: bold; margin: 0;"">Is there a person in this image?</p>
                    </div>
                </div>","0","main_experiment_trial","9","maintaining_a_car_semantic","semantic_sequence","chronological","","","","","","",""
"","","","","","html-keyboard-response","77","306935","0.0-77.0","B141EBC545E34693805D45B8E42F96B0","019dac6d-dff1-738a-936f-cf065820d608","019dac5b-243f-7307-af64-a10f53f1ef70","","null","
                <div class=""stimulus-container"">
                    <img src=""images/semantic_sequence/maintaining_a_car_semantic/maintaining_a_car_semantic_ten.png"" class=""exp-image"">
                    <div class=""question-area""></div> 
                </div>","null","","","","","","","","","","","",""
"","","","","","html-button-response","78","307945","0.0-78.0","B141EBC545E34693805D45B8E42F96B0","019dac6d-dff1-738a-936f-cf065820d608","019dac5b-243f-7307-af64-a10f53f1ef70","","1010","
                <div class=""stimulus-container"">
                    <img src=""images/semantic_sequence/maintaining_a_car_semantic/maintaining_a_car_semantic_ten.png"" class=""exp-image"">
                    <div class=""question-area"">
                        <p style=""font-size: 20px; font-weight: bold; margin: 0;"">Is there a person in this image?</p>
                    </div>
                </div>","0","main_experiment_trial","ten","maintaining_a_car_semantic","semantic_sequence","chronological","","","","","","",""
"","","","","","html-keyboard-response","79","313373","0.0-79.0","B141EBC545E34693805D45B8E42F96B0","019dac6d-dff1-738a-936f-cf065820d608","019dac5b-243f-7307-af64-a10f53f1ef70","","null","<div style=""background-color: white; width: 100vw; height: 100vh;""></div>","null","","","","","","","","","","","",""
"","","","","","html-keyboard-response","80","318501","0.0-80.0","B141EBC545E34693805D45B8E42F96B0","019dac6d-dff1-738a-936f-cf065820d608","019dac5b-243f-7307-af64-a10f53f1ef70","","null","
                <div class=""stimulus-container"">
                    <img src=""images/causal_sequence/the_performance_causal/the_performance_causal_1.png"" class=""exp-image"">
                    <div class=""question-area""></div> 
                </div>","null","","","","","","","","","","","",""
"","","","","","html-button-response","81","319629","0.0-81.0","B141EBC545E34693805D45B8E42F96B0","019dac6d-dff1-738a-936f-cf065820d608","019dac5b-243f-7307-af64-a10f53f1ef70","","1128","
                <div class=""stimulus-container"">
                    <img src=""images/causal_sequence/the_performance_causal/the_performance_causal_1.png"" class=""exp-image"">
                    <div class=""question-area"">
                        <p style=""font-size: 20px; font-weight: bold; margin: 0;"">Is there a person in this image?</p>
                    </div>
                </div>","0","main_experiment_trial","1","the_performance_causal","causal_sequence","chronological","","","","","","",""
"","","","","","html-keyboard-response","82","324636","0.0-82.0","B141EBC545E34693805D45B8E42F96B0","019dac6d-dff1-738a-936f-cf065820d608","019dac5b-243f-7307-af64-a10f53f1ef70","","null","
                <div class=""stimulus-container"">
                    <img src=""images/causal_sequence/the_performance_causal/the_performance_causal_2.png"" class=""exp-image"">
                    <div class=""question-area""></div> 
                </div>","null","","","","","","","","","","","",""
"","","","","","html-button-response","83","325579","0.0-83.0","B141EBC545E34693805D45B8E42F96B0","019dac6d-dff1-738a-936f-cf065820d608","019dac5b-243f-7307-af64-a10f53f1ef70","","941","
                <div class=""stimulus-container"">
                    <img src=""images/causal_sequence/the_performance_causal/the_performance_causal_2.png"" class=""exp-image"">
                    <div class=""question-area"">
                        <p style=""font-size: 20px; font-weight: bold; margin: 0;"">Is there a person in this image?</p>
                    </div>
                </div>","0","main_experiment_trial","2","the_performance_causal","causal_sequence","chronological","","","","","","",""
"","","","","","html-keyboard-response","84","330585","0.0-84.0","B141EBC545E34693805D45B8E42F96B0","019dac6d-dff1-738a-936f-cf065820d608","019dac5b-243f-7307-af64-a10f53f1ef70","","null","
                <div class=""stimulus-container"">
                    <img src=""images/causal_sequence/the_performance_causal/the_performance_causal_3.png"" class=""exp-image"">
                    <div class=""question-area""></div> 
                </div>","null","","","","","","","","","","","",""
"","","","","","html-button-response","85","331413","0.0-85.0","B141EBC545E34693805D45B8E42F96B0","019dac6d-dff1-738a-936f-cf065820d608","019dac5b-243f-7307-af64-a10f53f1ef70","","826","
                <div class=""stimulus-container"">
                    <img src=""images/causal_sequence/the_performance_causal/the_performance_causal_3.png"" class=""exp-image"">
                    <div class=""question-area"">
                        <p style=""font-size: 20px; font-weight: bold; margin: 0;"">Is there a person in this image?</p>
                    </div>
                </div>","0","main_experiment_trial","3","the_performance_causal","causal_sequence","chronological","","","","","","",""
"","","","","","html-keyboard-response","86","336417","0.0-86.0","B141EBC545E34693805D45B8E42F96B0","019dac6d-dff1-738a-936f-cf065820d608","019dac5b-243f-7307-af64-a10f53f1ef70","","null","
                <div class=""stimulus-container"">
                    <img src=""images/causal_sequence/the_performance_causal/the_performance_causal_4.png"" class=""exp-image"">
                    <div class=""question-area""></div> 
                </div>","null","","","","","","","","","","","",""
"","","","","","html-button-response","87","337096","0.0-87.0","B141EBC545E34693805D45B8E42F96B0","019dac6d-dff1-738a-936f-cf065820d608","019dac5b-243f-7307-af64-a10f53f1ef70","","677","
                <div class=""stimulus-container"">
                    <img src=""images/causal_sequence/the_performance_causal/the_performance_causal_4.png"" class=""exp-image"">
                    <div class=""question-area"">
                        <p style=""font-size: 20px; font-weight: bold; margin: 0;"">Is there a person in this image?</p>
                    </div>
                </div>","0","main_experiment_trial","4","the_performance_causal","causal_sequence","chronological","","","","","","",""
"","","","","","html-keyboard-response","88","342102","0.0-88.0","B141EBC545E34693805D45B8E42F96B0","019dac6d-dff1-738a-936f-cf065820d608","019dac5b-243f-7307-af64-a10f53f1ef70","","null","
                <div class=""stimulus-container"">
                    <img src=""images/causal_sequence/the_performance_causal/the_performance_causal_5.png"" class=""exp-image"">
                    <div class=""question-area""></div> 
                </div>","null","","","","","","","","","","","",""
"","","","","","html-button-response","89","343595","0.0-89.0","B141EBC545E34693805D45B8E42F96B0","019dac6d-dff1-738a-936f-cf065820d608","019dac5b-243f-7307-af64-a10f53f1ef70","","1491","
                <div class=""stimulus-container"">
                    <img src=""images/causal_sequence/the_performance_causal/the_performance_causal_5.png"" class=""exp-image"">
                    <div class=""question-area"">
                        <p style=""font-size: 20px; font-weight: bold; margin: 0;"">Is there a person in this image?</p>
                    </div>
                </div>","0","main_experiment_trial","5","the_performance_causal","causal_sequence","chronological","","","","","","",""
"","","","","","html-keyboard-response","90","348604","0.0-90.0","B141EBC545E34693805D45B8E42F96B0","019dac6d-dff1-738a-936f-cf065820d608","019dac5b-243f-7307-af64-a10f53f1ef70","","null","
                <div class=""stimulus-container"">
                    <img src=""images/causal_sequence/the_performance_causal/the_performance_causal_6.png"" class=""exp-image"">
                    <div class=""question-area""></div> 
                </div>","null","","","","","","","","","","","",""
"","","","","","html-button-response","91","349346","0.0-91.0","B141EBC545E34693805D45B8E42F96B0","019dac6d-dff1-738a-936f-cf065820d608","019dac5b-243f-7307-af64-a10f53f1ef70","","740","
                <div class=""stimulus-container"">
                    <img src=""images/causal_sequence/the_performance_causal/the_performance_causal_6.png"" class=""exp-image"">
                    <div class=""question-area"">
                        <p style=""font-size: 20px; font-weight: bold; margin: 0;"">Is there a person in this image?</p>
                    </div>
                </div>","0","main_experiment_trial","6","the_performance_causal","causal_sequence","chronological","","","","","","",""
"","","","","","html-keyboard-response","92","354352","0.0-92.0","B141EBC545E34693805D45B8E42F96B0","019dac6d-dff1-738a-936f-cf065820d608","019dac5b-243f-7307-af64-a10f53f1ef70","","null","
                <div class=""stimulus-container"">
                    <img src=""images/causal_sequence/the_performance_causal/the_performance_causal_7.png"" class=""exp-image"">
                    <div class=""question-area""></div> 
                </div>","null","","","","","","","","","","","",""
"","","","","","html-button-response","93","355112","0.0-93.0","B141EBC545E34693805D45B8E42F96B0","019dac6d-dff1-738a-936f-cf065820d608","019dac5b-243f-7307-af64-a10f53f1ef70","","759","
                <div class=""stimulus-container"">
                    <img src=""images/causal_sequence/the_performance_causal/the_performance_causal_7.png"" class=""exp-image"">
                    <div class=""question-area"">
                        <p style=""font-size: 20px; font-weight: bold; margin: 0;"">Is there a person in this image?</p>
                    </div>
                </div>","0","main_experiment_trial","7","the_performance_causal","causal_sequence","chronological","","","","","","",""
"","","","","","html-keyboard-response","94","360119","0.0-94.0","B141EBC545E34693805D45B8E42F96B0","019dac6d-dff1-738a-936f-cf065820d608","019dac5b-243f-7307-af64-a10f53f1ef70","","null","
                <div class=""stimulus-container"">
                    <img src=""images/causal_sequence/the_performance_causal/the_performance_causal_8.png"" class=""exp-image"">
                    <div class=""question-area""></div> 
                </div>","null","","","","","","","","","","","",""
"","","","","","html-button-response","95","360779","0.0-95.0","B141EBC545E34693805D45B8E42F96B0","019dac6d-dff1-738a-936f-cf065820d608","019dac5b-243f-7307-af64-a10f53f1ef70","","657","
                <div class=""stimulus-container"">
                    <img src=""images/causal_sequence/the_performance_causal/the_performance_causal_8.png"" class=""exp-image"">
                    <div class=""question-area"">
                        <p style=""font-size: 20px; font-weight: bold; margin: 0;"">Is there a person in this image?</p>
                    </div>
                </div>","0","main_experiment_trial","8","the_performance_causal","causal_sequence","chronological","","","","","","",""
"","","","","","html-keyboard-response","96","365785","0.0-96.0","B141EBC545E34693805D45B8E42F96B0","019dac6d-dff1-738a-936f-cf065820d608","019dac5b-243f-7307-af64-a10f53f1ef70","","null","
                <div class=""stimulus-container"">
                    <img src=""images/causal_sequence/the_performance_causal/the_performance_causal_9.png"" class=""exp-image"">
                    <div class=""question-area""></div> 
                </div>","null","","","","","","","","","","","",""
"","","","","","html-button-response","97","366579","0.0-97.0","B141EBC545E34693805D45B8E42F96B0","019dac6d-dff1-738a-936f-cf065820d608","019dac5b-243f-7307-af64-a10f53f1ef70","","793","
                <div class=""stimulus-container"">
                    <img src=""images/causal_sequence/the_performance_causal/the_performance_causal_9.png"" class=""exp-image"">
                    <div class=""question-area"">
                        <p style=""font-size: 20px; font-weight: bold; margin: 0;"">Is there a person in this image?</p>
                    </div>
                </div>","0","main_experiment_trial","9","the_performance_causal","causal_sequence","chronological","","","","","","",""
"","","","","","html-keyboard-response","98","371586","0.0-98.0","B141EBC545E34693805D45B8E42F96B0","019dac6d-dff1-738a-936f-cf065820d608","019dac5b-243f-7307-af64-a10f53f1ef70","","null","
                <div class=""stimulus-container"">
                    <img src=""images/causal_sequence/the_performance_causal/the_performance_causal_ten.png"" class=""exp-image"">
                    <div class=""question-area""></div> 
                </div>","null","","","","","","","","","","","",""
"","","","","","html-button-response","99","372529","0.0-99.0","B141EBC545E34693805D45B8E42F96B0","019dac6d-dff1-738a-936f-cf065820d608","019dac5b-243f-7307-af64-a10f53f1ef70","","941","
                <div class=""stimulus-container"">
                    <img src=""images/causal_sequence/the_performance_causal/the_performance_causal_ten.png"" class=""exp-image"">
                    <div class=""question-area"">
                        <p style=""font-size: 20px; font-weight: bold; margin: 0;"">Is there a person in this image?</p>
                    </div>
                </div>","0","main_experiment_trial","ten","the_performance_causal","causal_sequence","chronological","","","","","","",""
"","","","","","html-keyboard-response","100","377536","0.0-100.0","B141EBC545E34693805D45B8E42F96B0","019dac6d-dff1-738a-936f-cf065820d608","019dac5b-243f-7307-af64-a10f53f1ef70","","null","<div style=""background-color: white; width: 100vw; height: 100vh;""></div>","null","","","","","","","","","","","",""
"","","","","","html-keyboard-response","101","382717","0.0-101.0","B141EBC545E34693805D45B8E42F96B0","019dac6d-dff1-738a-936f-cf065820d608","019dac5b-243f-7307-af64-a10f53f1ef70","","null","
                <div class=""stimulus-container"">
                    <img src=""images/semantic_sequence/self_care_activities_semantic/self_care_activities_semantic_1.png"" class=""exp-image"">
                    <div class=""question-area""></div> 
                </div>","null","","","","","","","","","","","",""
"","","","","","html-button-response","102","383762","0.0-102.0","B141EBC545E34693805D45B8E42F96B0","019dac6d-dff1-738a-936f-cf065820d608","019dac5b-243f-7307-af64-a10f53f1ef70","","1044","
                <div class=""stimulus-container"">
                    <img src=""images/semantic_sequence/self_care_activities_semantic/self_care_activities_semantic_1.png"" class=""exp-image"">
                    <div class=""question-area"">
                        <p style=""font-size: 20px; font-weight: bold; margin: 0;"">Is there a person in this image?</p>
                    </div>
                </div>","0","main_experiment_trial","1","self_care_activities_semantic","semantic_sequence","chronological","","","","","","",""
"","","","","","html-keyboard-response","103","388769","0.0-103.0","B141EBC545E34693805D45B8E42F96B0","019dac6d-dff1-738a-936f-cf065820d608","019dac5b-243f-7307-af64-a10f53f1ef70","","null","
                <div class=""stimulus-container"">
                    <img src=""images/semantic_sequence/self_care_activities_semantic/self_care_activities_semantic_2.png"" class=""exp-image"">
                    <div class=""question-area""></div> 
                </div>","null","","","","","","","","","","","",""
"","","","","","html-button-response","104","389811","0.0-104.0","B141EBC545E34693805D45B8E42F96B0","019dac6d-dff1-738a-936f-cf065820d608","019dac5b-243f-7307-af64-a10f53f1ef70","","1041","
                <div class=""stimulus-container"">
                    <img src=""images/semantic_sequence/self_care_activities_semantic/self_care_activities_semantic_2.png"" class=""exp-image"">
                    <div class=""question-area"">
                        <p style=""font-size: 20px; font-weight: bold; margin: 0;"">Is there a person in this image?</p>
                    </div>
                </div>","0","main_experiment_trial","2","self_care_activities_semantic","semantic_sequence","chronological","","","","","","",""
"","","","","","html-keyboard-response","105","394817","0.0-105.0","B141EBC545E34693805D45B8E42F96B0","019dac6d-dff1-738a-936f-cf065820d608","019dac5b-243f-7307-af64-a10f53f1ef70","","null","
                <div class=""stimulus-container"">
                    <img src=""images/semantic_sequence/self_care_activities_semantic/self_care_activities_semantic_3.png"" class=""exp-image"">
                    <div class=""question-area""></div> 
                </div>","null","","","","","","","","","","","",""
"","","","","","html-button-response","106","395812","0.0-106.0","B141EBC545E34693805D45B8E42F96B0","019dac6d-dff1-738a-936f-cf065820d608","019dac5b-243f-7307-af64-a10f53f1ef70","","993","
                <div class=""stimulus-container"">
                    <img src=""images/semantic_sequence/self_care_activities_semantic/self_care_activities_semantic_3.png"" class=""exp-image"">
                    <div class=""question-area"">
                        <p style=""font-size: 20px; font-weight: bold; margin: 0;"">Is there a person in this image?</p>
                    </div>
                </div>","0","main_experiment_trial","3","self_care_activities_semantic","semantic_sequence","chronological","","","","","","",""
"","","","","","html-keyboard-response","107","400880","0.0-107.0","B141EBC545E34693805D45B8E42F96B0","019dac6d-dff1-738a-936f-cf065820d608","019dac5b-243f-7307-af64-a10f53f1ef70","","null","
                <div class=""stimulus-container"">
                    <img src=""images/semantic_sequence/self_care_activities_semantic/self_care_activities_semantic_4.png"" class=""exp-image"">
                    <div class=""question-area""></div> 
                </div>","null","","","","","","","","","","","",""
"","","","","","html-button-response","108","401479","0.0-108.0","B141EBC545E34693805D45B8E42F96B0","019dac6d-dff1-738a-936f-cf065820d608","019dac5b-243f-7307-af64-a10f53f1ef70","","598","
                <div class=""stimulus-container"">
                    <img src=""images/semantic_sequence/self_care_activities_semantic/self_care_activities_semantic_4.png"" class=""exp-image"">
                    <div class=""question-area"">
                        <p style=""font-size: 20px; font-weight: bold; margin: 0;"">Is there a person in this image?</p>
                    </div>
                </div>","0","main_experiment_trial","4","self_care_activities_semantic","semantic_sequence","chronological","","","","","","",""
"","","","","","html-keyboard-response","109","406486","0.0-109.0","B141EBC545E34693805D45B8E42F96B0","019dac6d-dff1-738a-936f-cf065820d608","019dac5b-243f-7307-af64-a10f53f1ef70","","null","
                <div class=""stimulus-container"">
                    <img src=""images/semantic_sequence/self_care_activities_semantic/self_care_activities_semantic_5.png"" class=""exp-image"">
                    <div class=""question-area""></div> 
                </div>","null","","","","","","","","","","","",""
"","","","","","html-button-response","110","407495","0.0-110.0","B141EBC545E34693805D45B8E42F96B0","019dac6d-dff1-738a-936f-cf065820d608","019dac5b-243f-7307-af64-a10f53f1ef70","","1008","
                <div class=""stimulus-container"">
                    <img src=""images/semantic_sequence/self_care_activities_semantic/self_care_activities_semantic_5.png"" class=""exp-image"">
                    <div class=""question-area"">
                        <p style=""font-size: 20px; font-weight: bold; margin: 0;"">Is there a person in this image?</p>
                    </div>
                </div>","0","main_experiment_trial","5","self_care_activities_semantic","semantic_sequence","chronological","","","","","","",""
"","","","","","html-keyboard-response","111","412502","0.0-111.0","B141EBC545E34693805D45B8E42F96B0","019dac6d-dff1-738a-936f-cf065820d608","019dac5b-243f-7307-af64-a10f53f1ef70","","null","
                <div class=""stimulus-container"">
                    <img src=""images/semantic_sequence/self_care_activities_semantic/self_care_activities_semantic_6.png"" class=""exp-image"">
                    <div class=""question-area""></div> 
                </div>","null","","","","","","","","","","","",""
"","","","","","html-button-response","112","413410","0.0-112.0","B141EBC545E34693805D45B8E42F96B0","019dac6d-dff1-738a-936f-cf065820d608","019dac5b-243f-7307-af64-a10f53f1ef70","","908","
                <div class=""stimulus-container"">
                    <img src=""images/semantic_sequence/self_care_activities_semantic/self_care_activities_semantic_6.png"" class=""exp-image"">
                    <div class=""question-area"">
                        <p style=""font-size: 20px; font-weight: bold; margin: 0;"">Is there a person in this image?</p>
                    </div>
                </div>","1","main_experiment_trial","6","self_care_activities_semantic","semantic_sequence","chronological","","","","","","",""
"","","","","","html-keyboard-response","113","418413","0.0-113.0","B141EBC545E34693805D45B8E42F96B0","019dac6d-dff1-738a-936f-cf065820d608","019dac5b-243f-7307-af64-a10f53f1ef70","","null","
                <div class=""stimulus-container"">
                    <img src=""images/semantic_sequence/self_care_activities_semantic/self_care_activities_semantic_7.png"" class=""exp-image"">
                    <div class=""question-area""></div> 
                </div>","null","","","","","","","","","","","",""
"","","","","","html-button-response","114","419112","0.0-114.0","B141EBC545E34693805D45B8E42F96B0","019dac6d-dff1-738a-936f-cf065820d608","019dac5b-243f-7307-af64-a10f53f1ef70","","699","
                <div class=""stimulus-container"">
                    <img src=""images/semantic_sequence/self_care_activities_semantic/self_care_activities_semantic_7.png"" class=""exp-image"">
                    <div class=""question-area"">
                        <p style=""font-size: 20px; font-weight: bold; margin: 0;"">Is there a person in this image?</p>
                    </div>
                </div>","0","main_experiment_trial","7","self_care_activities_semantic","semantic_sequence","chronological","","","","","","",""
"","","","","","html-keyboard-response","115","424117","0.0-115.0","B141EBC545E34693805D45B8E42F96B0","019dac6d-dff1-738a-936f-cf065820d608","019dac5b-243f-7307-af64-a10f53f1ef70","","null","
                <div class=""stimulus-container"">
                    <img src=""images/semantic_sequence/self_care_activities_semantic/self_care_activities_semantic_8.png"" class=""exp-image"">
                    <div class=""question-area""></div> 
                </div>","null","","","","","","","","","","","",""
"","","","","","html-button-response","116","424746","0.0-116.0","B141EBC545E34693805D45B8E42F96B0","019dac6d-dff1-738a-936f-cf065820d608","019dac5b-243f-7307-af64-a10f53f1ef70","","627","
                <div class=""stimulus-container"">
                    <img src=""images/semantic_sequence/self_care_activities_semantic/self_care_activities_semantic_8.png"" class=""exp-image"">
                    <div class=""question-area"">
                        <p style=""font-size: 20px; font-weight: bold; margin: 0;"">Is there a person in this image?</p>
                    </div>
                </div>","0","main_experiment_trial","8","self_care_activities_semantic","semantic_sequence","chronological","","","","","","",""
"","","","","","html-keyboard-response","117","429753","0.0-117.0","B141EBC545E34693805D45B8E42F96B0","019dac6d-dff1-738a-936f-cf065820d608","019dac5b-243f-7307-af64-a10f53f1ef70","","null","
                <div class=""stimulus-container"">
                    <img src=""images/semantic_sequence/self_care_activities_semantic/self_care_activities_semantic_9.png"" class=""exp-image"">
                    <div class=""question-area""></div> 
                </div>","null","","","","","","","","","","","",""
"","","","","","html-button-response","118","430645","0.0-118.0","B141EBC545E34693805D45B8E42F96B0","019dac6d-dff1-738a-936f-cf065820d608","019dac5b-243f-7307-af64-a10f53f1ef70","","891","
                <div class=""stimulus-container"">
                    <img src=""images/semantic_sequence/self_care_activities_semantic/self_care_activities_semantic_9.png"" class=""exp-image"">
                    <div class=""question-area"">
                        <p style=""font-size: 20px; font-weight: bold; margin: 0;"">Is there a person in this image?</p>
                    </div>
                </div>","0","main_experiment_trial","9","self_care_activities_semantic","semantic_sequence","chronological","","","","","","",""
"","","","","","html-keyboard-response","119","436130","0.0-119.0","B141EBC545E34693805D45B8E42F96B0","019dac6d-dff1-738a-936f-cf065820d608","019dac5b-243f-7307-af64-a10f53f1ef70","","null","
                <div class=""stimulus-container"">
                    <img src=""images/semantic_sequence/self_care_activities_semantic/self_care_activities_semantic_ten.png"" class=""exp-image"">
                    <div class=""question-area""></div> 
                </div>","null","","","","","","","","","","","",""
"","","","","","html-button-response","120","437095","0.0-120.0","B141EBC545E34693805D45B8E42F96B0","019dac6d-dff1-738a-936f-cf065820d608","019dac5b-243f-7307-af64-a10f53f1ef70","","963","
                <div class=""stimulus-container"">
                    <img src=""images/semantic_sequence/self_care_activities_semantic/self_care_activities_semantic_ten.png"" class=""exp-image"">
                    <div class=""question-area"">
                        <p style=""font-size: 20px; font-weight: bold; margin: 0;"">Is there a person in this image?</p>
                    </div>
                </div>","0","main_experiment_trial","ten","self_care_activities_semantic","semantic_sequence","chronological","","","","","","",""
"","","","","","html-keyboard-response","121","442101","0.0-121.0","B141EBC545E34693805D45B8E42F96B0","019dac6d-dff1-738a-936f-cf065820d608","019dac5b-243f-7307-af64-a10f53f1ef70","","null","<div style=""background-color: white; width: 100vw; height: 100vh;""></div>","null","","","","","","","","","","","",""
"","","","","","html-keyboard-response","122","447106","0.0-122.0","B141EBC545E34693805D45B8E42F96B0","019dac6d-dff1-738a-936f-cf065820d608","019dac5b-243f-7307-af64-a10f53f1ef70","","null","
                <div class=""stimulus-container"">
                    <img src=""images/semantic_sequence/physical_activity_semantic/physical_activity_semantic_1.png"" class=""exp-image"">
                    <div class=""question-area""></div> 
                </div>","null","","","","","","","","","","","",""
"","","","","","html-button-response","123","447862","0.0-123.0","B141EBC545E34693805D45B8E42F96B0","019dac6d-dff1-738a-936f-cf065820d608","019dac5b-243f-7307-af64-a10f53f1ef70","","754","
                <div class=""stimulus-container"">
                    <img src=""images/semantic_sequence/physical_activity_semantic/physical_activity_semantic_1.png"" class=""exp-image"">
                    <div class=""question-area"">
                        <p style=""font-size: 20px; font-weight: bold; margin: 0;"">Is there a person in this image?</p>
                    </div>
                </div>","0","main_experiment_trial","1","physical_activity_semantic","semantic_sequence","chronological","","","","","","",""
"","","","","","html-keyboard-response","124","452868","0.0-124.0","B141EBC545E34693805D45B8E42F96B0","019dac6d-dff1-738a-936f-cf065820d608","019dac5b-243f-7307-af64-a10f53f1ef70","","null","
                <div class=""stimulus-container"">
                    <img src=""images/semantic_sequence/physical_activity_semantic/physical_activity_semantic_2.png"" class=""exp-image"">
                    <div class=""question-area""></div> 
                </div>","null","","","","","","","","","","","",""
"","","","","","html-button-response","125","453527","0.0-125.0","B141EBC545E34693805D45B8E42F96B0","019dac6d-dff1-738a-936f-cf065820d608","019dac5b-243f-7307-af64-a10f53f1ef70","","658","
                <div class=""stimulus-container"">
                    <img src=""images/semantic_sequence/physical_activity_semantic/physical_activity_semantic_2.png"" class=""exp-image"">
                    <div class=""question-area"">
                        <p style=""font-size: 20px; font-weight: bold; margin: 0;"">Is there a person in this image?</p>
                    </div>
                </div>","0","main_experiment_trial","2","physical_activity_semantic","semantic_sequence","chronological","","","","","","",""
"","","","","","html-keyboard-response","126","458532","0.0-126.0","B141EBC545E34693805D45B8E42F96B0","019dac6d-dff1-738a-936f-cf065820d608","019dac5b-243f-7307-af64-a10f53f1ef70","","null","
                <div class=""stimulus-container"">
                    <img src=""images/semantic_sequence/physical_activity_semantic/physical_activity_semantic_3.png"" class=""exp-image"">
                    <div class=""question-area""></div> 
                </div>","null","","","","","","","","","","","",""
"","","","","","html-button-response","127","459145","0.0-127.0","B141EBC545E34693805D45B8E42F96B0","019dac6d-dff1-738a-936f-cf065820d608","019dac5b-243f-7307-af64-a10f53f1ef70","","612","
                <div class=""stimulus-container"">
                    <img src=""images/semantic_sequence/physical_activity_semantic/physical_activity_semantic_3.png"" class=""exp-image"">
                    <div class=""question-area"">
                        <p style=""font-size: 20px; font-weight: bold; margin: 0;"">Is there a person in this image?</p>
                    </div>
                </div>","0","main_experiment_trial","3","physical_activity_semantic","semantic_sequence","chronological","","","","","","",""
"","","","","","html-keyboard-response","128","464723","0.0-128.0","B141EBC545E34693805D45B8E42F96B0","019dac6d-dff1-738a-936f-cf065820d608","019dac5b-243f-7307-af64-a10f53f1ef70","","null","
                <div class=""stimulus-container"">
                    <img src=""images/semantic_sequence/physical_activity_semantic/physical_activity_semantic_4.png"" class=""exp-image"">
                    <div class=""question-area""></div> 
                </div>","null","","","","","","","","","","","",""
"","","","","","html-button-response","129","465512","0.0-129.0","B141EBC545E34693805D45B8E42F96B0","019dac6d-dff1-738a-936f-cf065820d608","019dac5b-243f-7307-af64-a10f53f1ef70","","786","
                <div class=""stimulus-container"">
                    <img src=""images/semantic_sequence/physical_activity_semantic/physical_activity_semantic_4.png"" class=""exp-image"">
                    <div class=""question-area"">
                        <p style=""font-size: 20px; font-weight: bold; margin: 0;"">Is there a person in this image?</p>
                    </div>
                </div>","0","main_experiment_trial","4","physical_activity_semantic","semantic_sequence","chronological","","","","","","",""
"","","","","","html-keyboard-response","130","470756","0.0-130.0","B141EBC545E34693805D45B8E42F96B0","019dac6d-dff1-738a-936f-cf065820d608","019dac5b-243f-7307-af64-a10f53f1ef70","","null","
                <div class=""stimulus-container"">
                    <img src=""images/semantic_sequence/physical_activity_semantic/physical_activity_semantic_5.png"" class=""exp-image"">
                    <div class=""question-area""></div> 
                </div>","null","","","","","","","","","","","",""
"","","","","","html-button-response","131","472178","0.0-131.0","B141EBC545E34693805D45B8E42F96B0","019dac6d-dff1-738a-936f-cf065820d608","019dac5b-243f-7307-af64-a10f53f1ef70","","1421","
                <div class=""stimulus-container"">
                    <img src=""images/semantic_sequence/physical_activity_semantic/physical_activity_semantic_5.png"" class=""exp-image"">
                    <div class=""question-area"">
                        <p style=""font-size: 20px; font-weight: bold; margin: 0;"">Is there a person in this image?</p>
                    </div>
                </div>","0","main_experiment_trial","5","physical_activity_semantic","semantic_sequence","chronological","","","","","","",""
"","","","","","html-keyboard-response","132","477185","0.0-132.0","B141EBC545E34693805D45B8E42F96B0","019dac6d-dff1-738a-936f-cf065820d608","019dac5b-243f-7307-af64-a10f53f1ef70","","null","
                <div class=""stimulus-container"">
                    <img src=""images/semantic_sequence/physical_activity_semantic/physical_activity_semantic_6.png"" class=""exp-image"">
                    <div class=""question-area""></div> 
                </div>","null","","","","","","","","","","","",""
"","","","","","html-button-response","133","478111","0.0-133.0","B141EBC545E34693805D45B8E42F96B0","019dac6d-dff1-738a-936f-cf065820d608","019dac5b-243f-7307-af64-a10f53f1ef70","","924","
                <div class=""stimulus-container"">
                    <img src=""images/semantic_sequence/physical_activity_semantic/physical_activity_semantic_6.png"" class=""exp-image"">
                    <div class=""question-area"">
                        <p style=""font-size: 20px; font-weight: bold; margin: 0;"">Is there a person in this image?</p>
                    </div>
                </div>","0","main_experiment_trial","6","physical_activity_semantic","semantic_sequence","chronological","","","","","","",""
"","","","","","html-keyboard-response","134","483115","0.0-134.0","B141EBC545E34693805D45B8E42F96B0","019dac6d-dff1-738a-936f-cf065820d608","019dac5b-243f-7307-af64-a10f53f1ef70","","null","
                <div class=""stimulus-container"">
                    <img src=""images/semantic_sequence/physical_activity_semantic/physical_activity_semantic_7.png"" class=""exp-image"">
                    <div class=""question-area""></div> 
                </div>","null","","","","","","","","","","","",""
"","","","","","html-button-response","135","483761","0.0-135.0","B141EBC545E34693805D45B8E42F96B0","019dac6d-dff1-738a-936f-cf065820d608","019dac5b-243f-7307-af64-a10f53f1ef70","","644","
                <div class=""stimulus-container"">
                    <img src=""images/semantic_sequence/physical_activity_semantic/physical_activity_semantic_7.png"" class=""exp-image"">
                    <div class=""question-area"">
                        <p style=""font-size: 20px; font-weight: bold; margin: 0;"">Is there a person in this image?</p>
                    </div>
                </div>","0","main_experiment_trial","7","physical_activity_semantic","semantic_sequence","chronological","","","","","","",""
"","","","","","html-keyboard-response","136","488768","0.0-136.0","B141EBC545E34693805D45B8E42F96B0","019dac6d-dff1-738a-936f-cf065820d608","019dac5b-243f-7307-af64-a10f53f1ef70","","null","
                <div class=""stimulus-container"">
                    <img src=""images/semantic_sequence/physical_activity_semantic/physical_activity_semantic_8.png"" class=""exp-image"">
                    <div class=""question-area""></div> 
                </div>","null","","","","","","","","","","","",""
"","","","","","html-button-response","137","489812","0.0-137.0","B141EBC545E34693805D45B8E42F96B0","019dac6d-dff1-738a-936f-cf065820d608","019dac5b-243f-7307-af64-a10f53f1ef70","","1042","
                <div class=""stimulus-container"">
                    <img src=""images/semantic_sequence/physical_activity_semantic/physical_activity_semantic_8.png"" class=""exp-image"">
                    <div class=""question-area"">
                        <p style=""font-size: 20px; font-weight: bold; margin: 0;"">Is there a person in this image?</p>
                    </div>
                </div>","0","main_experiment_trial","8","physical_activity_semantic","semantic_sequence","chronological","","","","","","",""
"","","","","","html-keyboard-response","138","494818","0.0-138.0","B141EBC545E34693805D45B8E42F96B0","019dac6d-dff1-738a-936f-cf065820d608","019dac5b-243f-7307-af64-a10f53f1ef70","","null","
                <div class=""stimulus-container"">
                    <img src=""images/semantic_sequence/physical_activity_semantic/physical_activity_semantic_9.png"" class=""exp-image"">
                    <div class=""question-area""></div> 
                </div>","null","","","","","","","","","","","",""
"","","","","","html-button-response","139","496394","0.0-139.0","B141EBC545E34693805D45B8E42F96B0","019dac6d-dff1-738a-936f-cf065820d608","019dac5b-243f-7307-af64-a10f53f1ef70","","1574","
                <div class=""stimulus-container"">
                    <img src=""images/semantic_sequence/physical_activity_semantic/physical_activity_semantic_9.png"" class=""exp-image"">
                    <div class=""question-area"">
                        <p style=""font-size: 20px; font-weight: bold; margin: 0;"">Is there a person in this image?</p>
                    </div>
                </div>","0","main_experiment_trial","9","physical_activity_semantic","semantic_sequence","chronological","","","","","","",""
"","","","","","html-keyboard-response","140","501399","0.0-140.0","B141EBC545E34693805D45B8E42F96B0","019dac6d-dff1-738a-936f-cf065820d608","019dac5b-243f-7307-af64-a10f53f1ef70","","null","
                <div class=""stimulus-container"">
                    <img src=""images/semantic_sequence/physical_activity_semantic/physical_activity_semantic_ten.png"" class=""exp-image"">
                    <div class=""question-area""></div> 
                </div>","null","","","","","","","","","","","",""
"","","","","","html-button-response","141","502961","0.0-141.0","B141EBC545E34693805D45B8E42F96B0","019dac6d-dff1-738a-936f-cf065820d608","019dac5b-243f-7307-af64-a10f53f1ef70","","1561","
                <div class=""stimulus-container"">
                    <img src=""images/semantic_sequence/physical_activity_semantic/physical_activity_semantic_ten.png"" class=""exp-image"">
                    <div class=""question-area"">
                        <p style=""font-size: 20px; font-weight: bold; margin: 0;"">Is there a person in this image?</p>
                    </div>
                </div>","0","main_experiment_trial","ten","physical_activity_semantic","semantic_sequence","chronological","","","","","","",""
"","","","","","html-keyboard-response","142","507967","0.0-142.0","B141EBC545E34693805D45B8E42F96B0","019dac6d-dff1-738a-936f-cf065820d608","019dac5b-243f-7307-af64-a10f53f1ef70","","null","<div style=""background-color: white; width: 100vw; height: 100vh;""></div>","null","","","","","","","","","","","",""
"","","","","","html-keyboard-response","143","512973","0.0-143.0","B141EBC545E34693805D45B8E42F96B0","019dac6d-dff1-738a-936f-cf065820d608","019dac5b-243f-7307-af64-a10f53f1ef70","","null","
                <div class=""stimulus-container"">
                    <img src=""images/causal_sequence/saving_a_cat_causal/saving_a_cat_causal_1.png"" class=""exp-image"">
                    <div class=""question-area""></div> 
                </div>","null","","","","","","","","","","","",""
"","","","","","html-button-response","144","515027","0.0-144.0","B141EBC545E34693805D45B8E42F96B0","019dac6d-dff1-738a-936f-cf065820d608","019dac5b-243f-7307-af64-a10f53f1ef70","","2052","
                <div class=""stimulus-container"">
                    <img src=""images/causal_sequence/saving_a_cat_causal/saving_a_cat_causal_1.png"" class=""exp-image"">
                    <div class=""question-area"">
                        <p style=""font-size: 20px; font-weight: bold; margin: 0;"">Is there a person in this image?</p>
                    </div>
                </div>","0","main_experiment_trial","1","saving_a_cat_causal","causal_sequence","chronological","","","","","","",""
"","","","","","html-keyboard-response","145","520033","0.0-145.0","B141EBC545E34693805D45B8E42F96B0","019dac6d-dff1-738a-936f-cf065820d608","019dac5b-243f-7307-af64-a10f53f1ef70","","null","
                <div class=""stimulus-container"">
                    <img src=""images/causal_sequence/saving_a_cat_causal/saving_a_cat_causal_2.png"" class=""exp-image"">
                    <div class=""question-area""></div> 
                </div>","null","","","","","","","","","","","",""
"","","","","","html-button-response","146","522678","0.0-146.0","B141EBC545E34693805D45B8E42F96B0","019dac6d-dff1-738a-936f-cf065820d608","019dac5b-243f-7307-af64-a10f53f1ef70","","2645","
                <div class=""stimulus-container"">
                    <img src=""images/causal_sequence/saving_a_cat_causal/saving_a_cat_causal_2.png"" class=""exp-image"">
                    <div class=""question-area"">
                        <p style=""font-size: 20px; font-weight: bold; margin: 0;"">Is there a person in this image?</p>
                    </div>
                </div>","1","main_experiment_trial","2","saving_a_cat_causal","causal_sequence","chronological","","","","","","",""
"","","","","","html-keyboard-response","147","527681","0.0-147.0","B141EBC545E34693805D45B8E42F96B0","019dac6d-dff1-738a-936f-cf065820d608","019dac5b-243f-7307-af64-a10f53f1ef70","","null","
                <div class=""stimulus-container"">
                    <img src=""images/causal_sequence/saving_a_cat_causal/saving_a_cat_causal_3.png"" class=""exp-image"">
                    <div class=""question-area""></div> 
                </div>","null","","","","","","","","","","","",""
"","","","","","html-button-response","148","528344","0.0-148.0","B141EBC545E34693805D45B8E42F96B0","019dac6d-dff1-738a-936f-cf065820d608","019dac5b-243f-7307-af64-a10f53f1ef70","","661","
                <div class=""stimulus-container"">
                    <img src=""images/causal_sequence/saving_a_cat_causal/saving_a_cat_causal_3.png"" class=""exp-image"">
                    <div class=""question-area"">
                        <p style=""font-size: 20px; font-weight: bold; margin: 0;"">Is there a person in this image?</p>
                    </div>
                </div>","1","main_experiment_trial","3","saving_a_cat_causal","causal_sequence","chronological","","","","","","",""
"","","","","","html-keyboard-response","149","533566","0.0-149.0","B141EBC545E34693805D45B8E42F96B0","019dac6d-dff1-738a-936f-cf065820d608","019dac5b-243f-7307-af64-a10f53f1ef70","","null","
                <div class=""stimulus-container"">
                    <img src=""images/causal_sequence/saving_a_cat_causal/saving_a_cat_causal_4.png"" class=""exp-image"">
                    <div class=""question-area""></div> 
                </div>","null","","","","","","","","","","","",""
"","","","","","html-button-response","150","534445","0.0-150.0","B141EBC545E34693805D45B8E42F96B0","019dac6d-dff1-738a-936f-cf065820d608","019dac5b-243f-7307-af64-a10f53f1ef70","","877","
                <div class=""stimulus-container"">
                    <img src=""images/causal_sequence/saving_a_cat_causal/saving_a_cat_causal_4.png"" class=""exp-image"">
                    <div class=""question-area"">
                        <p style=""font-size: 20px; font-weight: bold; margin: 0;"">Is there a person in this image?</p>
                    </div>
                </div>","0","main_experiment_trial","4","saving_a_cat_causal","causal_sequence","chronological","","","","","","",""
"","","","","","html-keyboard-response","151","539451","0.0-151.0","B141EBC545E34693805D45B8E42F96B0","019dac6d-dff1-738a-936f-cf065820d608","019dac5b-243f-7307-af64-a10f53f1ef70","","null","
                <div class=""stimulus-container"">
                    <img src=""images/causal_sequence/saving_a_cat_causal/saving_a_cat_causal_5.png"" class=""exp-image"">
                    <div class=""question-area""></div> 
                </div>","null","","","","","","","","","","","",""
"","","","","","html-button-response","152","541577","0.0-152.0","B141EBC545E34693805D45B8E42F96B0","019dac6d-dff1-738a-936f-cf065820d608","019dac5b-243f-7307-af64-a10f53f1ef70","","2124","
                <div class=""stimulus-container"">
                    <img src=""images/causal_sequence/saving_a_cat_causal/saving_a_cat_causal_5.png"" class=""exp-image"">
                    <div class=""question-area"">
                        <p style=""font-size: 20px; font-weight: bold; margin: 0;"">Is there a person in this image?</p>
                    </div>
                </div>","0","main_experiment_trial","5","saving_a_cat_causal","causal_sequence","chronological","","","","","","",""
"","","","","","html-keyboard-response","153","546580","0.0-153.0","B141EBC545E34693805D45B8E42F96B0","019dac6d-dff1-738a-936f-cf065820d608","019dac5b-243f-7307-af64-a10f53f1ef70","","null","
                <div class=""stimulus-container"">
                    <img src=""images/causal_sequence/saving_a_cat_causal/saving_a_cat_causal_6.png"" class=""exp-image"">
                    <div class=""question-area""></div> 
                </div>","null","","","","","","","","","","","",""
"","","","","","html-button-response","154","547711","0.0-154.0","B141EBC545E34693805D45B8E42F96B0","019dac6d-dff1-738a-936f-cf065820d608","019dac5b-243f-7307-af64-a10f53f1ef70","","1129","
                <div class=""stimulus-container"">
                    <img src=""images/causal_sequence/saving_a_cat_causal/saving_a_cat_causal_6.png"" class=""exp-image"">
                    <div class=""question-area"">
                        <p style=""font-size: 20px; font-weight: bold; margin: 0;"">Is there a person in this image?</p>
                    </div>
                </div>","0","main_experiment_trial","6","saving_a_cat_causal","causal_sequence","chronological","","","","","","",""
"","","","","","html-keyboard-response","155","552716","0.0-155.0","B141EBC545E34693805D45B8E42F96B0","019dac6d-dff1-738a-936f-cf065820d608","019dac5b-243f-7307-af64-a10f53f1ef70","","null","
                <div class=""stimulus-container"">
                    <img src=""images/causal_sequence/saving_a_cat_causal/saving_a_cat_causal_7.png"" class=""exp-image"">
                    <div class=""question-area""></div> 
                </div>","null","","","","","","","","","","","",""
"","","","","","html-button-response","156","553727","0.0-156.0","B141EBC545E34693805D45B8E42F96B0","019dac6d-dff1-738a-936f-cf065820d608","019dac5b-243f-7307-af64-a10f53f1ef70","","1011","
                <div class=""stimulus-container"">
                    <img src=""images/causal_sequence/saving_a_cat_causal/saving_a_cat_causal_7.png"" class=""exp-image"">
                    <div class=""question-area"">
                        <p style=""font-size: 20px; font-weight: bold; margin: 0;"">Is there a person in this image?</p>
                    </div>
                </div>","0","main_experiment_trial","7","saving_a_cat_causal","causal_sequence","chronological","","","","","","",""
"","","","","","html-keyboard-response","157","558734","0.0-157.0","B141EBC545E34693805D45B8E42F96B0","019dac6d-dff1-738a-936f-cf065820d608","019dac5b-243f-7307-af64-a10f53f1ef70","","null","
                <div class=""stimulus-container"">
                    <img src=""images/causal_sequence/saving_a_cat_causal/saving_a_cat_causal_8.png"" class=""exp-image"">
                    <div class=""question-area""></div> 
                </div>","null","","","","","","","","","","","",""
"","","","","","html-button-response","158","559727","0.0-158.0","B141EBC545E34693805D45B8E42F96B0","019dac6d-dff1-738a-936f-cf065820d608","019dac5b-243f-7307-af64-a10f53f1ef70","","992","
                <div class=""stimulus-container"">
                    <img src=""images/causal_sequence/saving_a_cat_causal/saving_a_cat_causal_8.png"" class=""exp-image"">
                    <div class=""question-area"">
                        <p style=""font-size: 20px; font-weight: bold; margin: 0;"">Is there a person in this image?</p>
                    </div>
                </div>","0","main_experiment_trial","8","saving_a_cat_causal","causal_sequence","chronological","","","","","","",""
"","","","","","html-keyboard-response","159","565072","0.0-159.0","B141EBC545E34693805D45B8E42F96B0","019dac6d-dff1-738a-936f-cf065820d608","019dac5b-243f-7307-af64-a10f53f1ef70","","null","
                <div class=""stimulus-container"">
                    <img src=""images/causal_sequence/saving_a_cat_causal/saving_a_cat_causal_9.png"" class=""exp-image"">
                    <div class=""question-area""></div> 
                </div>","null","","","","","","","","","","","",""
"","","","","","html-button-response","160","566743","0.0-160.0","B141EBC545E34693805D45B8E42F96B0","019dac6d-dff1-738a-936f-cf065820d608","019dac5b-243f-7307-af64-a10f53f1ef70","","1671","
                <div class=""stimulus-container"">
                    <img src=""images/causal_sequence/saving_a_cat_causal/saving_a_cat_causal_9.png"" class=""exp-image"">
                    <div class=""question-area"">
                        <p style=""font-size: 20px; font-weight: bold; margin: 0;"">Is there a person in this image?</p>
                    </div>
                </div>","0","main_experiment_trial","9","saving_a_cat_causal","causal_sequence","chronological","","","","","","",""
"","","","","","html-keyboard-response","161","571748","0.0-161.0","B141EBC545E34693805D45B8E42F96B0","019dac6d-dff1-738a-936f-cf065820d608","019dac5b-243f-7307-af64-a10f53f1ef70","","null","
                <div class=""stimulus-container"">
                    <img src=""images/causal_sequence/saving_a_cat_causal/saving_a_cat_causal_ten.png"" class=""exp-image"">
                    <div class=""question-area""></div> 
                </div>","null","","","","","","","","","","","",""
"","","","","","html-button-response","162","573627","0.0-162.0","B141EBC545E34693805D45B8E42F96B0","019dac6d-dff1-738a-936f-cf065820d608","019dac5b-243f-7307-af64-a10f53f1ef70","","1879","
                <div class=""stimulus-container"">
                    <img src=""images/causal_sequence/saving_a_cat_causal/saving_a_cat_causal_ten.png"" class=""exp-image"">
                    <div class=""question-area"">
                        <p style=""font-size: 20px; font-weight: bold; margin: 0;"">Is there a person in this image?</p>
                    </div>
                </div>","0","main_experiment_trial","ten","saving_a_cat_causal","causal_sequence","chronological","","","","","","",""
"","","","","","html-keyboard-response","163","578634","0.0-163.0","B141EBC545E34693805D45B8E42F96B0","019dac6d-dff1-738a-936f-cf065820d608","019dac5b-243f-7307-af64-a10f53f1ef70","","null","<div style=""background-color: white; width: 100vw; height: 100vh;""></div>","null","","","","","","","","","","","",""
"","","","","","html-keyboard-response","164","583639","0.0-164.0","B141EBC545E34693805D45B8E42F96B0","019dac6d-dff1-738a-936f-cf065820d608","019dac5b-243f-7307-af64-a10f53f1ef70","","null","
                <div class=""stimulus-container"">
                    <img src=""images/causal_sequence/coin_causal/coin_causal_1.png"" class=""exp-image"">
                    <div class=""question-area""></div> 
                </div>","null","","","","","","","","","","","",""
"","","","","","html-button-response","165","584412","0.0-165.0","B141EBC545E34693805D45B8E42F96B0","019dac6d-dff1-738a-936f-cf065820d608","019dac5b-243f-7307-af64-a10f53f1ef70","","771","
                <div class=""stimulus-container"">
                    <img src=""images/causal_sequence/coin_causal/coin_causal_1.png"" class=""exp-image"">
                    <div class=""question-area"">
                        <p style=""font-size: 20px; font-weight: bold; margin: 0;"">Is there a person in this image?</p>
                    </div>
                </div>","0","main_experiment_trial","1","coin_causal","causal_sequence","chronological","","","","","","",""
"","","","","","html-keyboard-response","166","589692","0.0-166.0","B141EBC545E34693805D45B8E42F96B0","019dac6d-dff1-738a-936f-cf065820d608","019dac5b-243f-7307-af64-a10f53f1ef70","","null","
                <div class=""stimulus-container"">
                    <img src=""images/causal_sequence/coin_causal/coin_causal_2.png"" class=""exp-image"">
                    <div class=""question-area""></div> 
                </div>","null","","","","","","","","","","","",""
"","","","","","html-button-response","167","591061","0.0-167.0","B141EBC545E34693805D45B8E42F96B0","019dac6d-dff1-738a-936f-cf065820d608","019dac5b-243f-7307-af64-a10f53f1ef70","","1366","
                <div class=""stimulus-container"">
                    <img src=""images/causal_sequence/coin_causal/coin_causal_2.png"" class=""exp-image"">
                    <div class=""question-area"">
                        <p style=""font-size: 20px; font-weight: bold; margin: 0;"">Is there a person in this image?</p>
                    </div>
                </div>","0","main_experiment_trial","2","coin_causal","causal_sequence","chronological","","","","","","",""
"","","","","","html-keyboard-response","168","596067","0.0-168.0","B141EBC545E34693805D45B8E42F96B0","019dac6d-dff1-738a-936f-cf065820d608","019dac5b-243f-7307-af64-a10f53f1ef70","","null","
                <div class=""stimulus-container"">
                    <img src=""images/causal_sequence/coin_causal/coin_causal_3.png"" class=""exp-image"">
                    <div class=""question-area""></div> 
                </div>","null","","","","","","","","","","","",""
"","","","","","html-button-response","169","597261","0.0-169.0","B141EBC545E34693805D45B8E42F96B0","019dac6d-dff1-738a-936f-cf065820d608","019dac5b-243f-7307-af64-a10f53f1ef70","","1192","
                <div class=""stimulus-container"">
                    <img src=""images/causal_sequence/coin_causal/coin_causal_3.png"" class=""exp-image"">
                    <div class=""question-area"">
                        <p style=""font-size: 20px; font-weight: bold; margin: 0;"">Is there a person in this image?</p>
                    </div>
                </div>","0","main_experiment_trial","3","coin_causal","causal_sequence","chronological","","","","","","",""
"","","","","","html-keyboard-response","170","602267","0.0-170.0","B141EBC545E34693805D45B8E42F96B0","019dac6d-dff1-738a-936f-cf065820d608","019dac5b-243f-7307-af64-a10f53f1ef70","","null","
                <div class=""stimulus-container"">
                    <img src=""images/causal_sequence/coin_causal/coin_causal_4.png"" class=""exp-image"">
                    <div class=""question-area""></div> 
                </div>","null","","","","","","","","","","","",""
"","","","","","html-button-response","171","603477","0.0-171.0","B141EBC545E34693805D45B8E42F96B0","019dac6d-dff1-738a-936f-cf065820d608","019dac5b-243f-7307-af64-a10f53f1ef70","","1209","
                <div class=""stimulus-container"">
                    <img src=""images/causal_sequence/coin_causal/coin_causal_4.png"" class=""exp-image"">
                    <div class=""question-area"">
                        <p style=""font-size: 20px; font-weight: bold; margin: 0;"">Is there a person in this image?</p>
                    </div>
                </div>","0","main_experiment_trial","4","coin_causal","causal_sequence","chronological","","","","","","",""
"","","","","","html-keyboard-response","172","608484","0.0-172.0","B141EBC545E34693805D45B8E42F96B0","019dac6d-dff1-738a-936f-cf065820d608","019dac5b-243f-7307-af64-a10f53f1ef70","","null","
                <div class=""stimulus-container"">
                    <img src=""images/causal_sequence/coin_causal/coin_causal_5.png"" class=""exp-image"">
                    <div class=""question-area""></div> 
                </div>","null","","","","","","","","","","","",""
"","","","","","html-button-response","173","609043","0.0-173.0","B141EBC545E34693805D45B8E42F96B0","019dac6d-dff1-738a-936f-cf065820d608","019dac5b-243f-7307-af64-a10f53f1ef70","","559","
                <div class=""stimulus-container"">
                    <img src=""images/causal_sequence/coin_causal/coin_causal_5.png"" class=""exp-image"">
                    <div class=""question-area"">
                        <p style=""font-size: 20px; font-weight: bold; margin: 0;"">Is there a person in this image?</p>
                    </div>
                </div>","0","main_experiment_trial","5","coin_causal","causal_sequence","chronological","","","","","","",""
"","","","","","html-keyboard-response","174","614046","0.0-174.0","B141EBC545E34693805D45B8E42F96B0","019dac6d-dff1-738a-936f-cf065820d608","019dac5b-243f-7307-af64-a10f53f1ef70","","null","
                <div class=""stimulus-container"">
                    <img src=""images/causal_sequence/coin_causal/coin_causal_6.png"" class=""exp-image"">
                    <div class=""question-area""></div> 
                </div>","null","","","","","","","","","","","",""
