"success","timeout","failed_images","failed_audio","failed_video","trial_type","trial_index","time_elapsed","internal_node_id","subject_id","study_id","session_id","view_history","rt","stimulus","response","task","image_index","folder","valuable_image_index","valuable_X","chosen_image_index","distance_from_X"
"false","false","[]","[]","[]","preload","0","6647","0.0-0.0","4245254306B9403499FA7F657D3335FA","019ce633-b015-7bdf-a04a-c4071a416421","019ce621-c902-75a6-af36-962d82cab856","","","","","","","","","","",""
"","","","","","instructions","1","10285","0.0-1.0","4245254306B9403499FA7F657D3335FA","019ce633-b015-7bdf-a04a-c4071a416421","019ce621-c902-75a6-af36-962d82cab856","[{""page_index"":0,""viewing_time"":3638}]","3638","","","","","","","","",""
"","","","","","instructions","2","66446","0.0-2.0","4245254306B9403499FA7F657D3335FA","019ce633-b015-7bdf-a04a-c4071a416421","019ce621-c902-75a6-af36-962d82cab856","[{""page_index"":0,""viewing_time"":56160}]","56160","","","","","","","","",""
"true","","","","","fullscreen","3","69890","0.0-3.0","4245254306B9403499FA7F657D3335FA","019ce633-b015-7bdf-a04a-c4071a416421","019ce621-c902-75a6-af36-962d82cab856","","2439","","","","","","","","",""
"","","","","","instructions","4","77869","0.0-4.0","4245254306B9403499FA7F657D3335FA","019ce633-b015-7bdf-a04a-c4071a416421","019ce621-c902-75a6-af36-962d82cab856","[{""page_index"":0,""viewing_time"":7979}]","7979","","","","","","","","",""
"","","","","","instructions","5","91411","0.0-5.0","4245254306B9403499FA7F657D3335FA","019ce633-b015-7bdf-a04a-c4071a416421","019ce621-c902-75a6-af36-962d82cab856","[{""page_index"":0,""viewing_time"":13541}]","13541","","","","","","","","",""
"","","","","","html-keyboard-response","6","95411","0.0-6.0","4245254306B9403499FA7F657D3335FA","019ce633-b015-7bdf-a04a-c4071a416421","019ce621-c902-75a6-af36-962d82cab856","","null","
                <div class=""stimulus-container"">
                    <img src=""images/instructions/movie_1.png"" class=""exp-image"">
                    <div class=""question-area""></div> 
                </div>","null","","","","","","",""
"","","","","","html-button-response","7","97518","0.0-7.0","4245254306B9403499FA7F657D3335FA","019ce633-b015-7bdf-a04a-c4071a416421","019ce621-c902-75a6-af36-962d82cab856","","2105","
                <div class=""stimulus-container"">
                    <img src=""images/instructions/movie_1.png"" class=""exp-image"">
                    <div class=""question-area"">
                        <p style=""font-size: 20px; font-weight: bold; margin: 0;"">Was there a person in this image?</p>
                    </div>
                </div>","0","example_question","1","","","","",""
"","","","","","html-keyboard-response","8","101519","0.0-8.0","4245254306B9403499FA7F657D3335FA","019ce633-b015-7bdf-a04a-c4071a416421","019ce621-c902-75a6-af36-962d82cab856","","null","
                <div class=""stimulus-container"">
                    <img src=""images/instructions/movie_2.png"" class=""exp-image"">
                    <div class=""question-area""></div> 
                </div>","null","","","","","","",""
"","","","","","html-button-response","9","102744","0.0-9.0","4245254306B9403499FA7F657D3335FA","019ce633-b015-7bdf-a04a-c4071a416421","019ce621-c902-75a6-af36-962d82cab856","","1224","
                <div class=""stimulus-container"">
                    <img src=""images/instructions/movie_2.png"" class=""exp-image"">
                    <div class=""question-area"">
                        <p style=""font-size: 20px; font-weight: bold; margin: 0;"">Was there a person in this image?</p>
                    </div>
                </div>","0","example_question","2","","","","",""
"","","","","","html-keyboard-response","10","106745","0.0-10.0","4245254306B9403499FA7F657D3335FA","019ce633-b015-7bdf-a04a-c4071a416421","019ce621-c902-75a6-af36-962d82cab856","","null","
                <div class=""stimulus-container"">
                    <img src=""images/instructions/movie_3.png"" class=""exp-image"">
                    <div class=""question-area""></div> 
                </div>","null","","","","","","",""
"","","","","","html-button-response","11","107953","0.0-11.0","4245254306B9403499FA7F657D3335FA","019ce633-b015-7bdf-a04a-c4071a416421","019ce621-c902-75a6-af36-962d82cab856","","1207","
                <div class=""stimulus-container"">
                    <img src=""images/instructions/movie_3.png"" class=""exp-image"">
                    <div class=""question-area"">
                        <p style=""font-size: 20px; font-weight: bold; margin: 0;"">Was there a person in this image?</p>
                    </div>
                </div>","0","example_question","3","","","","",""
"","","","","","html-keyboard-response","12","111955","0.0-12.0","4245254306B9403499FA7F657D3335FA","019ce633-b015-7bdf-a04a-c4071a416421","019ce621-c902-75a6-af36-962d82cab856","","null","
                <div class=""stimulus-container"">
                    <img src=""images/instructions/movie_4.png"" class=""exp-image"">
                    <div class=""question-area""></div> 
                </div>","null","","","","","","",""
"","","","","","html-button-response","13","112553","0.0-13.0","4245254306B9403499FA7F657D3335FA","019ce633-b015-7bdf-a04a-c4071a416421","019ce621-c902-75a6-af36-962d82cab856","","597","
                <div class=""stimulus-container"">
                    <img src=""images/instructions/movie_4.png"" class=""exp-image"">
                    <div class=""question-area"">
                        <p style=""font-size: 20px; font-weight: bold; margin: 0;"">Was there a person in this image?</p>
                    </div>
                </div>","0","example_question","4","","","","",""
"","","","","","instructions","14","114263","0.0-14.0","4245254306B9403499FA7F657D3335FA","019ce633-b015-7bdf-a04a-c4071a416421","019ce621-c902-75a6-af36-962d82cab856","[{""page_index"":0,""viewing_time"":1710}]","1710","","","","","","","","",""
"","","","","","html-keyboard-response","15","115264","0.0-15.0","4245254306B9403499FA7F657D3335FA","019ce633-b015-7bdf-a04a-c4071a416421","019ce621-c902-75a6-af36-962d82cab856","","null","<div style=""background-color: gray; width: 100vw; height: 100vh;""></div>","null","","","","","","",""
"","","","","","html-keyboard-response","16","120265","0.0-16.0","4245254306B9403499FA7F657D3335FA","019ce633-b015-7bdf-a04a-c4071a416421","019ce621-c902-75a6-af36-962d82cab856","","null","
                    <div class=""stimulus-container"">
                        <img src=""images/causal_sequence/museum_causal/museum_causal_1.png"" class=""exp-image"">
                        <div class=""question-area""></div> 
                    </div>","null","","","","","","",""
"","","","","","html-button-response","17","122190","0.0-17.0","4245254306B9403499FA7F657D3335FA","019ce633-b015-7bdf-a04a-c4071a416421","019ce621-c902-75a6-af36-962d82cab856","","1925","
                    <div class=""stimulus-container"">
                        <img src=""images/causal_sequence/museum_causal/museum_causal_1.png"" class=""exp-image"">
                        <div class=""question-area"">
                            <p style=""font-size: 20px; font-weight: bold; margin: 0;"">Is there a person in this image?</p>
                        </div>
                    </div>","0","main_causal_task","1","museum_causal","","","",""
"","","","","","html-keyboard-response","18","127192","0.0-18.0","4245254306B9403499FA7F657D3335FA","019ce633-b015-7bdf-a04a-c4071a416421","019ce621-c902-75a6-af36-962d82cab856","","null","
                    <div class=""stimulus-container"">
                        <img src=""images/causal_sequence/museum_causal/museum_causal_2.png"" class=""exp-image"">
                        <div class=""question-area""></div> 
                    </div>","null","","","","","","",""
"","","","","","html-button-response","19","127981","0.0-19.0","4245254306B9403499FA7F657D3335FA","019ce633-b015-7bdf-a04a-c4071a416421","019ce621-c902-75a6-af36-962d82cab856","","789","
                    <div class=""stimulus-container"">
                        <img src=""images/causal_sequence/museum_causal/museum_causal_2.png"" class=""exp-image"">
                        <div class=""question-area"">
                            <p style=""font-size: 20px; font-weight: bold; margin: 0;"">Is there a person in this image?</p>
                        </div>
                    </div>","0","main_causal_task","2","museum_causal","","","",""
"","","","","","html-keyboard-response","20","132983","0.0-20.0","4245254306B9403499FA7F657D3335FA","019ce633-b015-7bdf-a04a-c4071a416421","019ce621-c902-75a6-af36-962d82cab856","","null","
                    <div class=""stimulus-container"">
                        <img src=""images/causal_sequence/museum_causal/museum_causal_3.png"" class=""exp-image"">
                        <div class=""question-area""></div> 
                    </div>","null","","","","","","",""
"","","","","","html-button-response","21","133960","0.0-21.0","4245254306B9403499FA7F657D3335FA","019ce633-b015-7bdf-a04a-c4071a416421","019ce621-c902-75a6-af36-962d82cab856","","976","
                    <div class=""stimulus-container"">
                        <img src=""images/causal_sequence/museum_causal/museum_causal_3.png"" class=""exp-image"">
                        <div class=""question-area"">
                            <p style=""font-size: 20px; font-weight: bold; margin: 0;"">Is there a person in this image?</p>
                        </div>
                    </div>","0","main_causal_task","3","museum_causal","","","",""
"","","","","","html-keyboard-response","22","138962","0.0-22.0","4245254306B9403499FA7F657D3335FA","019ce633-b015-7bdf-a04a-c4071a416421","019ce621-c902-75a6-af36-962d82cab856","","null","
                    <div class=""stimulus-container"">
                        <img src=""images/causal_sequence/museum_causal/museum_causal_4.png"" class=""exp-image"">
                        <div class=""question-area""></div> 
                    </div>","null","","","","","","",""
"","","","","","html-button-response","23","141427","0.0-23.0","4245254306B9403499FA7F657D3335FA","019ce633-b015-7bdf-a04a-c4071a416421","019ce621-c902-75a6-af36-962d82cab856","","2464","
                    <div class=""stimulus-container"">
                        <img src=""images/causal_sequence/museum_causal/museum_causal_4.png"" class=""exp-image"">
                        <div class=""question-area"">
                            <p style=""font-size: 20px; font-weight: bold; margin: 0;"">Is there a person in this image?</p>
                        </div>
                    </div>","1","main_causal_task","4","museum_causal","","","",""
"","","","","","html-keyboard-response","24","146428","0.0-24.0","4245254306B9403499FA7F657D3335FA","019ce633-b015-7bdf-a04a-c4071a416421","019ce621-c902-75a6-af36-962d82cab856","","null","
                    <div class=""stimulus-container"">
                        <img src=""images/causal_sequence/museum_causal/museum_causal_5.png"" class=""exp-image"">
                        <div class=""question-area""></div> 
                    </div>","null","","","","","","",""
"","","","","","html-button-response","25","147476","0.0-25.0","4245254306B9403499FA7F657D3335FA","019ce633-b015-7bdf-a04a-c4071a416421","019ce621-c902-75a6-af36-962d82cab856","","1047","
                    <div class=""stimulus-container"">
                        <img src=""images/causal_sequence/museum_causal/museum_causal_5.png"" class=""exp-image"">
                        <div class=""question-area"">
                            <p style=""font-size: 20px; font-weight: bold; margin: 0;"">Is there a person in this image?</p>
                        </div>
                    </div>","0","main_causal_task","5","museum_causal","","","",""
"","","","","","html-keyboard-response","26","152477","0.0-26.0","4245254306B9403499FA7F657D3335FA","019ce633-b015-7bdf-a04a-c4071a416421","019ce621-c902-75a6-af36-962d82cab856","","null","
                    <div class=""stimulus-container"">
                        <img src=""images/causal_sequence/museum_causal/museum_causal_6.png"" class=""exp-image"">
                        <div class=""question-area""></div> 
                    </div>","null","","","","","","",""
"","","","","","html-button-response","27","153266","0.0-27.0","4245254306B9403499FA7F657D3335FA","019ce633-b015-7bdf-a04a-c4071a416421","019ce621-c902-75a6-af36-962d82cab856","","788","
                    <div class=""stimulus-container"">
                        <img src=""images/causal_sequence/museum_causal/museum_causal_6.png"" class=""exp-image"">
                        <div class=""question-area"">
                            <p style=""font-size: 20px; font-weight: bold; margin: 0;"">Is there a person in this image?</p>
                        </div>
                    </div>","0","main_causal_task","6","museum_causal","","","",""
"","","","","","html-keyboard-response","28","158269","0.0-28.0","4245254306B9403499FA7F657D3335FA","019ce633-b015-7bdf-a04a-c4071a416421","019ce621-c902-75a6-af36-962d82cab856","","null","
                    <div class=""stimulus-container"">
                        <img src=""images/causal_sequence/museum_causal/museum_causal_7.png"" class=""exp-image"">
                        <div class=""question-area""></div> 
                    </div>","null","","","","","","",""
"","","","","","html-button-response","29","160903","0.0-29.0","4245254306B9403499FA7F657D3335FA","019ce633-b015-7bdf-a04a-c4071a416421","019ce621-c902-75a6-af36-962d82cab856","","2633","
                    <div class=""stimulus-container"">
                        <img src=""images/causal_sequence/museum_causal/museum_causal_7.png"" class=""exp-image"">
                        <div class=""question-area"">
                            <p style=""font-size: 20px; font-weight: bold; margin: 0;"">Is there a person in this image?</p>
                        </div>
                    </div>","1","main_causal_task","7","museum_causal","","","",""
"","","","","","html-keyboard-response","30","165904","0.0-30.0","4245254306B9403499FA7F657D3335FA","019ce633-b015-7bdf-a04a-c4071a416421","019ce621-c902-75a6-af36-962d82cab856","","null","
                    <div class=""stimulus-container"">
                        <img src=""images/causal_sequence/museum_causal/museum_causal_8.png"" class=""exp-image"">
                        <div class=""question-area""></div> 
                    </div>","null","","","","","","",""
"","","","","","html-button-response","31","167062","0.0-31.0","4245254306B9403499FA7F657D3335FA","019ce633-b015-7bdf-a04a-c4071a416421","019ce621-c902-75a6-af36-962d82cab856","","1157","
                    <div class=""stimulus-container"">
                        <img src=""images/causal_sequence/museum_causal/museum_causal_8.png"" class=""exp-image"">
                        <div class=""question-area"">
                            <p style=""font-size: 20px; font-weight: bold; margin: 0;"">Is there a person in this image?</p>
                        </div>
                    </div>","0","main_causal_task","8","museum_causal","","","",""
"","","","","","html-keyboard-response","32","172062","0.0-32.0","4245254306B9403499FA7F657D3335FA","019ce633-b015-7bdf-a04a-c4071a416421","019ce621-c902-75a6-af36-962d82cab856","","null","
                    <div class=""stimulus-container"">
                        <img src=""images/causal_sequence/museum_causal/museum_causal_9.png"" class=""exp-image"">
                        <div class=""question-area""></div> 
                    </div>","null","","","","","","",""
"","","","","","html-button-response","33","174026","0.0-33.0","4245254306B9403499FA7F657D3335FA","019ce633-b015-7bdf-a04a-c4071a416421","019ce621-c902-75a6-af36-962d82cab856","","1963","
                    <div class=""stimulus-container"">
                        <img src=""images/causal_sequence/museum_causal/museum_causal_9.png"" class=""exp-image"">
                        <div class=""question-area"">
                            <p style=""font-size: 20px; font-weight: bold; margin: 0;"">Is there a person in this image?</p>
                        </div>
                    </div>","1","main_causal_task","9","museum_causal","","","",""
"","","","","","html-keyboard-response","34","175027","0.0-34.0","4245254306B9403499FA7F657D3335FA","019ce633-b015-7bdf-a04a-c4071a416421","019ce621-c902-75a6-af36-962d82cab856","","null","<div style=""background-color: gray; width: 100vw; height: 100vh;""></div>","null","","","","","","",""
"","","","","","html-keyboard-response","35","180028","0.0-35.0","4245254306B9403499FA7F657D3335FA","019ce633-b015-7bdf-a04a-c4071a416421","019ce621-c902-75a6-af36-962d82cab856","","null","
                    <div class=""stimulus-container"">
                        <img src=""images/causal_sequence/the_performance_causal/the_performance_causal_1.png"" class=""exp-image"">
                        <div class=""question-area""></div> 
                    </div>","null","","","","","","",""
"","","","","","html-button-response","36","181024","0.0-36.0","4245254306B9403499FA7F657D3335FA","019ce633-b015-7bdf-a04a-c4071a416421","019ce621-c902-75a6-af36-962d82cab856","","996","
                    <div class=""stimulus-container"">
                        <img src=""images/causal_sequence/the_performance_causal/the_performance_causal_1.png"" class=""exp-image"">
                        <div class=""question-area"">
                            <p style=""font-size: 20px; font-weight: bold; margin: 0;"">Is there a person in this image?</p>
                        </div>
                    </div>","0","main_causal_task","1","the_performance_causal","","","",""
"","","","","","html-keyboard-response","37","186025","0.0-37.0","4245254306B9403499FA7F657D3335FA","019ce633-b015-7bdf-a04a-c4071a416421","019ce621-c902-75a6-af36-962d82cab856","","null","
                    <div class=""stimulus-container"">
                        <img src=""images/causal_sequence/the_performance_causal/the_performance_causal_2.png"" class=""exp-image"">
                        <div class=""question-area""></div> 
                    </div>","null","","","","","","",""
"","","","","","html-button-response","38","187026","0.0-38.0","4245254306B9403499FA7F657D3335FA","019ce633-b015-7bdf-a04a-c4071a416421","019ce621-c902-75a6-af36-962d82cab856","","1000","
                    <div class=""stimulus-container"">
                        <img src=""images/causal_sequence/the_performance_causal/the_performance_causal_2.png"" class=""exp-image"">
                        <div class=""question-area"">
                            <p style=""font-size: 20px; font-weight: bold; margin: 0;"">Is there a person in this image?</p>
                        </div>
                    </div>","0","main_causal_task","2","the_performance_causal","","","",""
"","","","","","html-keyboard-response","39","192027","0.0-39.0","4245254306B9403499FA7F657D3335FA","019ce633-b015-7bdf-a04a-c4071a416421","019ce621-c902-75a6-af36-962d82cab856","","null","
                    <div class=""stimulus-container"">
                        <img src=""images/causal_sequence/the_performance_causal/the_performance_causal_3.png"" class=""exp-image"">
                        <div class=""question-area""></div> 
                    </div>","null","","","","","","",""
"","","","","","html-button-response","40","193395","0.0-40.0","4245254306B9403499FA7F657D3335FA","019ce633-b015-7bdf-a04a-c4071a416421","019ce621-c902-75a6-af36-962d82cab856","","1367","
                    <div class=""stimulus-container"">
                        <img src=""images/causal_sequence/the_performance_causal/the_performance_causal_3.png"" class=""exp-image"">
                        <div class=""question-area"">
                            <p style=""font-size: 20px; font-weight: bold; margin: 0;"">Is there a person in this image?</p>
                        </div>
                    </div>","0","main_causal_task","3","the_performance_causal","","","",""
"","","","","","html-keyboard-response","41","198395","0.0-41.0","4245254306B9403499FA7F657D3335FA","019ce633-b015-7bdf-a04a-c4071a416421","019ce621-c902-75a6-af36-962d82cab856","","null","
                    <div class=""stimulus-container"">
                        <img src=""images/causal_sequence/the_performance_causal/the_performance_causal_4.png"" class=""exp-image"">
                        <div class=""question-area""></div> 
                    </div>","null","","","","","","",""
"","","","","","html-button-response","42","200482","0.0-42.0","4245254306B9403499FA7F657D3335FA","019ce633-b015-7bdf-a04a-c4071a416421","019ce621-c902-75a6-af36-962d82cab856","","2086","
                    <div class=""stimulus-container"">
                        <img src=""images/causal_sequence/the_performance_causal/the_performance_causal_4.png"" class=""exp-image"">
                        <div class=""question-area"">
                            <p style=""font-size: 20px; font-weight: bold; margin: 0;"">Is there a person in this image?</p>
                        </div>
                    </div>","0","main_causal_task","4","the_performance_causal","","","",""
"","","","","","html-keyboard-response","43","205483","0.0-43.0","4245254306B9403499FA7F657D3335FA","019ce633-b015-7bdf-a04a-c4071a416421","019ce621-c902-75a6-af36-962d82cab856","","null","
                    <div class=""stimulus-container"">
                        <img src=""images/causal_sequence/the_performance_causal/the_performance_causal_5.png"" class=""exp-image"">
                        <div class=""question-area""></div> 
                    </div>","null","","","","","","",""
"","","","","","html-button-response","44","206999","0.0-44.0","4245254306B9403499FA7F657D3335FA","019ce633-b015-7bdf-a04a-c4071a416421","019ce621-c902-75a6-af36-962d82cab856","","1515","
                    <div class=""stimulus-container"">
                        <img src=""images/causal_sequence/the_performance_causal/the_performance_causal_5.png"" class=""exp-image"">
                        <div class=""question-area"">
                            <p style=""font-size: 20px; font-weight: bold; margin: 0;"">Is there a person in this image?</p>
                        </div>
                    </div>","0","main_causal_task","5","the_performance_causal","","","",""
"","","","","","html-keyboard-response","45","212000","0.0-45.0","4245254306B9403499FA7F657D3335FA","019ce633-b015-7bdf-a04a-c4071a416421","019ce621-c902-75a6-af36-962d82cab856","","null","
                    <div class=""stimulus-container"">
                        <img src=""images/causal_sequence/the_performance_causal/the_performance_causal_6.png"" class=""exp-image"">
                        <div class=""question-area""></div> 
                    </div>","null","","","","","","",""
"","","","","","html-button-response","46","212849","0.0-46.0","4245254306B9403499FA7F657D3335FA","019ce633-b015-7bdf-a04a-c4071a416421","019ce621-c902-75a6-af36-962d82cab856","","848","
                    <div class=""stimulus-container"">
                        <img src=""images/causal_sequence/the_performance_causal/the_performance_causal_6.png"" class=""exp-image"">
                        <div class=""question-area"">
                            <p style=""font-size: 20px; font-weight: bold; margin: 0;"">Is there a person in this image?</p>
                        </div>
                    </div>","0","main_causal_task","6","the_performance_causal","","","",""
"","","","","","html-keyboard-response","47","217849","0.0-47.0","4245254306B9403499FA7F657D3335FA","019ce633-b015-7bdf-a04a-c4071a416421","019ce621-c902-75a6-af36-962d82cab856","","null","
                    <div class=""stimulus-container"">
                        <img src=""images/causal_sequence/the_performance_causal/the_performance_causal_7.png"" class=""exp-image"">
                        <div class=""question-area""></div> 
                    </div>","null","","","","","","",""
"","","","","","html-button-response","48","218914","0.0-48.0","4245254306B9403499FA7F657D3335FA","019ce633-b015-7bdf-a04a-c4071a416421","019ce621-c902-75a6-af36-962d82cab856","","1063","
                    <div class=""stimulus-container"">
                        <img src=""images/causal_sequence/the_performance_causal/the_performance_causal_7.png"" class=""exp-image"">
                        <div class=""question-area"">
                            <p style=""font-size: 20px; font-weight: bold; margin: 0;"">Is there a person in this image?</p>
                        </div>
                    </div>","0","main_causal_task","7","the_performance_causal","","","",""
"","","","","","html-keyboard-response","49","223914","0.0-49.0","4245254306B9403499FA7F657D3335FA","019ce633-b015-7bdf-a04a-c4071a416421","019ce621-c902-75a6-af36-962d82cab856","","null","
                    <div class=""stimulus-container"">
                        <img src=""images/causal_sequence/the_performance_causal/the_performance_causal_8.png"" class=""exp-image"">
                        <div class=""question-area""></div> 
                    </div>","null","","","","","","",""
"","","","","","html-button-response","50","225314","0.0-50.0","4245254306B9403499FA7F657D3335FA","019ce633-b015-7bdf-a04a-c4071a416421","019ce621-c902-75a6-af36-962d82cab856","","1399","
                    <div class=""stimulus-container"">
                        <img src=""images/causal_sequence/the_performance_causal/the_performance_causal_8.png"" class=""exp-image"">
                        <div class=""question-area"">
                            <p style=""font-size: 20px; font-weight: bold; margin: 0;"">Is there a person in this image?</p>
                        </div>
                    </div>","0","main_causal_task","8","the_performance_causal","","","",""
"","","","","","html-keyboard-response","51","230316","0.0-51.0","4245254306B9403499FA7F657D3335FA","019ce633-b015-7bdf-a04a-c4071a416421","019ce621-c902-75a6-af36-962d82cab856","","null","
                    <div class=""stimulus-container"">
                        <img src=""images/causal_sequence/the_performance_causal/the_performance_causal_9.png"" class=""exp-image"">
                        <div class=""question-area""></div> 
                    </div>","null","","","","","","",""
"","","","","","html-button-response","52","231098","0.0-52.0","4245254306B9403499FA7F657D3335FA","019ce633-b015-7bdf-a04a-c4071a416421","019ce621-c902-75a6-af36-962d82cab856","","782","
                    <div class=""stimulus-container"">
                        <img src=""images/causal_sequence/the_performance_causal/the_performance_causal_9.png"" class=""exp-image"">
                        <div class=""question-area"">
                            <p style=""font-size: 20px; font-weight: bold; margin: 0;"">Is there a person in this image?</p>
                        </div>
                    </div>","0","main_causal_task","9","the_performance_causal","","","",""
"","","","","","html-keyboard-response","53","232099","0.0-53.0","4245254306B9403499FA7F657D3335FA","019ce633-b015-7bdf-a04a-c4071a416421","019ce621-c902-75a6-af36-962d82cab856","","null","<div style=""background-color: gray; width: 100vw; height: 100vh;""></div>","null","","","","","","",""
"","","","","","html-keyboard-response","54","237100","0.0-54.0","4245254306B9403499FA7F657D3335FA","019ce633-b015-7bdf-a04a-c4071a416421","019ce621-c902-75a6-af36-962d82cab856","","null","
                    <div class=""stimulus-container"">
                        <img src=""images/causal_sequence/saving_a_cat_causal/saving_a_cat_causal_1.png"" class=""exp-image"">
                        <div class=""question-area""></div> 
                    </div>","null","","","","","","",""
"","","","","","html-button-response","55","238844","0.0-55.0","4245254306B9403499FA7F657D3335FA","019ce633-b015-7bdf-a04a-c4071a416421","019ce621-c902-75a6-af36-962d82cab856","","1744","
                    <div class=""stimulus-container"">
                        <img src=""images/causal_sequence/saving_a_cat_causal/saving_a_cat_causal_1.png"" class=""exp-image"">
                        <div class=""question-area"">
                            <p style=""font-size: 20px; font-weight: bold; margin: 0;"">Is there a person in this image?</p>
                        </div>
                    </div>","0","main_causal_task","1","saving_a_cat_causal","","","",""
"","","","","","html-keyboard-response","56","243845","0.0-56.0","4245254306B9403499FA7F657D3335FA","019ce633-b015-7bdf-a04a-c4071a416421","019ce621-c902-75a6-af36-962d82cab856","","null","
                    <div class=""stimulus-container"">
                        <img src=""images/causal_sequence/saving_a_cat_causal/saving_a_cat_causal_2.png"" class=""exp-image"">
                        <div class=""question-area""></div> 
                    </div>","null","","","","","","",""
"","","","","","html-button-response","57","245155","0.0-57.0","4245254306B9403499FA7F657D3335FA","019ce633-b015-7bdf-a04a-c4071a416421","019ce621-c902-75a6-af36-962d82cab856","","1309","
                    <div class=""stimulus-container"">
                        <img src=""images/causal_sequence/saving_a_cat_causal/saving_a_cat_causal_2.png"" class=""exp-image"">
                        <div class=""question-area"">
                            <p style=""font-size: 20px; font-weight: bold; margin: 0;"">Is there a person in this image?</p>
                        </div>
                    </div>","1","main_causal_task","2","saving_a_cat_causal","","","",""
"","","","","","html-keyboard-response","58","250157","0.0-58.0","4245254306B9403499FA7F657D3335FA","019ce633-b015-7bdf-a04a-c4071a416421","019ce621-c902-75a6-af36-962d82cab856","","null","
                    <div class=""stimulus-container"">
                        <img src=""images/causal_sequence/saving_a_cat_causal/saving_a_cat_causal_3.png"" class=""exp-image"">
                        <div class=""question-area""></div> 
                    </div>","null","","","","","","",""
"","","","","","html-button-response","59","251883","0.0-59.0","4245254306B9403499FA7F657D3335FA","019ce633-b015-7bdf-a04a-c4071a416421","019ce621-c902-75a6-af36-962d82cab856","","1726","
                    <div class=""stimulus-container"">
                        <img src=""images/causal_sequence/saving_a_cat_causal/saving_a_cat_causal_3.png"" class=""exp-image"">
                        <div class=""question-area"">
                            <p style=""font-size: 20px; font-weight: bold; margin: 0;"">Is there a person in this image?</p>
                        </div>
                    </div>","1","main_causal_task","3","saving_a_cat_causal","","","",""
"","","","","","html-keyboard-response","60","256884","0.0-60.0","4245254306B9403499FA7F657D3335FA","019ce633-b015-7bdf-a04a-c4071a416421","019ce621-c902-75a6-af36-962d82cab856","","null","
                    <div class=""stimulus-container"">
                        <img src=""images/causal_sequence/saving_a_cat_causal/saving_a_cat_causal_4.png"" class=""exp-image"">
                        <div class=""question-area""></div> 
                    </div>","null","","","","","","",""
"","","","","","html-button-response","61","258250","0.0-61.0","4245254306B9403499FA7F657D3335FA","019ce633-b015-7bdf-a04a-c4071a416421","019ce621-c902-75a6-af36-962d82cab856","","1365","
                    <div class=""stimulus-container"">
                        <img src=""images/causal_sequence/saving_a_cat_causal/saving_a_cat_causal_4.png"" class=""exp-image"">
                        <div class=""question-area"">
                            <p style=""font-size: 20px; font-weight: bold; margin: 0;"">Is there a person in this image?</p>
                        </div>
                    </div>","0","main_causal_task","4","saving_a_cat_causal","","","",""
"","","","","","html-keyboard-response","62","263252","0.0-62.0","4245254306B9403499FA7F657D3335FA","019ce633-b015-7bdf-a04a-c4071a416421","019ce621-c902-75a6-af36-962d82cab856","","null","
                    <div class=""stimulus-container"">
                        <img src=""images/causal_sequence/saving_a_cat_causal/saving_a_cat_causal_5.png"" class=""exp-image"">
                        <div class=""question-area""></div> 
                    </div>","null","","","","","","",""
"","","","","","html-button-response","63","265336","0.0-63.0","4245254306B9403499FA7F657D3335FA","019ce633-b015-7bdf-a04a-c4071a416421","019ce621-c902-75a6-af36-962d82cab856","","2084","
                    <div class=""stimulus-container"">
                        <img src=""images/causal_sequence/saving_a_cat_causal/saving_a_cat_causal_5.png"" class=""exp-image"">
                        <div class=""question-area"">
                            <p style=""font-size: 20px; font-weight: bold; margin: 0;"">Is there a person in this image?</p>
                        </div>
                    </div>","0","main_causal_task","5","saving_a_cat_causal","","","",""
"","","","","","html-keyboard-response","64","270337","0.0-64.0","4245254306B9403499FA7F657D3335FA","019ce633-b015-7bdf-a04a-c4071a416421","019ce621-c902-75a6-af36-962d82cab856","","null","
                    <div class=""stimulus-container"">
                        <img src=""images/causal_sequence/saving_a_cat_causal/saving_a_cat_causal_6.png"" class=""exp-image"">
                        <div class=""question-area""></div> 
                    </div>","null","","","","","","",""
"","","","","","html-button-response","65","271748","0.0-65.0","4245254306B9403499FA7F657D3335FA","019ce633-b015-7bdf-a04a-c4071a416421","019ce621-c902-75a6-af36-962d82cab856","","1410","
                    <div class=""stimulus-container"">
                        <img src=""images/causal_sequence/saving_a_cat_causal/saving_a_cat_causal_6.png"" class=""exp-image"">
                        <div class=""question-area"">
                            <p style=""font-size: 20px; font-weight: bold; margin: 0;"">Is there a person in this image?</p>
                        </div>
                    </div>","0","main_causal_task","6","saving_a_cat_causal","","","",""
"","","","","","html-keyboard-response","66","276750","0.0-66.0","4245254306B9403499FA7F657D3335FA","019ce633-b015-7bdf-a04a-c4071a416421","019ce621-c902-75a6-af36-962d82cab856","","null","
                    <div class=""stimulus-container"">
                        <img src=""images/causal_sequence/saving_a_cat_causal/saving_a_cat_causal_7.png"" class=""exp-image"">
                        <div class=""question-area""></div> 
                    </div>","null","","","","","","",""
"","","","","","html-button-response","67","278743","0.0-67.0","4245254306B9403499FA7F657D3335FA","019ce633-b015-7bdf-a04a-c4071a416421","019ce621-c902-75a6-af36-962d82cab856","","1993","
                    <div class=""stimulus-container"">
                        <img src=""images/causal_sequence/saving_a_cat_causal/saving_a_cat_causal_7.png"" class=""exp-image"">
                        <div class=""question-area"">
                            <p style=""font-size: 20px; font-weight: bold; margin: 0;"">Is there a person in this image?</p>
                        </div>
                    </div>","0","main_causal_task","7","saving_a_cat_causal","","","",""
"","","","","","html-keyboard-response","68","283745","0.0-68.0","4245254306B9403499FA7F657D3335FA","019ce633-b015-7bdf-a04a-c4071a416421","019ce621-c902-75a6-af36-962d82cab856","","null","
                    <div class=""stimulus-container"">
                        <img src=""images/causal_sequence/saving_a_cat_causal/saving_a_cat_causal_8.png"" class=""exp-image"">
                        <div class=""question-area""></div> 
                    </div>","null","","","","","","",""
"","","","","","html-button-response","69","284559","0.0-69.0","4245254306B9403499FA7F657D3335FA","019ce633-b015-7bdf-a04a-c4071a416421","019ce621-c902-75a6-af36-962d82cab856","","814","
                    <div class=""stimulus-container"">
                        <img src=""images/causal_sequence/saving_a_cat_causal/saving_a_cat_causal_8.png"" class=""exp-image"">
                        <div class=""question-area"">
                            <p style=""font-size: 20px; font-weight: bold; margin: 0;"">Is there a person in this image?</p>
                        </div>
                    </div>","0","main_causal_task","8","saving_a_cat_causal","","","",""
"","","","","","html-keyboard-response","70","289560","0.0-70.0","4245254306B9403499FA7F657D3335FA","019ce633-b015-7bdf-a04a-c4071a416421","019ce621-c902-75a6-af36-962d82cab856","","null","
                    <div class=""stimulus-container"">
                        <img src=""images/causal_sequence/saving_a_cat_causal/saving_a_cat_causal_9.png"" class=""exp-image"">
                        <div class=""question-area""></div> 
                    </div>","null","","","","","","",""
"","","","","","html-button-response","71","290691","0.0-71.0","4245254306B9403499FA7F657D3335FA","019ce633-b015-7bdf-a04a-c4071a416421","019ce621-c902-75a6-af36-962d82cab856","","1131","
                    <div class=""stimulus-container"">
                        <img src=""images/causal_sequence/saving_a_cat_causal/saving_a_cat_causal_9.png"" class=""exp-image"">
                        <div class=""question-area"">
                            <p style=""font-size: 20px; font-weight: bold; margin: 0;"">Is there a person in this image?</p>
                        </div>
                    </div>","0","main_causal_task","9","saving_a_cat_causal","","","",""
"","","","","","html-keyboard-response","72","291692","0.0-72.0","4245254306B9403499FA7F657D3335FA","019ce633-b015-7bdf-a04a-c4071a416421","019ce621-c902-75a6-af36-962d82cab856","","null","<div style=""background-color: gray; width: 100vw; height: 100vh;""></div>","null","","","","","","",""
"","","","","","html-keyboard-response","73","296693","0.0-73.0","4245254306B9403499FA7F657D3335FA","019ce633-b015-7bdf-a04a-c4071a416421","019ce621-c902-75a6-af36-962d82cab856","","null","
                    <div class=""stimulus-container"">
                        <img src=""images/causal_sequence/dog_causal/dog_causal_1.png"" class=""exp-image"">
                        <div class=""question-area""></div> 
                    </div>","null","","","","","","",""
"","","","","","html-button-response","74","297499","0.0-74.0","4245254306B9403499FA7F657D3335FA","019ce633-b015-7bdf-a04a-c4071a416421","019ce621-c902-75a6-af36-962d82cab856","","805","
                    <div class=""stimulus-container"">
                        <img src=""images/causal_sequence/dog_causal/dog_causal_1.png"" class=""exp-image"">
                        <div class=""question-area"">
                            <p style=""font-size: 20px; font-weight: bold; margin: 0;"">Is there a person in this image?</p>
                        </div>
                    </div>","0","main_causal_task","1","dog_causal","","","",""
"","","","","","html-keyboard-response","75","302501","0.0-75.0","4245254306B9403499FA7F657D3335FA","019ce633-b015-7bdf-a04a-c4071a416421","019ce621-c902-75a6-af36-962d82cab856","","null","
                    <div class=""stimulus-container"">
                        <img src=""images/causal_sequence/dog_causal/dog_causal_2.png"" class=""exp-image"">
                        <div class=""question-area""></div> 
                    </div>","null","","","","","","",""
"","","","","","html-button-response","76","304234","0.0-76.0","4245254306B9403499FA7F657D3335FA","019ce633-b015-7bdf-a04a-c4071a416421","019ce621-c902-75a6-af36-962d82cab856","","1733","
                    <div class=""stimulus-container"">
                        <img src=""images/causal_sequence/dog_causal/dog_causal_2.png"" class=""exp-image"">
                        <div class=""question-area"">
                            <p style=""font-size: 20px; font-weight: bold; margin: 0;"">Is there a person in this image?</p>
                        </div>
                    </div>","0","main_causal_task","2","dog_causal","","","",""
"","","","","","html-keyboard-response","77","309235","0.0-77.0","4245254306B9403499FA7F657D3335FA","019ce633-b015-7bdf-a04a-c4071a416421","019ce621-c902-75a6-af36-962d82cab856","","null","
                    <div class=""stimulus-container"">
                        <img src=""images/causal_sequence/dog_causal/dog_causal_3.png"" class=""exp-image"">
                        <div class=""question-area""></div> 
                    </div>","null","","","","","","",""
"","","","","","html-button-response","78","310362","0.0-78.0","4245254306B9403499FA7F657D3335FA","019ce633-b015-7bdf-a04a-c4071a416421","019ce621-c902-75a6-af36-962d82cab856","","1127","
                    <div class=""stimulus-container"">
                        <img src=""images/causal_sequence/dog_causal/dog_causal_3.png"" class=""exp-image"">
                        <div class=""question-area"">
                            <p style=""font-size: 20px; font-weight: bold; margin: 0;"">Is there a person in this image?</p>
                        </div>
                    </div>","0","main_causal_task","3","dog_causal","","","",""
"","","","","","html-keyboard-response","79","315363","0.0-79.0","4245254306B9403499FA7F657D3335FA","019ce633-b015-7bdf-a04a-c4071a416421","019ce621-c902-75a6-af36-962d82cab856","","null","
                    <div class=""stimulus-container"">
                        <img src=""images/causal_sequence/dog_causal/dog_causal_4.png"" class=""exp-image"">
                        <div class=""question-area""></div> 
                    </div>","null","","","","","","",""
"","","","","","html-button-response","80","316479","0.0-80.0","4245254306B9403499FA7F657D3335FA","019ce633-b015-7bdf-a04a-c4071a416421","019ce621-c902-75a6-af36-962d82cab856","","1115","
                    <div class=""stimulus-container"">
                        <img src=""images/causal_sequence/dog_causal/dog_causal_4.png"" class=""exp-image"">
                        <div class=""question-area"">
                            <p style=""font-size: 20px; font-weight: bold; margin: 0;"">Is there a person in this image?</p>
                        </div>
                    </div>","0","main_causal_task","4","dog_causal","","","",""
"","","","","","html-keyboard-response","81","321480","0.0-81.0","4245254306B9403499FA7F657D3335FA","019ce633-b015-7bdf-a04a-c4071a416421","019ce621-c902-75a6-af36-962d82cab856","","null","
                    <div class=""stimulus-container"">
                        <img src=""images/causal_sequence/dog_causal/dog_causal_5.png"" class=""exp-image"">
                        <div class=""question-area""></div> 
                    </div>","null","","","","","","",""
"","","","","","html-button-response","82","323839","0.0-82.0","4245254306B9403499FA7F657D3335FA","019ce633-b015-7bdf-a04a-c4071a416421","019ce621-c902-75a6-af36-962d82cab856","","2358","
                    <div class=""stimulus-container"">
                        <img src=""images/causal_sequence/dog_causal/dog_causal_5.png"" class=""exp-image"">
                        <div class=""question-area"">
                            <p style=""font-size: 20px; font-weight: bold; margin: 0;"">Is there a person in this image?</p>
                        </div>
                    </div>","0","main_causal_task","5","dog_causal","","","",""
"","","","","","html-keyboard-response","83","328840","0.0-83.0","4245254306B9403499FA7F657D3335FA","019ce633-b015-7bdf-a04a-c4071a416421","019ce621-c902-75a6-af36-962d82cab856","","null","
                    <div class=""stimulus-container"">
                        <img src=""images/causal_sequence/dog_causal/dog_causal_6.png"" class=""exp-image"">
                        <div class=""question-area""></div> 
                    </div>","null","","","","","","",""
"","","","","","html-button-response","84","329892","0.0-84.0","4245254306B9403499FA7F657D3335FA","019ce633-b015-7bdf-a04a-c4071a416421","019ce621-c902-75a6-af36-962d82cab856","","1051","
                    <div class=""stimulus-container"">
                        <img src=""images/causal_sequence/dog_causal/dog_causal_6.png"" class=""exp-image"">
                        <div class=""question-area"">
                            <p style=""font-size: 20px; font-weight: bold; margin: 0;"">Is there a person in this image?</p>
                        </div>
                    </div>","0","main_causal_task","6","dog_causal","","","",""
"","","","","","html-keyboard-response","85","334893","0.0-85.0","4245254306B9403499FA7F657D3335FA","019ce633-b015-7bdf-a04a-c4071a416421","019ce621-c902-75a6-af36-962d82cab856","","null","
                    <div class=""stimulus-container"">
                        <img src=""images/causal_sequence/dog_causal/dog_causal_7.png"" class=""exp-image"">
                        <div class=""question-area""></div> 
                    </div>","null","","","","","","",""
"","","","","","html-button-response","86","335767","0.0-86.0","4245254306B9403499FA7F657D3335FA","019ce633-b015-7bdf-a04a-c4071a416421","019ce621-c902-75a6-af36-962d82cab856","","874","
                    <div class=""stimulus-container"">
                        <img src=""images/causal_sequence/dog_causal/dog_causal_7.png"" class=""exp-image"">
                        <div class=""question-area"">
                            <p style=""font-size: 20px; font-weight: bold; margin: 0;"">Is there a person in this image?</p>
                        </div>
                    </div>","0","main_causal_task","7","dog_causal","","","",""
"","","","","","html-keyboard-response","87","340769","0.0-87.0","4245254306B9403499FA7F657D3335FA","019ce633-b015-7bdf-a04a-c4071a416421","019ce621-c902-75a6-af36-962d82cab856","","null","
                    <div class=""stimulus-container"">
                        <img src=""images/causal_sequence/dog_causal/dog_causal_8.png"" class=""exp-image"">
                        <div class=""question-area""></div> 
                    </div>","null","","","","","","",""
"","","","","","html-button-response","88","341796","0.0-88.0","4245254306B9403499FA7F657D3335FA","019ce633-b015-7bdf-a04a-c4071a416421","019ce621-c902-75a6-af36-962d82cab856","","1026","
                    <div class=""stimulus-container"">
                        <img src=""images/causal_sequence/dog_causal/dog_causal_8.png"" class=""exp-image"">
                        <div class=""question-area"">
                            <p style=""font-size: 20px; font-weight: bold; margin: 0;"">Is there a person in this image?</p>
                        </div>
                    </div>","0","main_causal_task","8","dog_causal","","","",""
"","","","","","html-keyboard-response","89","346797","0.0-89.0","4245254306B9403499FA7F657D3335FA","019ce633-b015-7bdf-a04a-c4071a416421","019ce621-c902-75a6-af36-962d82cab856","","null","
                    <div class=""stimulus-container"">
                        <img src=""images/causal_sequence/dog_causal/dog_causal_9.png"" class=""exp-image"">
                        <div class=""question-area""></div> 
                    </div>","null","","","","","","",""
"","","","","","html-button-response","90","347458","0.0-90.0","4245254306B9403499FA7F657D3335FA","019ce633-b015-7bdf-a04a-c4071a416421","019ce621-c902-75a6-af36-962d82cab856","","661","
                    <div class=""stimulus-container"">
                        <img src=""images/causal_sequence/dog_causal/dog_causal_9.png"" class=""exp-image"">
                        <div class=""question-area"">
                            <p style=""font-size: 20px; font-weight: bold; margin: 0;"">Is there a person in this image?</p>
                        </div>
                    </div>","0","main_causal_task","9","dog_causal","","","",""
"","","","","","html-keyboard-response","91","348460","0.0-91.0","4245254306B9403499FA7F657D3335FA","019ce633-b015-7bdf-a04a-c4071a416421","019ce621-c902-75a6-af36-962d82cab856","","null","<div style=""background-color: gray; width: 100vw; height: 100vh;""></div>","null","","","","","","",""
"","","","","","html-keyboard-response","92","353461","0.0-92.0","4245254306B9403499FA7F657D3335FA","019ce633-b015-7bdf-a04a-c4071a416421","019ce621-c902-75a6-af36-962d82cab856","","null","
                    <div class=""stimulus-container"">
                        <img src=""images/causal_sequence/package_causal/package_causal_1.png"" class=""exp-image"">
                        <div class=""question-area""></div> 
                    </div>","null","","","","","","",""
"","","","","","html-button-response","93","354364","0.0-93.0","4245254306B9403499FA7F657D3335FA","019ce633-b015-7bdf-a04a-c4071a416421","019ce621-c902-75a6-af36-962d82cab856","","902","
                    <div class=""stimulus-container"">
                        <img src=""images/causal_sequence/package_causal/package_causal_1.png"" class=""exp-image"">
                        <div class=""question-area"">
                            <p style=""font-size: 20px; font-weight: bold; margin: 0;"">Is there a person in this image?</p>
                        </div>
                    </div>","0","main_causal_task","1","package_causal","","","",""
"","","","","","html-keyboard-response","94","359365","0.0-94.0","4245254306B9403499FA7F657D3335FA","019ce633-b015-7bdf-a04a-c4071a416421","019ce621-c902-75a6-af36-962d82cab856","","null","
                    <div class=""stimulus-container"">
                        <img src=""images/causal_sequence/package_causal/package_causal_2.png"" class=""exp-image"">
                        <div class=""question-area""></div> 
                    </div>","null","","","","","","",""
"","","","","","html-button-response","95","360441","0.0-95.0","4245254306B9403499FA7F657D3335FA","019ce633-b015-7bdf-a04a-c4071a416421","019ce621-c902-75a6-af36-962d82cab856","","1075","
                    <div class=""stimulus-container"">
                        <img src=""images/causal_sequence/package_causal/package_causal_2.png"" class=""exp-image"">
                        <div class=""question-area"">
                            <p style=""font-size: 20px; font-weight: bold; margin: 0;"">Is there a person in this image?</p>
                        </div>
                    </div>","0","main_causal_task","2","package_causal","","","",""
"","","","","","html-keyboard-response","96","365441","0.0-96.0","4245254306B9403499FA7F657D3335FA","019ce633-b015-7bdf-a04a-c4071a416421","019ce621-c902-75a6-af36-962d82cab856","","null","
                    <div class=""stimulus-container"">
                        <img src=""images/causal_sequence/package_causal/package_causal_3.png"" class=""exp-image"">
                        <div class=""question-area""></div> 
                    </div>","null","","","","","","",""
"","","","","","html-button-response","97","366347","0.0-97.0","4245254306B9403499FA7F657D3335FA","019ce633-b015-7bdf-a04a-c4071a416421","019ce621-c902-75a6-af36-962d82cab856","","905","
                    <div class=""stimulus-container"">
                        <img src=""images/causal_sequence/package_causal/package_causal_3.png"" class=""exp-image"">
                        <div class=""question-area"">
                            <p style=""font-size: 20px; font-weight: bold; margin: 0;"">Is there a person in this image?</p>
                        </div>
                    </div>","0","main_causal_task","3","package_causal","","","",""
"","","","","","html-keyboard-response","98","371349","0.0-98.0","4245254306B9403499FA7F657D3335FA","019ce633-b015-7bdf-a04a-c4071a416421","019ce621-c902-75a6-af36-962d82cab856","","null","
                    <div class=""stimulus-container"">
                        <img src=""images/causal_sequence/package_causal/package_causal_4.png"" class=""exp-image"">
                        <div class=""question-area""></div> 
                    </div>","null","","","","","","",""
"","","","","","html-button-response","99","372185","0.0-99.0","4245254306B9403499FA7F657D3335FA","019ce633-b015-7bdf-a04a-c4071a416421","019ce621-c902-75a6-af36-962d82cab856","","836","
                    <div class=""stimulus-container"">
                        <img src=""images/causal_sequence/package_causal/package_causal_4.png"" class=""exp-image"">
                        <div class=""question-area"">
                            <p style=""font-size: 20px; font-weight: bold; margin: 0;"">Is there a person in this image?</p>
                        </div>
                    </div>","1","main_causal_task","4","package_causal","","","",""
"","","","","","html-keyboard-response","100","377187","0.0-100.0","4245254306B9403499FA7F657D3335FA","019ce633-b015-7bdf-a04a-c4071a416421","019ce621-c902-75a6-af36-962d82cab856","","null","
                    <div class=""stimulus-container"">
                        <img src=""images/causal_sequence/package_causal/package_causal_5.png"" class=""exp-image"">
                        <div class=""question-area""></div> 
                    </div>","null","","","","","","",""
"","","","","","html-button-response","101","378116","0.0-101.0","4245254306B9403499FA7F657D3335FA","019ce633-b015-7bdf-a04a-c4071a416421","019ce621-c902-75a6-af36-962d82cab856","","929","
                    <div class=""stimulus-container"">
                        <img src=""images/causal_sequence/package_causal/package_causal_5.png"" class=""exp-image"">
                        <div class=""question-area"">
                            <p style=""font-size: 20px; font-weight: bold; margin: 0;"">Is there a person in this image?</p>
                        </div>
                    </div>","0","main_causal_task","5","package_causal","","","",""
"","","","","","html-keyboard-response","102","383117","0.0-102.0","4245254306B9403499FA7F657D3335FA","019ce633-b015-7bdf-a04a-c4071a416421","019ce621-c902-75a6-af36-962d82cab856","","null","
                    <div class=""stimulus-container"">
                        <img src=""images/causal_sequence/package_causal/package_causal_6.png"" class=""exp-image"">
                        <div class=""question-area""></div> 
                    </div>","null","","","","","","",""
"","","","","","html-button-response","103","383930","0.0-103.0","4245254306B9403499FA7F657D3335FA","019ce633-b015-7bdf-a04a-c4071a416421","019ce621-c902-75a6-af36-962d82cab856","","813","
                    <div class=""stimulus-container"">
                        <img src=""images/causal_sequence/package_causal/package_causal_6.png"" class=""exp-image"">
                        <div class=""question-area"">
                            <p style=""font-size: 20px; font-weight: bold; margin: 0;"">Is there a person in this image?</p>
                        </div>
                    </div>","0","main_causal_task","6","package_causal","","","",""
"","","","","","html-keyboard-response","104","388931","0.0-104.0","4245254306B9403499FA7F657D3335FA","019ce633-b015-7bdf-a04a-c4071a416421","019ce621-c902-75a6-af36-962d82cab856","","null","
                    <div class=""stimulus-container"">
                        <img src=""images/causal_sequence/package_causal/package_causal_7.png"" class=""exp-image"">
                        <div class=""question-area""></div> 
                    </div>","null","","","","","","",""
"","","","","","html-button-response","105","389985","0.0-105.0","4245254306B9403499FA7F657D3335FA","019ce633-b015-7bdf-a04a-c4071a416421","019ce621-c902-75a6-af36-962d82cab856","","1054","
                    <div class=""stimulus-container"">
                        <img src=""images/causal_sequence/package_causal/package_causal_7.png"" class=""exp-image"">
                        <div class=""question-area"">
                            <p style=""font-size: 20px; font-weight: bold; margin: 0;"">Is there a person in this image?</p>
                        </div>
                    </div>","0","main_causal_task","7","package_causal","","","",""
"","","","","","html-keyboard-response","106","394986","0.0-106.0","4245254306B9403499FA7F657D3335FA","019ce633-b015-7bdf-a04a-c4071a416421","019ce621-c902-75a6-af36-962d82cab856","","null","
                    <div class=""stimulus-container"">
                        <img src=""images/causal_sequence/package_causal/package_causal_8.png"" class=""exp-image"">
                        <div class=""question-area""></div> 
                    </div>","null","","","","","","",""
"","","","","","html-button-response","107","395521","0.0-107.0","4245254306B9403499FA7F657D3335FA","019ce633-b015-7bdf-a04a-c4071a416421","019ce621-c902-75a6-af36-962d82cab856","","534","
                    <div class=""stimulus-container"">
                        <img src=""images/causal_sequence/package_causal/package_causal_8.png"" class=""exp-image"">
                        <div class=""question-area"">
                            <p style=""font-size: 20px; font-weight: bold; margin: 0;"">Is there a person in this image?</p>
                        </div>
                    </div>","0","main_causal_task","8","package_causal","","","",""
"","","","","","html-keyboard-response","108","400521","0.0-108.0","4245254306B9403499FA7F657D3335FA","019ce633-b015-7bdf-a04a-c4071a416421","019ce621-c902-75a6-af36-962d82cab856","","null","
                    <div class=""stimulus-container"">
                        <img src=""images/causal_sequence/package_causal/package_causal_9.png"" class=""exp-image"">
                        <div class=""question-area""></div> 
                    </div>","null","","","","","","",""
"","","","","","html-button-response","109","403232","0.0-109.0","4245254306B9403499FA7F657D3335FA","019ce633-b015-7bdf-a04a-c4071a416421","019ce621-c902-75a6-af36-962d82cab856","","2710","
                    <div class=""stimulus-container"">
                        <img src=""images/causal_sequence/package_causal/package_causal_9.png"" class=""exp-image"">
                        <div class=""question-area"">
                            <p style=""font-size: 20px; font-weight: bold; margin: 0;"">Is there a person in this image?</p>
                        </div>
                    </div>","0","main_causal_task","9","package_causal","","","",""
"","","","","","html-keyboard-response","110","404233","0.0-110.0","4245254306B9403499FA7F657D3335FA","019ce633-b015-7bdf-a04a-c4071a416421","019ce621-c902-75a6-af36-962d82cab856","","null","<div style=""background-color: gray; width: 100vw; height: 100vh;""></div>","null","","","","","","",""
"","","","","","html-keyboard-response","111","409234","0.0-111.0","4245254306B9403499FA7F657D3335FA","019ce633-b015-7bdf-a04a-c4071a416421","019ce621-c902-75a6-af36-962d82cab856","","null","
                    <div class=""stimulus-container"">
                        <img src=""images/causal_sequence/coin_causal/coin_causal_1.png"" class=""exp-image"">
                        <div class=""question-area""></div> 
                    </div>","null","","","","","","",""
"","","","","","html-button-response","112","410759","0.0-112.0","4245254306B9403499FA7F657D3335FA","019ce633-b015-7bdf-a04a-c4071a416421","019ce621-c902-75a6-af36-962d82cab856","","1524","
                    <div class=""stimulus-container"">
                        <img src=""images/causal_sequence/coin_causal/coin_causal_1.png"" class=""exp-image"">
                        <div class=""question-area"">
                            <p style=""font-size: 20px; font-weight: bold; margin: 0;"">Is there a person in this image?</p>
                        </div>
                    </div>","0","main_causal_task","1","coin_causal","","","",""
"","","","","","html-keyboard-response","113","415760","0.0-113.0","4245254306B9403499FA7F657D3335FA","019ce633-b015-7bdf-a04a-c4071a416421","019ce621-c902-75a6-af36-962d82cab856","","null","
                    <div class=""stimulus-container"">
                        <img src=""images/causal_sequence/coin_causal/coin_causal_2.png"" class=""exp-image"">
                        <div class=""question-area""></div> 
                    </div>","null","","","","","","",""
"","","","","","html-button-response","114","417147","0.0-114.0","4245254306B9403499FA7F657D3335FA","019ce633-b015-7bdf-a04a-c4071a416421","019ce621-c902-75a6-af36-962d82cab856","","1387","
                    <div class=""stimulus-container"">
                        <img src=""images/causal_sequence/coin_causal/coin_causal_2.png"" class=""exp-image"">
                        <div class=""question-area"">
                            <p style=""font-size: 20px; font-weight: bold; margin: 0;"">Is there a person in this image?</p>
                        </div>
                    </div>","0","main_causal_task","2","coin_causal","","","",""
"","","","","","html-keyboard-response","115","422148","0.0-115.0","4245254306B9403499FA7F657D3335FA","019ce633-b015-7bdf-a04a-c4071a416421","019ce621-c902-75a6-af36-962d82cab856","","null","
                    <div class=""stimulus-container"">
                        <img src=""images/causal_sequence/coin_causal/coin_causal_3.png"" class=""exp-image"">
                        <div class=""question-area""></div> 
                    </div>","null","","","","","","",""
"","","","","","html-button-response","116","424164","0.0-116.0","4245254306B9403499FA7F657D3335FA","019ce633-b015-7bdf-a04a-c4071a416421","019ce621-c902-75a6-af36-962d82cab856","","2015","
                    <div class=""stimulus-container"">
                        <img src=""images/causal_sequence/coin_causal/coin_causal_3.png"" class=""exp-image"">
                        <div class=""question-area"">
                            <p style=""font-size: 20px; font-weight: bold; margin: 0;"">Is there a person in this image?</p>
                        </div>
                    </div>","0","main_causal_task","3","coin_causal","","","",""
"","","","","","html-keyboard-response","117","429165","0.0-117.0","4245254306B9403499FA7F657D3335FA","019ce633-b015-7bdf-a04a-c4071a416421","019ce621-c902-75a6-af36-962d82cab856","","null","
                    <div class=""stimulus-container"">
                        <img src=""images/causal_sequence/coin_causal/coin_causal_4.png"" class=""exp-image"">
                        <div class=""question-area""></div> 
                    </div>","null","","","","","","",""
"","","","","","html-button-response","118","431259","0.0-118.0","4245254306B9403499FA7F657D3335FA","019ce633-b015-7bdf-a04a-c4071a416421","019ce621-c902-75a6-af36-962d82cab856","","2093","
                    <div class=""stimulus-container"">
                        <img src=""images/causal_sequence/coin_causal/coin_causal_4.png"" class=""exp-image"">
                        <div class=""question-area"">
                            <p style=""font-size: 20px; font-weight: bold; margin: 0;"">Is there a person in this image?</p>
                        </div>
                    </div>","0","main_causal_task","4","coin_causal","","","",""
"","","","","","html-keyboard-response","119","436261","0.0-119.0","4245254306B9403499FA7F657D3335FA","019ce633-b015-7bdf-a04a-c4071a416421","019ce621-c902-75a6-af36-962d82cab856","","null","
                    <div class=""stimulus-container"">
                        <img src=""images/causal_sequence/coin_causal/coin_causal_5.png"" class=""exp-image"">
                        <div class=""question-area""></div> 
                    </div>","null","","","","","","",""
"","","","","","html-button-response","120","437517","0.0-120.0","4245254306B9403499FA7F657D3335FA","019ce633-b015-7bdf-a04a-c4071a416421","019ce621-c902-75a6-af36-962d82cab856","","1255","
                    <div class=""stimulus-container"">
                        <img src=""images/causal_sequence/coin_causal/coin_causal_5.png"" class=""exp-image"">
                        <div class=""question-area"">
                            <p style=""font-size: 20px; font-weight: bold; margin: 0;"">Is there a person in this image?</p>
                        </div>
                    </div>","0","main_causal_task","5","coin_causal","","","",""
"","","","","","html-keyboard-response","121","442518","0.0-121.0","4245254306B9403499FA7F657D3335FA","019ce633-b015-7bdf-a04a-c4071a416421","019ce621-c902-75a6-af36-962d82cab856","","null","
                    <div class=""stimulus-container"">
                        <img src=""images/causal_sequence/coin_causal/coin_causal_6.png"" class=""exp-image"">
                        <div class=""question-area""></div> 
                    </div>","null","","","","","","",""
"","","","","","html-button-response","122","444179","0.0-122.0","4245254306B9403499FA7F657D3335FA","019ce633-b015-7bdf-a04a-c4071a416421","019ce621-c902-75a6-af36-962d82cab856","","1660","
                    <div class=""stimulus-container"">
                        <img src=""images/causal_sequence/coin_causal/coin_causal_6.png"" class=""exp-image"">
                        <div class=""question-area"">
                            <p style=""font-size: 20px; font-weight: bold; margin: 0;"">Is there a person in this image?</p>
                        </div>
                    </div>","0","main_causal_task","6","coin_causal","","","",""
"","","","","","html-keyboard-response","123","449181","0.0-123.0","4245254306B9403499FA7F657D3335FA","019ce633-b015-7bdf-a04a-c4071a416421","019ce621-c902-75a6-af36-962d82cab856","","null","
                    <div class=""stimulus-container"">
                        <img src=""images/causal_sequence/coin_causal/coin_causal_7.png"" class=""exp-image"">
                        <div class=""question-area""></div> 
                    </div>","null","","","","","","",""
"","","","","","html-button-response","124","452116","0.0-124.0","4245254306B9403499FA7F657D3335FA","019ce633-b015-7bdf-a04a-c4071a416421","019ce621-c902-75a6-af36-962d82cab856","","2935","
                    <div class=""stimulus-container"">
                        <img src=""images/causal_sequence/coin_causal/coin_causal_7.png"" class=""exp-image"">
                        <div class=""question-area"">
                            <p style=""font-size: 20px; font-weight: bold; margin: 0;"">Is there a person in this image?</p>
                        </div>
                    </div>","1","main_causal_task","7","coin_causal","","","",""
"","","","","","html-keyboard-response","125","457117","0.0-125.0","4245254306B9403499FA7F657D3335FA","019ce633-b015-7bdf-a04a-c4071a416421","019ce621-c902-75a6-af36-962d82cab856","","null","
                    <div class=""stimulus-container"">
                        <img src=""images/causal_sequence/coin_causal/coin_causal_8.png"" class=""exp-image"">
                        <div class=""question-area""></div> 
                    </div>","null","","","","","","",""
"","","","","","html-button-response","126","458588","0.0-126.0","4245254306B9403499FA7F657D3335FA","019ce633-b015-7bdf-a04a-c4071a416421","019ce621-c902-75a6-af36-962d82cab856","","1471","
                    <div class=""stimulus-container"">
                        <img src=""images/causal_sequence/coin_causal/coin_causal_8.png"" class=""exp-image"">
                        <div class=""question-area"">
                            <p style=""font-size: 20px; font-weight: bold; margin: 0;"">Is there a person in this image?</p>
                        </div>
                    </div>","0","main_causal_task","8","coin_causal","","","",""
"","","","","","html-keyboard-response","127","463589","0.0-127.0","4245254306B9403499FA7F657D3335FA","019ce633-b015-7bdf-a04a-c4071a416421","019ce621-c902-75a6-af36-962d82cab856","","null","
                    <div class=""stimulus-container"">
                        <img src=""images/causal_sequence/coin_causal/coin_causal_9.png"" class=""exp-image"">
                        <div class=""question-area""></div> 
                    </div>","null","","","","","","",""
"","","","","","html-button-response","128","464571","0.0-128.0","4245254306B9403499FA7F657D3335FA","019ce633-b015-7bdf-a04a-c4071a416421","019ce621-c902-75a6-af36-962d82cab856","","982","
                    <div class=""stimulus-container"">
                        <img src=""images/causal_sequence/coin_causal/coin_causal_9.png"" class=""exp-image"">
                        <div class=""question-area"">
                            <p style=""font-size: 20px; font-weight: bold; margin: 0;"">Is there a person in this image?</p>
                        </div>
                    </div>","0","main_causal_task","9","coin_causal","","","",""
"","","","","","instructions","129","466128","0.0-129.0","4245254306B9403499FA7F657D3335FA","019ce633-b015-7bdf-a04a-c4071a416421","019ce621-c902-75a6-af36-962d82cab856","[{""page_index"":0,""viewing_time"":1557}]","1557","","","","","","","","",""
"","","","","","instructions","130","476927","0.0-130.0","4245254306B9403499FA7F657D3335FA","019ce633-b015-7bdf-a04a-c4071a416421","019ce621-c902-75a6-af36-962d82cab856","[{""page_index"":0,""viewing_time"":10798}]","10798","","","","","","","","",""
"","","","","","html-keyboard-response","131","477928","0.0-131.0","4245254306B9403499FA7F657D3335FA","019ce633-b015-7bdf-a04a-c4071a416421","019ce621-c902-75a6-af36-962d82cab856","","null","
        <div class=""stimulus-container"" style=""display: flex; align-items: center; justify-content: center; gap: 30px;"">
            <img src=""images/instructions/movie_1.png"" class=""exp-image"">
            <div style=""font-size: 40px; font-weight: bold; color: green; border: 5px solid green; padding: 25px; border-radius: 15px; background-color: #f0fff0;"">
                WORTH<br>$1
            </div>
        </div>
        <div class=""question-area""></div>","null","","","","","","",""
"","","","","","html-button-response","132","480262","0.0-132.0","4245254306B9403499FA7F657D3335FA","019ce633-b015-7bdf-a04a-c4071a416421","019ce621-c902-75a6-af36-962d82cab856","","2334","
        <div class=""stimulus-container"" style=""display: flex; align-items: center; justify-content: center; gap: 30px;"">
            <img src=""images/instructions/movie_1.png"" class=""exp-image"">
            <div style=""font-size: 40px; font-weight: bold; color: green; border: 5px solid green; padding: 25px; border-radius: 15px; background-color: #f0fff0;"">
                WORTH<br>$1
            </div>
        </div>
        <div class=""question-area"">
            <p style=""font-size: 20px; font-weight: bold; margin: 0;"">Was there a person in this image?</p>
        </div>","0","","","","","","",""
"","","","","","instructions","133","485460","0.0-133.0","4245254306B9403499FA7F657D3335FA","019ce633-b015-7bdf-a04a-c4071a416421","019ce621-c902-75a6-af36-962d82cab856","[{""page_index"":0,""viewing_time"":5197}]","5197","","","","","","","","",""
"","","","","","html-keyboard-response","134","495461","0.0-134.0","4245254306B9403499FA7F657D3335FA","019ce633-b015-7bdf-a04a-c4071a416421","019ce621-c902-75a6-af36-962d82cab856","","null","
            <div class=""stimulus-container"" style=""display: flex; align-items: center; justify-content: center; gap: 30px;"">
                <img src=""images/causal_sequence/the_performance_causal/the_performance_causal_5.png"" class=""exp-image"">
                <div style=""font-size: 40px; font-weight: bold; color: green; border: 5px solid green; padding: 25px; border-radius: 15px; background-color: #f0fff0;"">
                    WORTH<br>$1
                </div>
            </div>
            <div class=""question-area""></div>","null","","","","","","",""
"","","","","","html-button-response","135","496862","0.0-135.0","4245254306B9403499FA7F657D3335FA","019ce633-b015-7bdf-a04a-c4071a416421","019ce621-c902-75a6-af36-962d82cab856","","1400","
            <div class=""stimulus-container"" style=""display: flex; align-items: center; justify-content: center; gap: 30px;"">
                <img src=""images/causal_sequence/the_performance_causal/the_performance_causal_5.png"" class=""exp-image"">
                <div style=""font-size: 40px; font-weight: bold; color: green; border: 5px solid green; padding: 25px; border-radius: 15px; background-color: #f0fff0;"">
                    WORTH<br>$1
                </div>
            </div>
            <div class=""question-area"">
                <p style=""font-size: 20px; font-weight: bold; margin: 0;"">Was there a person in this image?</p>
            </div>","0","part2_value_learning","","the_performance_causal","5","","",""
"","","","","","html-keyboard-response","136","506864","0.0-136.0","4245254306B9403499FA7F657D3335FA","019ce633-b015-7bdf-a04a-c4071a416421","019ce621-c902-75a6-af36-962d82cab856","","null","
            <div class=""stimulus-container"" style=""display: flex; align-items: center; justify-content: center; gap: 30px;"">
                <img src=""images/causal_sequence/dog_causal/dog_causal_5.png"" class=""exp-image"">
                <div style=""font-size: 40px; font-weight: bold; color: green; border: 5px solid green; padding: 25px; border-radius: 15px; background-color: #f0fff0;"">
                    WORTH<br>$1
                </div>
            </div>
            <div class=""question-area""></div>","null","","","","","","",""
"","","","","","html-button-response","137","508824","0.0-137.0","4245254306B9403499FA7F657D3335FA","019ce633-b015-7bdf-a04a-c4071a416421","019ce621-c902-75a6-af36-962d82cab856","","1959","
            <div class=""stimulus-container"" style=""display: flex; align-items: center; justify-content: center; gap: 30px;"">
                <img src=""images/causal_sequence/dog_causal/dog_causal_5.png"" class=""exp-image"">
                <div style=""font-size: 40px; font-weight: bold; color: green; border: 5px solid green; padding: 25px; border-radius: 15px; background-color: #f0fff0;"">
                    WORTH<br>$1
                </div>
            </div>
            <div class=""question-area"">
                <p style=""font-size: 20px; font-weight: bold; margin: 0;"">Was there a person in this image?</p>
            </div>","0","part2_value_learning","","dog_causal","5","","",""
"","","","","","html-keyboard-response","138","518825","0.0-138.0","4245254306B9403499FA7F657D3335FA","019ce633-b015-7bdf-a04a-c4071a416421","019ce621-c902-75a6-af36-962d82cab856","","null","
            <div class=""stimulus-container"" style=""display: flex; align-items: center; justify-content: center; gap: 30px;"">
                <img src=""images/causal_sequence/saving_a_cat_causal/saving_a_cat_causal_4.png"" class=""exp-image"">
                <div style=""font-size: 40px; font-weight: bold; color: green; border: 5px solid green; padding: 25px; border-radius: 15px; background-color: #f0fff0;"">
                    WORTH<br>$1
                </div>
            </div>
            <div class=""question-area""></div>","null","","","","","","",""
"","","","","","html-button-response","139","520727","0.0-139.0","4245254306B9403499FA7F657D3335FA","019ce633-b015-7bdf-a04a-c4071a416421","019ce621-c902-75a6-af36-962d82cab856","","1902","
            <div class=""stimulus-container"" style=""display: flex; align-items: center; justify-content: center; gap: 30px;"">
                <img src=""images/causal_sequence/saving_a_cat_causal/saving_a_cat_causal_4.png"" class=""exp-image"">
                <div style=""font-size: 40px; font-weight: bold; color: green; border: 5px solid green; padding: 25px; border-radius: 15px; background-color: #f0fff0;"">
                    WORTH<br>$1
                </div>
            </div>
            <div class=""question-area"">
                <p style=""font-size: 20px; font-weight: bold; margin: 0;"">Was there a person in this image?</p>
            </div>","0","part2_value_learning","","saving_a_cat_causal","4","","",""
"","","","","","html-keyboard-response","140","530729","0.0-140.0","4245254306B9403499FA7F657D3335FA","019ce633-b015-7bdf-a04a-c4071a416421","019ce621-c902-75a6-af36-962d82cab856","","null","
            <div class=""stimulus-container"" style=""display: flex; align-items: center; justify-content: center; gap: 30px;"">
                <img src=""images/causal_sequence/coin_causal/coin_causal_7.png"" class=""exp-image"">
                <div style=""font-size: 40px; font-weight: bold; color: green; border: 5px solid green; padding: 25px; border-radius: 15px; background-color: #f0fff0;"">
                    WORTH<br>$1
                </div>
            </div>
            <div class=""question-area""></div>","null","","","","","","",""
"","","","","","html-button-response","141","533415","0.0-141.0","4245254306B9403499FA7F657D3335FA","019ce633-b015-7bdf-a04a-c4071a416421","019ce621-c902-75a6-af36-962d82cab856","","2685","
            <div class=""stimulus-container"" style=""display: flex; align-items: center; justify-content: center; gap: 30px;"">
                <img src=""images/causal_sequence/coin_causal/coin_causal_7.png"" class=""exp-image"">
                <div style=""font-size: 40px; font-weight: bold; color: green; border: 5px solid green; padding: 25px; border-radius: 15px; background-color: #f0fff0;"">
                    WORTH<br>$1
                </div>
            </div>
            <div class=""question-area"">
                <p style=""font-size: 20px; font-weight: bold; margin: 0;"">Was there a person in this image?</p>
            </div>","1","part2_value_learning","","coin_causal","7","","",""
"","","","","","html-keyboard-response","142","543416","0.0-142.0","4245254306B9403499FA7F657D3335FA","019ce633-b015-7bdf-a04a-c4071a416421","019ce621-c902-75a6-af36-962d82cab856","","null","
            <div class=""stimulus-container"" style=""display: flex; align-items: center; justify-content: center; gap: 30px;"">
                <img src=""images/causal_sequence/package_causal/package_causal_5.png"" class=""exp-image"">
                <div style=""font-size: 40px; font-weight: bold; color: green; border: 5px solid green; padding: 25px; border-radius: 15px; background-color: #f0fff0;"">
                    WORTH<br>$1
                </div>
            </div>
            <div class=""question-area""></div>","null","","","","","","",""
"","","","","","html-button-response","143","545311","0.0-143.0","4245254306B9403499FA7F657D3335FA","019ce633-b015-7bdf-a04a-c4071a416421","019ce621-c902-75a6-af36-962d82cab856","","1894","
            <div class=""stimulus-container"" style=""display: flex; align-items: center; justify-content: center; gap: 30px;"">
                <img src=""images/causal_sequence/package_causal/package_causal_5.png"" class=""exp-image"">
                <div style=""font-size: 40px; font-weight: bold; color: green; border: 5px solid green; padding: 25px; border-radius: 15px; background-color: #f0fff0;"">
                    WORTH<br>$1
                </div>
            </div>
            <div class=""question-area"">
                <p style=""font-size: 20px; font-weight: bold; margin: 0;"">Was there a person in this image?</p>
            </div>","0","part2_value_learning","","package_causal","5","","",""
"","","","","","html-keyboard-response","144","555312","0.0-144.0","4245254306B9403499FA7F657D3335FA","019ce633-b015-7bdf-a04a-c4071a416421","019ce621-c902-75a6-af36-962d82cab856","","null","
            <div class=""stimulus-container"" style=""display: flex; align-items: center; justify-content: center; gap: 30px;"">
                <img src=""images/causal_sequence/museum_causal/museum_causal_3.png"" class=""exp-image"">
                <div style=""font-size: 40px; font-weight: bold; color: green; border: 5px solid green; padding: 25px; border-radius: 15px; background-color: #f0fff0;"">
                    WORTH<br>$1
                </div>
            </div>
            <div class=""question-area""></div>","null","","","","","","",""
"","","","","","html-button-response","145","556530","0.0-145.0","4245254306B9403499FA7F657D3335FA","019ce633-b015-7bdf-a04a-c4071a416421","019ce621-c902-75a6-af36-962d82cab856","","1217","
            <div class=""stimulus-container"" style=""display: flex; align-items: center; justify-content: center; gap: 30px;"">
                <img src=""images/causal_sequence/museum_causal/museum_causal_3.png"" class=""exp-image"">
                <div style=""font-size: 40px; font-weight: bold; color: green; border: 5px solid green; padding: 25px; border-radius: 15px; background-color: #f0fff0;"">
                    WORTH<br>$1
                </div>
            </div>
            <div class=""question-area"">
                <p style=""font-size: 20px; font-weight: bold; margin: 0;"">Was there a person in this image?</p>
            </div>","0","part2_value_learning","","museum_causal","3","","",""
"","","","","","instructions","146","557830","0.0-146.0","4245254306B9403499FA7F657D3335FA","019ce633-b015-7bdf-a04a-c4071a416421","019ce621-c902-75a6-af36-962d82cab856","[{""page_index"":0,""viewing_time"":1300}]","1300","","","","","","","","",""
"","","","","","instructions","147","559761","0.0-147.0","4245254306B9403499FA7F657D3335FA","019ce633-b015-7bdf-a04a-c4071a416421","019ce621-c902-75a6-af36-962d82cab856","[{""page_index"":0,""viewing_time"":1931}]","1931","","","","","","","","",""
"","","","","","html-keyboard-response","148","569763","0.0-148.0-0.0","4245254306B9403499FA7F657D3335FA","019ce633-b015-7bdf-a04a-c4071a416421","019ce621-c902-75a6-af36-962d82cab856","","null","
                        <div style=""font-family: Arial; margin-bottom: 20px;""><h3>Which image is more valuable?</h3></div>
                        <div class=""stimulus-container"" style=""display: flex; width: 1100px; justify-content: center; gap: 50px;"">
                            <img src=""images/causal_sequence/dog_causal/dog_causal_4.png"" class=""exp-image"">
                            <img src=""images/causal_sequence/dog_causal/dog_causal_6.png"" class=""exp-image"">
                        </div>","null","","","","","","",""
"","","","","","html-button-response","149","571050","0.0-148.0-1.0","4245254306B9403499FA7F657D3335FA","019ce633-b015-7bdf-a04a-c4071a416421","019ce621-c902-75a6-af36-962d82cab856","","1286","
                        <div style=""font-family: Arial; margin-bottom: 20px;""><h3>Which image is more valuable?</h3></div>
                        <div class=""stimulus-container"" style=""display: flex; width: 1100px; justify-content: center; gap: 50px;"">
                            <img src=""images/causal_sequence/dog_causal/dog_causal_4.png"" class=""exp-image"">
                            <img src=""images/causal_sequence/dog_causal/dog_causal_6.png"" class=""exp-image"">
                        </div>","1","part3_final_choice","","dog_causal","","5","6","1"
"","","","","","html-keyboard-response","150","581051","0.0-149.0-0.0","4245254306B9403499FA7F657D3335FA","019ce633-b015-7bdf-a04a-c4071a416421","019ce621-c902-75a6-af36-962d82cab856","","null","
                        <div style=""font-family: Arial; margin-bottom: 20px;""><h3>Which image is more valuable?</h3></div>
                        <div class=""stimulus-container"" style=""display: flex; width: 1100px; justify-content: center; gap: 50px;"">
                            <img src=""images/causal_sequence/the_performance_causal/the_performance_causal_4.png"" class=""exp-image"">
                            <img src=""images/causal_sequence/the_performance_causal/the_performance_causal_6.png"" class=""exp-image"">
                        </div>","null","","","","","","",""
"","","","","","html-button-response","151","582421","0.0-149.0-1.0","4245254306B9403499FA7F657D3335FA","019ce633-b015-7bdf-a04a-c4071a416421","019ce621-c902-75a6-af36-962d82cab856","","1369","
                        <div style=""font-family: Arial; margin-bottom: 20px;""><h3>Which image is more valuable?</h3></div>
                        <div class=""stimulus-container"" style=""display: flex; width: 1100px; justify-content: center; gap: 50px;"">
                            <img src=""images/causal_sequence/the_performance_causal/the_performance_causal_4.png"" class=""exp-image"">
                            <img src=""images/causal_sequence/the_performance_causal/the_performance_causal_6.png"" class=""exp-image"">
                        </div>","1","part3_final_choice","","the_performance_causal","","5","6","1"
"","","","","","html-keyboard-response","152","592423","0.0-150.0-0.0","4245254306B9403499FA7F657D3335FA","019ce633-b015-7bdf-a04a-c4071a416421","019ce621-c902-75a6-af36-962d82cab856","","null","
                        <div style=""font-family: Arial; margin-bottom: 20px;""><h3>Which image is more valuable?</h3></div>
                        <div class=""stimulus-container"" style=""display: flex; width: 1100px; justify-content: center; gap: 50px;"">
                            <img src=""images/causal_sequence/saving_a_cat_causal/saving_a_cat_causal_5.png"" class=""exp-image"">
                            <img src=""images/causal_sequence/saving_a_cat_causal/saving_a_cat_causal_3.png"" class=""exp-image"">
                        </div>","null","","","","","","",""
"","","","","","html-button-response","153","595199","0.0-150.0-1.0","4245254306B9403499FA7F657D3335FA","019ce633-b015-7bdf-a04a-c4071a416421","019ce621-c902-75a6-af36-962d82cab856","","2776","
                        <div style=""font-family: Arial; margin-bottom: 20px;""><h3>Which image is more valuable?</h3></div>
                        <div class=""stimulus-container"" style=""display: flex; width: 1100px; justify-content: center; gap: 50px;"">
                            <img src=""images/causal_sequence/saving_a_cat_causal/saving_a_cat_causal_5.png"" class=""exp-image"">
                            <img src=""images/causal_sequence/saving_a_cat_causal/saving_a_cat_causal_3.png"" class=""exp-image"">
                        </div>","0","part3_final_choice","","saving_a_cat_causal","","4","5","1"
"","","","","","html-keyboard-response","154","605201","0.0-151.0-0.0","4245254306B9403499FA7F657D3335FA","019ce633-b015-7bdf-a04a-c4071a416421","019ce621-c902-75a6-af36-962d82cab856","","null","
                        <div style=""font-family: Arial; margin-bottom: 20px;""><h3>Which image is more valuable?</h3></div>
                        <div class=""stimulus-container"" style=""display: flex; width: 1100px; justify-content: center; gap: 50px;"">
                            <img src=""images/causal_sequence/coin_causal/coin_causal_8.png"" class=""exp-image"">
                            <img src=""images/causal_sequence/coin_causal/coin_causal_6.png"" class=""exp-image"">
                        </div>","null","","","","","","",""
"","","","","","html-button-response","155","605861","0.0-151.0-1.0","4245254306B9403499FA7F657D3335FA","019ce633-b015-7bdf-a04a-c4071a416421","019ce621-c902-75a6-af36-962d82cab856","","660","
                        <div style=""font-family: Arial; margin-bottom: 20px;""><h3>Which image is more valuable?</h3></div>
                        <div class=""stimulus-container"" style=""display: flex; width: 1100px; justify-content: center; gap: 50px;"">
                            <img src=""images/causal_sequence/coin_causal/coin_causal_8.png"" class=""exp-image"">
                            <img src=""images/causal_sequence/coin_causal/coin_causal_6.png"" class=""exp-image"">
                        </div>","0","part3_final_choice","","coin_causal","","7","8","1"
"","","","","","html-keyboard-response","156","615862","0.0-152.0-0.0","4245254306B9403499FA7F657D3335FA","019ce633-b015-7bdf-a04a-c4071a416421","019ce621-c902-75a6-af36-962d82cab856","","null","
                        <div style=""font-family: Arial; margin-bottom: 20px;""><h3>Which image is more valuable?</h3></div>
                        <div class=""stimulus-container"" style=""display: flex; width: 1100px; justify-content: center; gap: 50px;"">
                            <img src=""images/causal_sequence/package_causal/package_causal_4.png"" class=""exp-image"">
                            <img src=""images/causal_sequence/package_causal/package_causal_6.png"" class=""exp-image"">
                        </div>","null","","","","","","",""
"","","","","","html-button-response","157","616720","0.0-152.0-1.0","4245254306B9403499FA7F657D3335FA","019ce633-b015-7bdf-a04a-c4071a416421","019ce621-c902-75a6-af36-962d82cab856","","857","
                        <div style=""font-family: Arial; margin-bottom: 20px;""><h3>Which image is more valuable?</h3></div>
                        <div class=""stimulus-container"" style=""display: flex; width: 1100px; justify-content: center; gap: 50px;"">
                            <img src=""images/causal_sequence/package_causal/package_causal_4.png"" class=""exp-image"">
                            <img src=""images/causal_sequence/package_causal/package_causal_6.png"" class=""exp-image"">
                        </div>","1","part3_final_choice","","package_causal","","5","6","1"
"","","","","","html-keyboard-response","158","626721","0.0-153.0-0.0","4245254306B9403499FA7F657D3335FA","019ce633-b015-7bdf-a04a-c4071a416421","019ce621-c902-75a6-af36-962d82cab856","","null","
                        <div style=""font-family: Arial; margin-bottom: 20px;""><h3>Which image is more valuable?</h3></div>
                        <div class=""stimulus-container"" style=""display: flex; width: 1100px; justify-content: center; gap: 50px;"">
                            <img src=""images/causal_sequence/museum_causal/museum_causal_4.png"" class=""exp-image"">
                            <img src=""images/causal_sequence/museum_causal/museum_causal_2.png"" class=""exp-image"">
                        </div>","null","","","","","","",""
"","","","","","html-button-response","159","627755","0.0-153.0-1.0","4245254306B9403499FA7F657D3335FA","019ce633-b015-7bdf-a04a-c4071a416421","019ce621-c902-75a6-af36-962d82cab856","","1034","
                        <div style=""font-family: Arial; margin-bottom: 20px;""><h3>Which image is more valuable?</h3></div>
                        <div class=""stimulus-container"" style=""display: flex; width: 1100px; justify-content: center; gap: 50px;"">
                            <img src=""images/causal_sequence/museum_causal/museum_causal_4.png"" class=""exp-image"">
                            <img src=""images/causal_sequence/museum_causal/museum_causal_2.png"" class=""exp-image"">
                        </div>","1","part3_final_choice","","museum_causal","","3","2","-1"
"","","","","","survey-text","160","673160","0.0-154.0","4245254306B9403499FA7F657D3335FA","019ce633-b015-7bdf-a04a-c4071a416421","019ce621-c902-75a6-af36-962d82cab856","","45393","","{""gender"":""MALE"",""age"":""20"",""decision_strategy"":""I decided that the picture with artwork was more valuable then an exit."",""consistency_check"":""I used the same logic.""}","demographics_and_strategy","","","","","",""
"","","","","","instructions","161","676260","0.0-155.0","4245254306B9403499FA7F657D3335FA","019ce633-b015-7bdf-a04a-c4071a416421","019ce621-c902-75a6-af36-962d82cab856","[{""page_index"":0,""viewing_time"":3100}]","3100","","","","","","","","",""
