"success","timeout","failed_images","failed_audio","failed_video","trial_type","trial_index","time_elapsed","internal_node_id","subject_id","study_id","session_id","view_history","rt","stimulus","response","task","image_index","folder","sequence_type","valuable_image_index","reward_type","chosen_image_index","target_X","correct_choice"
"true","false","[]","[]","[]","preload","0","5536","0.0-0.0","A3B83172E928434E9BC83C87525CC2D3","019cf80f-a6bf-7791-ba14-574e788ae29f","019cf80d-4266-7117-8a51-54e13c84aca4","","","","","","","","","","","","",""
"","","","","","instructions","1","18124","0.0-1.0","A3B83172E928434E9BC83C87525CC2D3","019cf80f-a6bf-7791-ba14-574e788ae29f","019cf80d-4266-7117-8a51-54e13c84aca4","[{""page_index"":0,""viewing_time"":12587}]","12588","","","","","","","","","","",""
"","","","","","instructions","2","20853","0.0-2.0","A3B83172E928434E9BC83C87525CC2D3","019cf80f-a6bf-7791-ba14-574e788ae29f","019cf80d-4266-7117-8a51-54e13c84aca4","[{""page_index"":0,""viewing_time"":2729}]","2729","","","","","","","","","","",""
"true","","","","","fullscreen","3","23534","0.0-3.0","A3B83172E928434E9BC83C87525CC2D3","019cf80f-a6bf-7791-ba14-574e788ae29f","019cf80d-4266-7117-8a51-54e13c84aca4","","1676","","","","","","","","","","",""
"","","","","","instructions","4","40513","0.0-4.0","A3B83172E928434E9BC83C87525CC2D3","019cf80f-a6bf-7791-ba14-574e788ae29f","019cf80d-4266-7117-8a51-54e13c84aca4","[{""page_index"":0,""viewing_time"":16978}]","16979","","","","","","","","","","",""
"","","","","","instructions","5","45292","0.0-5.0","A3B83172E928434E9BC83C87525CC2D3","019cf80f-a6bf-7791-ba14-574e788ae29f","019cf80d-4266-7117-8a51-54e13c84aca4","[{""page_index"":0,""viewing_time"":4778}]","4778","","","","","","","","","","",""
"","","","","","html-keyboard-response","6","49304","0.0-6.0","A3B83172E928434E9BC83C87525CC2D3","019cf80f-a6bf-7791-ba14-574e788ae29f","019cf80d-4266-7117-8a51-54e13c84aca4","","null","
                <div class=""stimulus-container"">
                    <img src=""images/instructions/movie_1.png"" class=""exp-image"">
                    <div class=""question-area""></div> 
                </div>","null","","","","","","","","",""
"","","","","","html-button-response","7","51261","0.0-7.0","A3B83172E928434E9BC83C87525CC2D3","019cf80f-a6bf-7791-ba14-574e788ae29f","019cf80d-4266-7117-8a51-54e13c84aca4","","1954","
                <div class=""stimulus-container"">
                    <img src=""images/instructions/movie_1.png"" class=""exp-image"">
                    <div class=""question-area"">
                        <p style=""font-size: 20px; font-weight: bold; margin: 0;"">Was there a person in this image?</p>
                    </div>
                </div>","0","example_question","1","","","","","","",""
"","","","","","html-keyboard-response","8","55281","0.0-8.0","A3B83172E928434E9BC83C87525CC2D3","019cf80f-a6bf-7791-ba14-574e788ae29f","019cf80d-4266-7117-8a51-54e13c84aca4","","null","
                <div class=""stimulus-container"">
                    <img src=""images/instructions/movie_2.png"" class=""exp-image"">
                    <div class=""question-area""></div> 
                </div>","null","","","","","","","","",""
"","","","","","html-button-response","9","56028","0.0-9.0","A3B83172E928434E9BC83C87525CC2D3","019cf80f-a6bf-7791-ba14-574e788ae29f","019cf80d-4266-7117-8a51-54e13c84aca4","","746","
                <div class=""stimulus-container"">
                    <img src=""images/instructions/movie_2.png"" class=""exp-image"">
                    <div class=""question-area"">
                        <p style=""font-size: 20px; font-weight: bold; margin: 0;"">Was there a person in this image?</p>
                    </div>
                </div>","1","example_question","2","","","","","","",""
"","","","","","html-keyboard-response","10","60030","0.0-10.0","A3B83172E928434E9BC83C87525CC2D3","019cf80f-a6bf-7791-ba14-574e788ae29f","019cf80d-4266-7117-8a51-54e13c84aca4","","null","
                <div class=""stimulus-container"">
                    <img src=""images/instructions/movie_3.png"" class=""exp-image"">
                    <div class=""question-area""></div> 
                </div>","null","","","","","","","","",""
"","","","","","html-button-response","11","60579","0.0-11.0","A3B83172E928434E9BC83C87525CC2D3","019cf80f-a6bf-7791-ba14-574e788ae29f","019cf80d-4266-7117-8a51-54e13c84aca4","","548","
                <div class=""stimulus-container"">
                    <img src=""images/instructions/movie_3.png"" class=""exp-image"">
                    <div class=""question-area"">
                        <p style=""font-size: 20px; font-weight: bold; margin: 0;"">Was there a person in this image?</p>
                    </div>
                </div>","0","example_question","3","","","","","","",""
"","","","","","html-keyboard-response","12","64593","0.0-12.0","A3B83172E928434E9BC83C87525CC2D3","019cf80f-a6bf-7791-ba14-574e788ae29f","019cf80d-4266-7117-8a51-54e13c84aca4","","null","
                <div class=""stimulus-container"">
                    <img src=""images/instructions/movie_4.png"" class=""exp-image"">
                    <div class=""question-area""></div> 
                </div>","null","","","","","","","","",""
"","","","","","html-button-response","13","65072","0.0-13.0","A3B83172E928434E9BC83C87525CC2D3","019cf80f-a6bf-7791-ba14-574e788ae29f","019cf80d-4266-7117-8a51-54e13c84aca4","","478","
                <div class=""stimulus-container"">
                    <img src=""images/instructions/movie_4.png"" class=""exp-image"">
                    <div class=""question-area"">
                        <p style=""font-size: 20px; font-weight: bold; margin: 0;"">Was there a person in this image?</p>
                    </div>
                </div>","0","example_question","4","","","","","","",""
"","","","","","instructions","14","66997","0.0-14.0","A3B83172E928434E9BC83C87525CC2D3","019cf80f-a6bf-7791-ba14-574e788ae29f","019cf80d-4266-7117-8a51-54e13c84aca4","[{""page_index"":0,""viewing_time"":1923}]","1924","","","","","","","","","","",""
"","","","","","instructions","15","70766","0.0-15.0","A3B83172E928434E9BC83C87525CC2D3","019cf80f-a6bf-7791-ba14-574e788ae29f","019cf80d-4266-7117-8a51-54e13c84aca4","[{""page_index"":0,""viewing_time"":3767}]","3768","","","","","","","","","","",""
"","","","","","html-keyboard-response","16","71777","0.0-16.0","A3B83172E928434E9BC83C87525CC2D3","019cf80f-a6bf-7791-ba14-574e788ae29f","019cf80d-4266-7117-8a51-54e13c84aca4","","null","<div style=""background-color: white; width: 100vw; height: 100vh;""></div>","null","","","","","","","","",""
"","","","","","html-keyboard-response","17","76790","0.0-17.0","A3B83172E928434E9BC83C87525CC2D3","019cf80f-a6bf-7791-ba14-574e788ae29f","019cf80d-4266-7117-8a51-54e13c84aca4","","null","
                <div class=""stimulus-container"">
                    <img src=""images/semantic_sequence/cat_care_semantic/cat_care_semantic_1.png"" class=""exp-image"">
                    <div class=""question-area""></div> 
                </div>","null","","","","","","","","",""
"","","","","","html-button-response","18","77645","0.0-18.0","A3B83172E928434E9BC83C87525CC2D3","019cf80f-a6bf-7791-ba14-574e788ae29f","019cf80d-4266-7117-8a51-54e13c84aca4","","853","
                <div class=""stimulus-container"">
                    <img src=""images/semantic_sequence/cat_care_semantic/cat_care_semantic_1.png"" class=""exp-image"">
                    <div class=""question-area"">
                        <p style=""font-size: 20px; font-weight: bold; margin: 0;"">Is there a person in this image?</p>
                    </div>
                </div>","0","main_experiment_trial","1","cat_care_semantic","semantic_sequence","","","","",""
"","","","","","html-keyboard-response","19","82650","0.0-19.0","A3B83172E928434E9BC83C87525CC2D3","019cf80f-a6bf-7791-ba14-574e788ae29f","019cf80d-4266-7117-8a51-54e13c84aca4","","null","
                <div class=""stimulus-container"">
                    <img src=""images/semantic_sequence/cat_care_semantic/cat_care_semantic_2.png"" class=""exp-image"">
                    <div class=""question-area""></div> 
                </div>","null","","","","","","","","",""
"","","","","","html-button-response","20","83131","0.0-20.0","A3B83172E928434E9BC83C87525CC2D3","019cf80f-a6bf-7791-ba14-574e788ae29f","019cf80d-4266-7117-8a51-54e13c84aca4","","479","
                <div class=""stimulus-container"">
                    <img src=""images/semantic_sequence/cat_care_semantic/cat_care_semantic_2.png"" class=""exp-image"">
                    <div class=""question-area"">
                        <p style=""font-size: 20px; font-weight: bold; margin: 0;"">Is there a person in this image?</p>
                    </div>
                </div>","0","main_experiment_trial","2","cat_care_semantic","semantic_sequence","","","","",""
"","","","","","html-keyboard-response","21","88144","0.0-21.0","A3B83172E928434E9BC83C87525CC2D3","019cf80f-a6bf-7791-ba14-574e788ae29f","019cf80d-4266-7117-8a51-54e13c84aca4","","null","
                <div class=""stimulus-container"">
                    <img src=""images/semantic_sequence/cat_care_semantic/cat_care_semantic_3.png"" class=""exp-image"">
                    <div class=""question-area""></div> 
                </div>","null","","","","","","","","",""
"","","","","","html-button-response","22","89570","0.0-22.0","A3B83172E928434E9BC83C87525CC2D3","019cf80f-a6bf-7791-ba14-574e788ae29f","019cf80d-4266-7117-8a51-54e13c84aca4","","1426","
                <div class=""stimulus-container"">
                    <img src=""images/semantic_sequence/cat_care_semantic/cat_care_semantic_3.png"" class=""exp-image"">
                    <div class=""question-area"">
                        <p style=""font-size: 20px; font-weight: bold; margin: 0;"">Is there a person in this image?</p>
                    </div>
                </div>","0","main_experiment_trial","3","cat_care_semantic","semantic_sequence","","","","",""
"","","","","","html-keyboard-response","23","94572","0.0-23.0","A3B83172E928434E9BC83C87525CC2D3","019cf80f-a6bf-7791-ba14-574e788ae29f","019cf80d-4266-7117-8a51-54e13c84aca4","","null","
                <div class=""stimulus-container"">
                    <img src=""images/semantic_sequence/cat_care_semantic/cat_care_semantic_4.png"" class=""exp-image"">
                    <div class=""question-area""></div> 
                </div>","null","","","","","","","","",""
"","","","","","html-button-response","24","95011","0.0-24.0","A3B83172E928434E9BC83C87525CC2D3","019cf80f-a6bf-7791-ba14-574e788ae29f","019cf80d-4266-7117-8a51-54e13c84aca4","","438","
                <div class=""stimulus-container"">
                    <img src=""images/semantic_sequence/cat_care_semantic/cat_care_semantic_4.png"" class=""exp-image"">
                    <div class=""question-area"">
                        <p style=""font-size: 20px; font-weight: bold; margin: 0;"">Is there a person in this image?</p>
                    </div>
                </div>","1","main_experiment_trial","4","cat_care_semantic","semantic_sequence","","","","",""
"","","","","","html-keyboard-response","25","100015","0.0-25.0","A3B83172E928434E9BC83C87525CC2D3","019cf80f-a6bf-7791-ba14-574e788ae29f","019cf80d-4266-7117-8a51-54e13c84aca4","","null","
                <div class=""stimulus-container"">
                    <img src=""images/semantic_sequence/cat_care_semantic/cat_care_semantic_5.png"" class=""exp-image"">
                    <div class=""question-area""></div> 
                </div>","null","","","","","","","","",""
"","","","","","html-button-response","26","101918","0.0-26.0","A3B83172E928434E9BC83C87525CC2D3","019cf80f-a6bf-7791-ba14-574e788ae29f","019cf80d-4266-7117-8a51-54e13c84aca4","","1902","
                <div class=""stimulus-container"">
                    <img src=""images/semantic_sequence/cat_care_semantic/cat_care_semantic_5.png"" class=""exp-image"">
                    <div class=""question-area"">
                        <p style=""font-size: 20px; font-weight: bold; margin: 0;"">Is there a person in this image?</p>
                    </div>
                </div>","1","main_experiment_trial","5","cat_care_semantic","semantic_sequence","","","","",""
"","","","","","html-keyboard-response","27","106922","0.0-27.0","A3B83172E928434E9BC83C87525CC2D3","019cf80f-a6bf-7791-ba14-574e788ae29f","019cf80d-4266-7117-8a51-54e13c84aca4","","null","
                <div class=""stimulus-container"">
                    <img src=""images/semantic_sequence/cat_care_semantic/cat_care_semantic_6.png"" class=""exp-image"">
                    <div class=""question-area""></div> 
                </div>","null","","","","","","","","",""
"","","","","","html-button-response","28","107316","0.0-28.0","A3B83172E928434E9BC83C87525CC2D3","019cf80f-a6bf-7791-ba14-574e788ae29f","019cf80d-4266-7117-8a51-54e13c84aca4","","392","
                <div class=""stimulus-container"">
                    <img src=""images/semantic_sequence/cat_care_semantic/cat_care_semantic_6.png"" class=""exp-image"">
                    <div class=""question-area"">
                        <p style=""font-size: 20px; font-weight: bold; margin: 0;"">Is there a person in this image?</p>
                    </div>
                </div>","1","main_experiment_trial","6","cat_care_semantic","semantic_sequence","","","","",""
"","","","","","html-keyboard-response","29","112322","0.0-29.0","A3B83172E928434E9BC83C87525CC2D3","019cf80f-a6bf-7791-ba14-574e788ae29f","019cf80d-4266-7117-8a51-54e13c84aca4","","null","
                <div class=""stimulus-container"">
                    <img src=""images/semantic_sequence/cat_care_semantic/cat_care_semantic_7.png"" class=""exp-image"">
                    <div class=""question-area""></div> 
                </div>","null","","","","","","","","",""
"","","","","","html-button-response","30","112790","0.0-30.0","A3B83172E928434E9BC83C87525CC2D3","019cf80f-a6bf-7791-ba14-574e788ae29f","019cf80d-4266-7117-8a51-54e13c84aca4","","466","
                <div class=""stimulus-container"">
                    <img src=""images/semantic_sequence/cat_care_semantic/cat_care_semantic_7.png"" class=""exp-image"">
                    <div class=""question-area"">
                        <p style=""font-size: 20px; font-weight: bold; margin: 0;"">Is there a person in this image?</p>
                    </div>
                </div>","1","main_experiment_trial","7","cat_care_semantic","semantic_sequence","","","","",""
"","","","","","html-keyboard-response","31","117792","0.0-31.0","A3B83172E928434E9BC83C87525CC2D3","019cf80f-a6bf-7791-ba14-574e788ae29f","019cf80d-4266-7117-8a51-54e13c84aca4","","null","
                <div class=""stimulus-container"">
                    <img src=""images/semantic_sequence/cat_care_semantic/cat_care_semantic_8.png"" class=""exp-image"">
                    <div class=""question-area""></div> 
                </div>","null","","","","","","","","",""
"","","","","","html-button-response","32","118234","0.0-32.0","A3B83172E928434E9BC83C87525CC2D3","019cf80f-a6bf-7791-ba14-574e788ae29f","019cf80d-4266-7117-8a51-54e13c84aca4","","441","
                <div class=""stimulus-container"">
                    <img src=""images/semantic_sequence/cat_care_semantic/cat_care_semantic_8.png"" class=""exp-image"">
                    <div class=""question-area"">
                        <p style=""font-size: 20px; font-weight: bold; margin: 0;"">Is there a person in this image?</p>
                    </div>
                </div>","1","main_experiment_trial","8","cat_care_semantic","semantic_sequence","","","","",""
"","","","","","html-keyboard-response","33","123242","0.0-33.0","A3B83172E928434E9BC83C87525CC2D3","019cf80f-a6bf-7791-ba14-574e788ae29f","019cf80d-4266-7117-8a51-54e13c84aca4","","null","
                <div class=""stimulus-container"">
                    <img src=""images/semantic_sequence/cat_care_semantic/cat_care_semantic_9.png"" class=""exp-image"">
                    <div class=""question-area""></div> 
                </div>","null","","","","","","","","",""
"","","","","","html-button-response","34","123661","0.0-34.0","A3B83172E928434E9BC83C87525CC2D3","019cf80f-a6bf-7791-ba14-574e788ae29f","019cf80d-4266-7117-8a51-54e13c84aca4","","418","
                <div class=""stimulus-container"">
                    <img src=""images/semantic_sequence/cat_care_semantic/cat_care_semantic_9.png"" class=""exp-image"">
                    <div class=""question-area"">
                        <p style=""font-size: 20px; font-weight: bold; margin: 0;"">Is there a person in this image?</p>
                    </div>
                </div>","1","main_experiment_trial","9","cat_care_semantic","semantic_sequence","","","","",""
"","","","","","html-keyboard-response","35","128669","0.0-35.0","A3B83172E928434E9BC83C87525CC2D3","019cf80f-a6bf-7791-ba14-574e788ae29f","019cf80d-4266-7117-8a51-54e13c84aca4","","null","
                <div class=""stimulus-container"">
                    <img src=""images/semantic_sequence/cat_care_semantic/cat_care_semantic_ten.png"" class=""exp-image"">
                    <div class=""question-area""></div> 
                </div>","null","","","","","","","","",""
"","","","","","html-button-response","36","129096","0.0-36.0","A3B83172E928434E9BC83C87525CC2D3","019cf80f-a6bf-7791-ba14-574e788ae29f","019cf80d-4266-7117-8a51-54e13c84aca4","","426","
                <div class=""stimulus-container"">
                    <img src=""images/semantic_sequence/cat_care_semantic/cat_care_semantic_ten.png"" class=""exp-image"">
                    <div class=""question-area"">
                        <p style=""font-size: 20px; font-weight: bold; margin: 0;"">Is there a person in this image?</p>
                    </div>
                </div>","1","main_experiment_trial","ten","cat_care_semantic","semantic_sequence","","","","",""
"","","","","","html-keyboard-response","37","130114","0.0-37.0","A3B83172E928434E9BC83C87525CC2D3","019cf80f-a6bf-7791-ba14-574e788ae29f","019cf80d-4266-7117-8a51-54e13c84aca4","","null","<div style=""background-color: white; width: 100vw; height: 100vh;""></div>","null","","","","","","","","",""
"","","","","","html-keyboard-response","38","135130","0.0-38.0","A3B83172E928434E9BC83C87525CC2D3","019cf80f-a6bf-7791-ba14-574e788ae29f","019cf80d-4266-7117-8a51-54e13c84aca4","","null","
                <div class=""stimulus-container"">
                    <img src=""images/semantic_sequence/physical_activity_semantic/physical_activity_semantic_1.png"" class=""exp-image"">
                    <div class=""question-area""></div> 
                </div>","null","","","","","","","","",""
"","","","","","html-button-response","39","136230","0.0-39.0","A3B83172E928434E9BC83C87525CC2D3","019cf80f-a6bf-7791-ba14-574e788ae29f","019cf80d-4266-7117-8a51-54e13c84aca4","","1098","
                <div class=""stimulus-container"">
                    <img src=""images/semantic_sequence/physical_activity_semantic/physical_activity_semantic_1.png"" class=""exp-image"">
                    <div class=""question-area"">
                        <p style=""font-size: 20px; font-weight: bold; margin: 0;"">Is there a person in this image?</p>
                    </div>
                </div>","0","main_experiment_trial","1","physical_activity_semantic","semantic_sequence","","","","",""
"","","","","","html-keyboard-response","40","141244","0.0-40.0","A3B83172E928434E9BC83C87525CC2D3","019cf80f-a6bf-7791-ba14-574e788ae29f","019cf80d-4266-7117-8a51-54e13c84aca4","","null","
                <div class=""stimulus-container"">
                    <img src=""images/semantic_sequence/physical_activity_semantic/physical_activity_semantic_2.png"" class=""exp-image"">
                    <div class=""question-area""></div> 
                </div>","null","","","","","","","","",""
"","","","","","html-button-response","41","141684","0.0-41.0","A3B83172E928434E9BC83C87525CC2D3","019cf80f-a6bf-7791-ba14-574e788ae29f","019cf80d-4266-7117-8a51-54e13c84aca4","","439","
                <div class=""stimulus-container"">
                    <img src=""images/semantic_sequence/physical_activity_semantic/physical_activity_semantic_2.png"" class=""exp-image"">
                    <div class=""question-area"">
                        <p style=""font-size: 20px; font-weight: bold; margin: 0;"">Is there a person in this image?</p>
                    </div>
                </div>","0","main_experiment_trial","2","physical_activity_semantic","semantic_sequence","","","","",""
"","","","","","html-keyboard-response","42","146686","0.0-42.0","A3B83172E928434E9BC83C87525CC2D3","019cf80f-a6bf-7791-ba14-574e788ae29f","019cf80d-4266-7117-8a51-54e13c84aca4","","null","
                <div class=""stimulus-container"">
                    <img src=""images/semantic_sequence/physical_activity_semantic/physical_activity_semantic_3.png"" class=""exp-image"">
                    <div class=""question-area""></div> 
                </div>","null","","","","","","","","",""
"","","","","","html-button-response","43","147523","0.0-43.0","A3B83172E928434E9BC83C87525CC2D3","019cf80f-a6bf-7791-ba14-574e788ae29f","019cf80d-4266-7117-8a51-54e13c84aca4","","836","
                <div class=""stimulus-container"">
                    <img src=""images/semantic_sequence/physical_activity_semantic/physical_activity_semantic_3.png"" class=""exp-image"">
                    <div class=""question-area"">
                        <p style=""font-size: 20px; font-weight: bold; margin: 0;"">Is there a person in this image?</p>
                    </div>
                </div>","0","main_experiment_trial","3","physical_activity_semantic","semantic_sequence","","","","",""
"","","","","","html-keyboard-response","44","152525","0.0-44.0","A3B83172E928434E9BC83C87525CC2D3","019cf80f-a6bf-7791-ba14-574e788ae29f","019cf80d-4266-7117-8a51-54e13c84aca4","","null","
                <div class=""stimulus-container"">
                    <img src=""images/semantic_sequence/physical_activity_semantic/physical_activity_semantic_4.png"" class=""exp-image"">
                    <div class=""question-area""></div> 
                </div>","null","","","","","","","","",""
"","","","","","html-button-response","45","152969","0.0-45.0","A3B83172E928434E9BC83C87525CC2D3","019cf80f-a6bf-7791-ba14-574e788ae29f","019cf80d-4266-7117-8a51-54e13c84aca4","","444","
                <div class=""stimulus-container"">
                    <img src=""images/semantic_sequence/physical_activity_semantic/physical_activity_semantic_4.png"" class=""exp-image"">
                    <div class=""question-area"">
                        <p style=""font-size: 20px; font-weight: bold; margin: 0;"">Is there a person in this image?</p>
                    </div>
                </div>","0","main_experiment_trial","4","physical_activity_semantic","semantic_sequence","","","","",""
"","","","","","html-keyboard-response","46","157975","0.0-46.0","A3B83172E928434E9BC83C87525CC2D3","019cf80f-a6bf-7791-ba14-574e788ae29f","019cf80d-4266-7117-8a51-54e13c84aca4","","null","
                <div class=""stimulus-container"">
                    <img src=""images/semantic_sequence/physical_activity_semantic/physical_activity_semantic_5.png"" class=""exp-image"">
                    <div class=""question-area""></div> 
                </div>","null","","","","","","","","",""
"","","","","","html-button-response","47","159441","0.0-47.0","A3B83172E928434E9BC83C87525CC2D3","019cf80f-a6bf-7791-ba14-574e788ae29f","019cf80d-4266-7117-8a51-54e13c84aca4","","1465","
                <div class=""stimulus-container"">
                    <img src=""images/semantic_sequence/physical_activity_semantic/physical_activity_semantic_5.png"" class=""exp-image"">
                    <div class=""question-area"">
                        <p style=""font-size: 20px; font-weight: bold; margin: 0;"">Is there a person in this image?</p>
                    </div>
                </div>","0","main_experiment_trial","5","physical_activity_semantic","semantic_sequence","","","","",""
"","","","","","html-keyboard-response","48","164442","0.0-48.0","A3B83172E928434E9BC83C87525CC2D3","019cf80f-a6bf-7791-ba14-574e788ae29f","019cf80d-4266-7117-8a51-54e13c84aca4","","null","
                <div class=""stimulus-container"">
                    <img src=""images/semantic_sequence/physical_activity_semantic/physical_activity_semantic_6.png"" class=""exp-image"">
                    <div class=""question-area""></div> 
                </div>","null","","","","","","","","",""
"","","","","","html-button-response","49","165095","0.0-49.0","A3B83172E928434E9BC83C87525CC2D3","019cf80f-a6bf-7791-ba14-574e788ae29f","019cf80d-4266-7117-8a51-54e13c84aca4","","651","
                <div class=""stimulus-container"">
                    <img src=""images/semantic_sequence/physical_activity_semantic/physical_activity_semantic_6.png"" class=""exp-image"">
                    <div class=""question-area"">
                        <p style=""font-size: 20px; font-weight: bold; margin: 0;"">Is there a person in this image?</p>
                    </div>
                </div>","0","main_experiment_trial","6","physical_activity_semantic","semantic_sequence","","","","",""
"","","","","","html-keyboard-response","50","170096","0.0-50.0","A3B83172E928434E9BC83C87525CC2D3","019cf80f-a6bf-7791-ba14-574e788ae29f","019cf80d-4266-7117-8a51-54e13c84aca4","","null","
                <div class=""stimulus-container"">
                    <img src=""images/semantic_sequence/physical_activity_semantic/physical_activity_semantic_7.png"" class=""exp-image"">
                    <div class=""question-area""></div> 
                </div>","null","","","","","","","","",""
"","","","","","html-button-response","51","170532","0.0-51.0","A3B83172E928434E9BC83C87525CC2D3","019cf80f-a6bf-7791-ba14-574e788ae29f","019cf80d-4266-7117-8a51-54e13c84aca4","","435","
                <div class=""stimulus-container"">
                    <img src=""images/semantic_sequence/physical_activity_semantic/physical_activity_semantic_7.png"" class=""exp-image"">
                    <div class=""question-area"">
                        <p style=""font-size: 20px; font-weight: bold; margin: 0;"">Is there a person in this image?</p>
                    </div>
                </div>","0","main_experiment_trial","7","physical_activity_semantic","semantic_sequence","","","","",""
"","","","","","html-keyboard-response","52","175535","0.0-52.0","A3B83172E928434E9BC83C87525CC2D3","019cf80f-a6bf-7791-ba14-574e788ae29f","019cf80d-4266-7117-8a51-54e13c84aca4","","null","
                <div class=""stimulus-container"">
                    <img src=""images/semantic_sequence/physical_activity_semantic/physical_activity_semantic_8.png"" class=""exp-image"">
                    <div class=""question-area""></div> 
                </div>","null","","","","","","","","",""
"","","","","","html-button-response","53","175987","0.0-53.0","A3B83172E928434E9BC83C87525CC2D3","019cf80f-a6bf-7791-ba14-574e788ae29f","019cf80d-4266-7117-8a51-54e13c84aca4","","451","
                <div class=""stimulus-container"">
                    <img src=""images/semantic_sequence/physical_activity_semantic/physical_activity_semantic_8.png"" class=""exp-image"">
                    <div class=""question-area"">
                        <p style=""font-size: 20px; font-weight: bold; margin: 0;"">Is there a person in this image?</p>
                    </div>
                </div>","0","main_experiment_trial","8","physical_activity_semantic","semantic_sequence","","","","",""
"","","","","","html-keyboard-response","54","180989","0.0-54.0","A3B83172E928434E9BC83C87525CC2D3","019cf80f-a6bf-7791-ba14-574e788ae29f","019cf80d-4266-7117-8a51-54e13c84aca4","","null","
                <div class=""stimulus-container"">
                    <img src=""images/semantic_sequence/physical_activity_semantic/physical_activity_semantic_9.png"" class=""exp-image"">
                    <div class=""question-area""></div> 
                </div>","null","","","","","","","","",""
"","","","","","html-button-response","55","181431","0.0-55.0","A3B83172E928434E9BC83C87525CC2D3","019cf80f-a6bf-7791-ba14-574e788ae29f","019cf80d-4266-7117-8a51-54e13c84aca4","","441","
                <div class=""stimulus-container"">
                    <img src=""images/semantic_sequence/physical_activity_semantic/physical_activity_semantic_9.png"" class=""exp-image"">
                    <div class=""question-area"">
                        <p style=""font-size: 20px; font-weight: bold; margin: 0;"">Is there a person in this image?</p>
                    </div>
                </div>","0","main_experiment_trial","9","physical_activity_semantic","semantic_sequence","","","","",""
"","","","","","html-keyboard-response","56","186436","0.0-56.0","A3B83172E928434E9BC83C87525CC2D3","019cf80f-a6bf-7791-ba14-574e788ae29f","019cf80d-4266-7117-8a51-54e13c84aca4","","null","
                <div class=""stimulus-container"">
                    <img src=""images/semantic_sequence/physical_activity_semantic/physical_activity_semantic_ten.png"" class=""exp-image"">
                    <div class=""question-area""></div> 
                </div>","null","","","","","","","","",""
"","","","","","html-button-response","57","187020","0.0-57.0","A3B83172E928434E9BC83C87525CC2D3","019cf80f-a6bf-7791-ba14-574e788ae29f","019cf80d-4266-7117-8a51-54e13c84aca4","","583","
                <div class=""stimulus-container"">
                    <img src=""images/semantic_sequence/physical_activity_semantic/physical_activity_semantic_ten.png"" class=""exp-image"">
                    <div class=""question-area"">
                        <p style=""font-size: 20px; font-weight: bold; margin: 0;"">Is there a person in this image?</p>
                    </div>
                </div>","0","main_experiment_trial","ten","physical_activity_semantic","semantic_sequence","","","","",""
"","","","","","html-keyboard-response","58","188035","0.0-58.0","A3B83172E928434E9BC83C87525CC2D3","019cf80f-a6bf-7791-ba14-574e788ae29f","019cf80d-4266-7117-8a51-54e13c84aca4","","null","<div style=""background-color: white; width: 100vw; height: 100vh;""></div>","null","","","","","","","","",""
"","","","","","html-keyboard-response","59","193050","0.0-59.0","A3B83172E928434E9BC83C87525CC2D3","019cf80f-a6bf-7791-ba14-574e788ae29f","019cf80d-4266-7117-8a51-54e13c84aca4","","null","
                <div class=""stimulus-container"">
                    <img src=""images/schematic_sequence/restaurant_scheme/restaurant_scheme_1.png"" class=""exp-image"">
                    <div class=""question-area""></div> 
                </div>","null","","","","","","","","",""
"","","","","","html-button-response","60","193533","0.0-60.0","A3B83172E928434E9BC83C87525CC2D3","019cf80f-a6bf-7791-ba14-574e788ae29f","019cf80d-4266-7117-8a51-54e13c84aca4","","482","
                <div class=""stimulus-container"">
                    <img src=""images/schematic_sequence/restaurant_scheme/restaurant_scheme_1.png"" class=""exp-image"">
                    <div class=""question-area"">
                        <p style=""font-size: 20px; font-weight: bold; margin: 0;"">Is there a person in this image?</p>
                    </div>
                </div>","0","main_experiment_trial","1","restaurant_scheme","schematic_sequence","","","","",""
"","","","","","html-keyboard-response","61","198552","0.0-61.0","A3B83172E928434E9BC83C87525CC2D3","019cf80f-a6bf-7791-ba14-574e788ae29f","019cf80d-4266-7117-8a51-54e13c84aca4","","null","
                <div class=""stimulus-container"">
                    <img src=""images/schematic_sequence/restaurant_scheme/restaurant_scheme_2.png"" class=""exp-image"">
                    <div class=""question-area""></div> 
                </div>","null","","","","","","","","",""
"","","","","","html-button-response","62","199051","0.0-62.0","A3B83172E928434E9BC83C87525CC2D3","019cf80f-a6bf-7791-ba14-574e788ae29f","019cf80d-4266-7117-8a51-54e13c84aca4","","497","
                <div class=""stimulus-container"">
                    <img src=""images/schematic_sequence/restaurant_scheme/restaurant_scheme_2.png"" class=""exp-image"">
                    <div class=""question-area"">
                        <p style=""font-size: 20px; font-weight: bold; margin: 0;"">Is there a person in this image?</p>
                    </div>
                </div>","1","main_experiment_trial","2","restaurant_scheme","schematic_sequence","","","","",""
"","","","","","html-keyboard-response","63","204064","0.0-63.0","A3B83172E928434E9BC83C87525CC2D3","019cf80f-a6bf-7791-ba14-574e788ae29f","019cf80d-4266-7117-8a51-54e13c84aca4","","null","
                <div class=""stimulus-container"">
                    <img src=""images/schematic_sequence/restaurant_scheme/restaurant_scheme_3.png"" class=""exp-image"">
                    <div class=""question-area""></div> 
                </div>","null","","","","","","","","",""
"","","","","","html-button-response","64","204470","0.0-64.0","A3B83172E928434E9BC83C87525CC2D3","019cf80f-a6bf-7791-ba14-574e788ae29f","019cf80d-4266-7117-8a51-54e13c84aca4","","404","
                <div class=""stimulus-container"">
                    <img src=""images/schematic_sequence/restaurant_scheme/restaurant_scheme_3.png"" class=""exp-image"">
                    <div class=""question-area"">
                        <p style=""font-size: 20px; font-weight: bold; margin: 0;"">Is there a person in this image?</p>
                    </div>
                </div>","1","main_experiment_trial","3","restaurant_scheme","schematic_sequence","","","","",""
"","","","","","html-keyboard-response","65","209480","0.0-65.0","A3B83172E928434E9BC83C87525CC2D3","019cf80f-a6bf-7791-ba14-574e788ae29f","019cf80d-4266-7117-8a51-54e13c84aca4","","null","
                <div class=""stimulus-container"">
                    <img src=""images/schematic_sequence/restaurant_scheme/restaurant_scheme_4.png"" class=""exp-image"">
                    <div class=""question-area""></div> 
                </div>","null","","","","","","","","",""
"","","","","","html-button-response","66","210636","0.0-66.0","A3B83172E928434E9BC83C87525CC2D3","019cf80f-a6bf-7791-ba14-574e788ae29f","019cf80d-4266-7117-8a51-54e13c84aca4","","1154","
                <div class=""stimulus-container"">
                    <img src=""images/schematic_sequence/restaurant_scheme/restaurant_scheme_4.png"" class=""exp-image"">
                    <div class=""question-area"">
                        <p style=""font-size: 20px; font-weight: bold; margin: 0;"">Is there a person in this image?</p>
                    </div>
                </div>","0","main_experiment_trial","4","restaurant_scheme","schematic_sequence","","","","",""
"","","","","","html-keyboard-response","67","215650","0.0-67.0","A3B83172E928434E9BC83C87525CC2D3","019cf80f-a6bf-7791-ba14-574e788ae29f","019cf80d-4266-7117-8a51-54e13c84aca4","","null","
                <div class=""stimulus-container"">
                    <img src=""images/schematic_sequence/restaurant_scheme/restaurant_scheme_5.png"" class=""exp-image"">
                    <div class=""question-area""></div> 
                </div>","null","","","","","","","","",""
"","","","","","html-button-response","68","216115","0.0-68.0","A3B83172E928434E9BC83C87525CC2D3","019cf80f-a6bf-7791-ba14-574e788ae29f","019cf80d-4266-7117-8a51-54e13c84aca4","","464","
                <div class=""stimulus-container"">
                    <img src=""images/schematic_sequence/restaurant_scheme/restaurant_scheme_5.png"" class=""exp-image"">
                    <div class=""question-area"">
                        <p style=""font-size: 20px; font-weight: bold; margin: 0;"">Is there a person in this image?</p>
                    </div>
                </div>","0","main_experiment_trial","5","restaurant_scheme","schematic_sequence","","","","",""
"","","","","","html-keyboard-response","69","221117","0.0-69.0","A3B83172E928434E9BC83C87525CC2D3","019cf80f-a6bf-7791-ba14-574e788ae29f","019cf80d-4266-7117-8a51-54e13c84aca4","","null","
                <div class=""stimulus-container"">
                    <img src=""images/schematic_sequence/restaurant_scheme/restaurant_scheme_6.png"" class=""exp-image"">
                    <div class=""question-area""></div> 
                </div>","null","","","","","","","","",""
"","","","","","html-button-response","70","221704","0.0-70.0","A3B83172E928434E9BC83C87525CC2D3","019cf80f-a6bf-7791-ba14-574e788ae29f","019cf80d-4266-7117-8a51-54e13c84aca4","","586","
                <div class=""stimulus-container"">
                    <img src=""images/schematic_sequence/restaurant_scheme/restaurant_scheme_6.png"" class=""exp-image"">
                    <div class=""question-area"">
                        <p style=""font-size: 20px; font-weight: bold; margin: 0;"">Is there a person in this image?</p>
                    </div>
                </div>","1","main_experiment_trial","6","restaurant_scheme","schematic_sequence","","","","",""
"","","","","","html-keyboard-response","71","226710","0.0-71.0","A3B83172E928434E9BC83C87525CC2D3","019cf80f-a6bf-7791-ba14-574e788ae29f","019cf80d-4266-7117-8a51-54e13c84aca4","","null","
                <div class=""stimulus-container"">
                    <img src=""images/schematic_sequence/restaurant_scheme/restaurant_scheme_7.png"" class=""exp-image"">
                    <div class=""question-area""></div> 
                </div>","null","","","","","","","","",""
"","","","","","html-button-response","72","227503","0.0-72.0","A3B83172E928434E9BC83C87525CC2D3","019cf80f-a6bf-7791-ba14-574e788ae29f","019cf80d-4266-7117-8a51-54e13c84aca4","","791","
                <div class=""stimulus-container"">
                    <img src=""images/schematic_sequence/restaurant_scheme/restaurant_scheme_7.png"" class=""exp-image"">
                    <div class=""question-area"">
                        <p style=""font-size: 20px; font-weight: bold; margin: 0;"">Is there a person in this image?</p>
                    </div>
                </div>","1","main_experiment_trial","7","restaurant_scheme","schematic_sequence","","","","",""
"","","","","","html-keyboard-response","73","232515","0.0-73.0","A3B83172E928434E9BC83C87525CC2D3","019cf80f-a6bf-7791-ba14-574e788ae29f","019cf80d-4266-7117-8a51-54e13c84aca4","","null","
                <div class=""stimulus-container"">
                    <img src=""images/schematic_sequence/restaurant_scheme/restaurant_scheme_8.png"" class=""exp-image"">
                    <div class=""question-area""></div> 
                </div>","null","","","","","","","","",""
"","","","","","html-button-response","74","232955","0.0-74.0","A3B83172E928434E9BC83C87525CC2D3","019cf80f-a6bf-7791-ba14-574e788ae29f","019cf80d-4266-7117-8a51-54e13c84aca4","","438","
                <div class=""stimulus-container"">
                    <img src=""images/schematic_sequence/restaurant_scheme/restaurant_scheme_8.png"" class=""exp-image"">
                    <div class=""question-area"">
                        <p style=""font-size: 20px; font-weight: bold; margin: 0;"">Is there a person in this image?</p>
                    </div>
                </div>","1","main_experiment_trial","8","restaurant_scheme","schematic_sequence","","","","",""
"","","","","","html-keyboard-response","75","237967","0.0-75.0","A3B83172E928434E9BC83C87525CC2D3","019cf80f-a6bf-7791-ba14-574e788ae29f","019cf80d-4266-7117-8a51-54e13c84aca4","","null","
                <div class=""stimulus-container"">
                    <img src=""images/schematic_sequence/restaurant_scheme/restaurant_scheme_9.png"" class=""exp-image"">
                    <div class=""question-area""></div> 
                </div>","null","","","","","","","","",""
"","","","","","html-button-response","76","238396","0.0-76.0","A3B83172E928434E9BC83C87525CC2D3","019cf80f-a6bf-7791-ba14-574e788ae29f","019cf80d-4266-7117-8a51-54e13c84aca4","","428","
                <div class=""stimulus-container"">
                    <img src=""images/schematic_sequence/restaurant_scheme/restaurant_scheme_9.png"" class=""exp-image"">
                    <div class=""question-area"">
                        <p style=""font-size: 20px; font-weight: bold; margin: 0;"">Is there a person in this image?</p>
                    </div>
                </div>","0","main_experiment_trial","9","restaurant_scheme","schematic_sequence","","","","",""
"","","","","","html-keyboard-response","77","243413","0.0-77.0","A3B83172E928434E9BC83C87525CC2D3","019cf80f-a6bf-7791-ba14-574e788ae29f","019cf80d-4266-7117-8a51-54e13c84aca4","","null","
                <div class=""stimulus-container"">
                    <img src=""images/schematic_sequence/restaurant_scheme/restaurant_scheme_ten.png"" class=""exp-image"">
                    <div class=""question-area""></div> 
                </div>","null","","","","","","","","",""
"","","","","","html-button-response","78","244013","0.0-78.0","A3B83172E928434E9BC83C87525CC2D3","019cf80f-a6bf-7791-ba14-574e788ae29f","019cf80d-4266-7117-8a51-54e13c84aca4","","599","
                <div class=""stimulus-container"">
                    <img src=""images/schematic_sequence/restaurant_scheme/restaurant_scheme_ten.png"" class=""exp-image"">
                    <div class=""question-area"">
                        <p style=""font-size: 20px; font-weight: bold; margin: 0;"">Is there a person in this image?</p>
                    </div>
                </div>","0","main_experiment_trial","ten","restaurant_scheme","schematic_sequence","","","","",""
"","","","","","html-keyboard-response","79","245017","0.0-79.0","A3B83172E928434E9BC83C87525CC2D3","019cf80f-a6bf-7791-ba14-574e788ae29f","019cf80d-4266-7117-8a51-54e13c84aca4","","null","<div style=""background-color: white; width: 100vw; height: 100vh;""></div>","null","","","","","","","","",""
"","","","","","html-keyboard-response","80","250020","0.0-80.0","A3B83172E928434E9BC83C87525CC2D3","019cf80f-a6bf-7791-ba14-574e788ae29f","019cf80d-4266-7117-8a51-54e13c84aca4","","null","
                <div class=""stimulus-container"">
                    <img src=""images/semantic_sequence/exploring_nature_semantic/exploring_nature_semantic_1.png"" class=""exp-image"">
                    <div class=""question-area""></div> 
                </div>","null","","","","","","","","",""
"","","","","","html-button-response","81","250449","0.0-81.0","A3B83172E928434E9BC83C87525CC2D3","019cf80f-a6bf-7791-ba14-574e788ae29f","019cf80d-4266-7117-8a51-54e13c84aca4","","428","
                <div class=""stimulus-container"">
                    <img src=""images/semantic_sequence/exploring_nature_semantic/exploring_nature_semantic_1.png"" class=""exp-image"">
                    <div class=""question-area"">
                        <p style=""font-size: 20px; font-weight: bold; margin: 0;"">Is there a person in this image?</p>
                    </div>
                </div>","0","main_experiment_trial","1","exploring_nature_semantic","semantic_sequence","","","","",""
"","","","","","html-keyboard-response","82","255458","0.0-82.0","A3B83172E928434E9BC83C87525CC2D3","019cf80f-a6bf-7791-ba14-574e788ae29f","019cf80d-4266-7117-8a51-54e13c84aca4","","null","
                <div class=""stimulus-container"">
                    <img src=""images/semantic_sequence/exploring_nature_semantic/exploring_nature_semantic_2.png"" class=""exp-image"">
                    <div class=""question-area""></div> 
                </div>","null","","","","","","","","",""
"","","","","","html-button-response","83","256104","0.0-83.0","A3B83172E928434E9BC83C87525CC2D3","019cf80f-a6bf-7791-ba14-574e788ae29f","019cf80d-4266-7117-8a51-54e13c84aca4","","645","
                <div class=""stimulus-container"">
                    <img src=""images/semantic_sequence/exploring_nature_semantic/exploring_nature_semantic_2.png"" class=""exp-image"">
                    <div class=""question-area"">
                        <p style=""font-size: 20px; font-weight: bold; margin: 0;"">Is there a person in this image?</p>
                    </div>
                </div>","0","main_experiment_trial","2","exploring_nature_semantic","semantic_sequence","","","","",""
"","","","","","html-keyboard-response","84","261107","0.0-84.0","A3B83172E928434E9BC83C87525CC2D3","019cf80f-a6bf-7791-ba14-574e788ae29f","019cf80d-4266-7117-8a51-54e13c84aca4","","null","
                <div class=""stimulus-container"">
                    <img src=""images/semantic_sequence/exploring_nature_semantic/exploring_nature_semantic_3.png"" class=""exp-image"">
                    <div class=""question-area""></div> 
                </div>","null","","","","","","","","",""
"","","","","","html-button-response","85","261681","0.0-85.0","A3B83172E928434E9BC83C87525CC2D3","019cf80f-a6bf-7791-ba14-574e788ae29f","019cf80d-4266-7117-8a51-54e13c84aca4","","574","
                <div class=""stimulus-container"">
                    <img src=""images/semantic_sequence/exploring_nature_semantic/exploring_nature_semantic_3.png"" class=""exp-image"">
                    <div class=""question-area"">
                        <p style=""font-size: 20px; font-weight: bold; margin: 0;"">Is there a person in this image?</p>
                    </div>
                </div>","0","main_experiment_trial","3","exploring_nature_semantic","semantic_sequence","","","","",""
"","","","","","html-keyboard-response","86","266698","0.0-86.0","A3B83172E928434E9BC83C87525CC2D3","019cf80f-a6bf-7791-ba14-574e788ae29f","019cf80d-4266-7117-8a51-54e13c84aca4","","null","
                <div class=""stimulus-container"">
                    <img src=""images/semantic_sequence/exploring_nature_semantic/exploring_nature_semantic_4.png"" class=""exp-image"">
                    <div class=""question-area""></div> 
                </div>","null","","","","","","","","",""
"","","","","","html-button-response","87","267142","0.0-87.0","A3B83172E928434E9BC83C87525CC2D3","019cf80f-a6bf-7791-ba14-574e788ae29f","019cf80d-4266-7117-8a51-54e13c84aca4","","443","
                <div class=""stimulus-container"">
                    <img src=""images/semantic_sequence/exploring_nature_semantic/exploring_nature_semantic_4.png"" class=""exp-image"">
                    <div class=""question-area"">
                        <p style=""font-size: 20px; font-weight: bold; margin: 0;"">Is there a person in this image?</p>
                    </div>
                </div>","0","main_experiment_trial","4","exploring_nature_semantic","semantic_sequence","","","","",""
"","","","","","html-keyboard-response","88","272157","0.0-88.0","A3B83172E928434E9BC83C87525CC2D3","019cf80f-a6bf-7791-ba14-574e788ae29f","019cf80d-4266-7117-8a51-54e13c84aca4","","null","
                <div class=""stimulus-container"">
                    <img src=""images/semantic_sequence/exploring_nature_semantic/exploring_nature_semantic_5.png"" class=""exp-image"">
                    <div class=""question-area""></div> 
                </div>","null","","","","","","","","",""
"","","","","","html-button-response","89","272628","0.0-89.0","A3B83172E928434E9BC83C87525CC2D3","019cf80f-a6bf-7791-ba14-574e788ae29f","019cf80d-4266-7117-8a51-54e13c84aca4","","470","
                <div class=""stimulus-container"">
                    <img src=""images/semantic_sequence/exploring_nature_semantic/exploring_nature_semantic_5.png"" class=""exp-image"">
                    <div class=""question-area"">
                        <p style=""font-size: 20px; font-weight: bold; margin: 0;"">Is there a person in this image?</p>
                    </div>
                </div>","0","main_experiment_trial","5","exploring_nature_semantic","semantic_sequence","","","","",""
"","","","","","html-keyboard-response","90","277630","0.0-90.0","A3B83172E928434E9BC83C87525CC2D3","019cf80f-a6bf-7791-ba14-574e788ae29f","019cf80d-4266-7117-8a51-54e13c84aca4","","null","
                <div class=""stimulus-container"">
                    <img src=""images/semantic_sequence/exploring_nature_semantic/exploring_nature_semantic_6.png"" class=""exp-image"">
                    <div class=""question-area""></div> 
                </div>","null","","","","","","","","",""
"","","","","","html-button-response","91","278204","0.0-91.0","A3B83172E928434E9BC83C87525CC2D3","019cf80f-a6bf-7791-ba14-574e788ae29f","019cf80d-4266-7117-8a51-54e13c84aca4","","573","
                <div class=""stimulus-container"">
                    <img src=""images/semantic_sequence/exploring_nature_semantic/exploring_nature_semantic_6.png"" class=""exp-image"">
                    <div class=""question-area"">
                        <p style=""font-size: 20px; font-weight: bold; margin: 0;"">Is there a person in this image?</p>
                    </div>
                </div>","0","main_experiment_trial","6","exploring_nature_semantic","semantic_sequence","","","","",""
"","","","","","html-keyboard-response","92","283205","0.0-92.0","A3B83172E928434E9BC83C87525CC2D3","019cf80f-a6bf-7791-ba14-574e788ae29f","019cf80d-4266-7117-8a51-54e13c84aca4","","null","
                <div class=""stimulus-container"">
                    <img src=""images/semantic_sequence/exploring_nature_semantic/exploring_nature_semantic_7.png"" class=""exp-image"">
                    <div class=""question-area""></div> 
                </div>","null","","","","","","","","",""
"","","","","","html-button-response","93","283737","0.0-93.0","A3B83172E928434E9BC83C87525CC2D3","019cf80f-a6bf-7791-ba14-574e788ae29f","019cf80d-4266-7117-8a51-54e13c84aca4","","531","
                <div class=""stimulus-container"">
                    <img src=""images/semantic_sequence/exploring_nature_semantic/exploring_nature_semantic_7.png"" class=""exp-image"">
                    <div class=""question-area"">
                        <p style=""font-size: 20px; font-weight: bold; margin: 0;"">Is there a person in this image?</p>
                    </div>
                </div>","0","main_experiment_trial","7","exploring_nature_semantic","semantic_sequence","","","","",""
"","","","","","html-keyboard-response","94","288751","0.0-94.0","A3B83172E928434E9BC83C87525CC2D3","019cf80f-a6bf-7791-ba14-574e788ae29f","019cf80d-4266-7117-8a51-54e13c84aca4","","null","
                <div class=""stimulus-container"">
                    <img src=""images/semantic_sequence/exploring_nature_semantic/exploring_nature_semantic_8.png"" class=""exp-image"">
                    <div class=""question-area""></div> 
                </div>","null","","","","","","","","",""
"","","","","","html-button-response","95","289272","0.0-95.0","A3B83172E928434E9BC83C87525CC2D3","019cf80f-a6bf-7791-ba14-574e788ae29f","019cf80d-4266-7117-8a51-54e13c84aca4","","520","
                <div class=""stimulus-container"">
                    <img src=""images/semantic_sequence/exploring_nature_semantic/exploring_nature_semantic_8.png"" class=""exp-image"">
                    <div class=""question-area"">
                        <p style=""font-size: 20px; font-weight: bold; margin: 0;"">Is there a person in this image?</p>
                    </div>
                </div>","0","main_experiment_trial","8","exploring_nature_semantic","semantic_sequence","","","","",""
"","","","","","html-keyboard-response","96","294291","0.0-96.0","A3B83172E928434E9BC83C87525CC2D3","019cf80f-a6bf-7791-ba14-574e788ae29f","019cf80d-4266-7117-8a51-54e13c84aca4","","null","
                <div class=""stimulus-container"">
                    <img src=""images/semantic_sequence/exploring_nature_semantic/exploring_nature_semantic_9.png"" class=""exp-image"">
                    <div class=""question-area""></div> 
                </div>","null","","","","","","","","",""
"","","","","","html-button-response","97","294788","0.0-97.0","A3B83172E928434E9BC83C87525CC2D3","019cf80f-a6bf-7791-ba14-574e788ae29f","019cf80d-4266-7117-8a51-54e13c84aca4","","496","
                <div class=""stimulus-container"">
                    <img src=""images/semantic_sequence/exploring_nature_semantic/exploring_nature_semantic_9.png"" class=""exp-image"">
                    <div class=""question-area"">
                        <p style=""font-size: 20px; font-weight: bold; margin: 0;"">Is there a person in this image?</p>
                    </div>
                </div>","0","main_experiment_trial","9","exploring_nature_semantic","semantic_sequence","","","","",""
"","","","","","html-keyboard-response","98","299790","0.0-98.0","A3B83172E928434E9BC83C87525CC2D3","019cf80f-a6bf-7791-ba14-574e788ae29f","019cf80d-4266-7117-8a51-54e13c84aca4","","null","
                <div class=""stimulus-container"">
                    <img src=""images/semantic_sequence/exploring_nature_semantic/exploring_nature_semantic_ten.png"" class=""exp-image"">
                    <div class=""question-area""></div> 
                </div>","null","","","","","","","","",""
"","","","","","html-button-response","99","300522","0.0-99.0","A3B83172E928434E9BC83C87525CC2D3","019cf80f-a6bf-7791-ba14-574e788ae29f","019cf80d-4266-7117-8a51-54e13c84aca4","","731","
                <div class=""stimulus-container"">
                    <img src=""images/semantic_sequence/exploring_nature_semantic/exploring_nature_semantic_ten.png"" class=""exp-image"">
                    <div class=""question-area"">
                        <p style=""font-size: 20px; font-weight: bold; margin: 0;"">Is there a person in this image?</p>
                    </div>
                </div>","0","main_experiment_trial","ten","exploring_nature_semantic","semantic_sequence","","","","",""
"","","","","","html-keyboard-response","100","301534","0.0-100.0","A3B83172E928434E9BC83C87525CC2D3","019cf80f-a6bf-7791-ba14-574e788ae29f","019cf80d-4266-7117-8a51-54e13c84aca4","","null","<div style=""background-color: white; width: 100vw; height: 100vh;""></div>","null","","","","","","","","",""
"","","","","","html-keyboard-response","101","306549","0.0-101.0","A3B83172E928434E9BC83C87525CC2D3","019cf80f-a6bf-7791-ba14-574e788ae29f","019cf80d-4266-7117-8a51-54e13c84aca4","","null","
                <div class=""stimulus-container"">
                    <img src=""images/schematic_sequence/supermarket_scheme/supermarket_scheme_1.png"" class=""exp-image"">
                    <div class=""question-area""></div> 
                </div>","null","","","","","","","","",""
"","","","","","html-button-response","102","307245","0.0-102.0","A3B83172E928434E9BC83C87525CC2D3","019cf80f-a6bf-7791-ba14-574e788ae29f","019cf80d-4266-7117-8a51-54e13c84aca4","","695","
                <div class=""stimulus-container"">
                    <img src=""images/schematic_sequence/supermarket_scheme/supermarket_scheme_1.png"" class=""exp-image"">
                    <div class=""question-area"">
                        <p style=""font-size: 20px; font-weight: bold; margin: 0;"">Is there a person in this image?</p>
                    </div>
                </div>","1","main_experiment_trial","1","supermarket_scheme","schematic_sequence","","","","",""
"","","","","","html-keyboard-response","103","312247","0.0-103.0","A3B83172E928434E9BC83C87525CC2D3","019cf80f-a6bf-7791-ba14-574e788ae29f","019cf80d-4266-7117-8a51-54e13c84aca4","","null","
                <div class=""stimulus-container"">
                    <img src=""images/schematic_sequence/supermarket_scheme/supermarket_scheme_2.png"" class=""exp-image"">
                    <div class=""question-area""></div> 
                </div>","null","","","","","","","","",""
"","","","","","html-button-response","104","312723","0.0-104.0","A3B83172E928434E9BC83C87525CC2D3","019cf80f-a6bf-7791-ba14-574e788ae29f","019cf80d-4266-7117-8a51-54e13c84aca4","","475","
                <div class=""stimulus-container"">
                    <img src=""images/schematic_sequence/supermarket_scheme/supermarket_scheme_2.png"" class=""exp-image"">
                    <div class=""question-area"">
                        <p style=""font-size: 20px; font-weight: bold; margin: 0;"">Is there a person in this image?</p>
                    </div>
                </div>","1","main_experiment_trial","2","supermarket_scheme","schematic_sequence","","","","",""
"","","","","","html-keyboard-response","105","317725","0.0-105.0","A3B83172E928434E9BC83C87525CC2D3","019cf80f-a6bf-7791-ba14-574e788ae29f","019cf80d-4266-7117-8a51-54e13c84aca4","","null","
                <div class=""stimulus-container"">
                    <img src=""images/schematic_sequence/supermarket_scheme/supermarket_scheme_3.png"" class=""exp-image"">
                    <div class=""question-area""></div> 
                </div>","null","","","","","","","","",""
"","","","","","html-button-response","106","318151","0.0-106.0","A3B83172E928434E9BC83C87525CC2D3","019cf80f-a6bf-7791-ba14-574e788ae29f","019cf80d-4266-7117-8a51-54e13c84aca4","","425","
                <div class=""stimulus-container"">
                    <img src=""images/schematic_sequence/supermarket_scheme/supermarket_scheme_3.png"" class=""exp-image"">
                    <div class=""question-area"">
                        <p style=""font-size: 20px; font-weight: bold; margin: 0;"">Is there a person in this image?</p>
                    </div>
                </div>","1","main_experiment_trial","3","supermarket_scheme","schematic_sequence","","","","",""
"","","","","","html-keyboard-response","107","323159","0.0-107.0","A3B83172E928434E9BC83C87525CC2D3","019cf80f-a6bf-7791-ba14-574e788ae29f","019cf80d-4266-7117-8a51-54e13c84aca4","","null","
                <div class=""stimulus-container"">
                    <img src=""images/schematic_sequence/supermarket_scheme/supermarket_scheme_4.png"" class=""exp-image"">
                    <div class=""question-area""></div> 
                </div>","null","","","","","","","","",""
"","","","","","html-button-response","108","324246","0.0-108.0","A3B83172E928434E9BC83C87525CC2D3","019cf80f-a6bf-7791-ba14-574e788ae29f","019cf80d-4266-7117-8a51-54e13c84aca4","","1086","
                <div class=""stimulus-container"">
                    <img src=""images/schematic_sequence/supermarket_scheme/supermarket_scheme_4.png"" class=""exp-image"">
                    <div class=""question-area"">
                        <p style=""font-size: 20px; font-weight: bold; margin: 0;"">Is there a person in this image?</p>
                    </div>
                </div>","0","main_experiment_trial","4","supermarket_scheme","schematic_sequence","","","","",""
"","","","","","html-keyboard-response","109","329251","0.0-109.0","A3B83172E928434E9BC83C87525CC2D3","019cf80f-a6bf-7791-ba14-574e788ae29f","019cf80d-4266-7117-8a51-54e13c84aca4","","null","
                <div class=""stimulus-container"">
                    <img src=""images/schematic_sequence/supermarket_scheme/supermarket_scheme_5.png"" class=""exp-image"">
                    <div class=""question-area""></div> 
                </div>","null","","","","","","","","",""
"","","","","","html-button-response","110","331105","0.0-110.0","A3B83172E928434E9BC83C87525CC2D3","019cf80f-a6bf-7791-ba14-574e788ae29f","019cf80d-4266-7117-8a51-54e13c84aca4","","1853","
                <div class=""stimulus-container"">
                    <img src=""images/schematic_sequence/supermarket_scheme/supermarket_scheme_5.png"" class=""exp-image"">
                    <div class=""question-area"">
                        <p style=""font-size: 20px; font-weight: bold; margin: 0;"">Is there a person in this image?</p>
                    </div>
                </div>","1","main_experiment_trial","5","supermarket_scheme","schematic_sequence","","","","",""
"","","","","","html-keyboard-response","111","336111","0.0-111.0","A3B83172E928434E9BC83C87525CC2D3","019cf80f-a6bf-7791-ba14-574e788ae29f","019cf80d-4266-7117-8a51-54e13c84aca4","","null","
                <div class=""stimulus-container"">
                    <img src=""images/schematic_sequence/supermarket_scheme/supermarket_scheme_6.png"" class=""exp-image"">
                    <div class=""question-area""></div> 
                </div>","null","","","","","","","","",""
"","","","","","html-button-response","112","339126","0.0-112.0","A3B83172E928434E9BC83C87525CC2D3","019cf80f-a6bf-7791-ba14-574e788ae29f","019cf80d-4266-7117-8a51-54e13c84aca4","","null","
                <div class=""stimulus-container"">
                    <img src=""images/schematic_sequence/supermarket_scheme/supermarket_scheme_6.png"" class=""exp-image"">
                    <div class=""question-area"">
                        <p style=""font-size: 20px; font-weight: bold; margin: 0;"">Is there a person in this image?</p>
                    </div>
                </div>","null","main_experiment_trial","6","supermarket_scheme","schematic_sequence","","","","",""
"","","","","","html-keyboard-response","113","344127","0.0-113.0","A3B83172E928434E9BC83C87525CC2D3","019cf80f-a6bf-7791-ba14-574e788ae29f","019cf80d-4266-7117-8a51-54e13c84aca4","","null","
                <div class=""stimulus-container"">
                    <img src=""images/schematic_sequence/supermarket_scheme/supermarket_scheme_7.png"" class=""exp-image"">
                    <div class=""question-area""></div> 
                </div>","null","","","","","","","","",""
"","","","","","html-button-response","114","346467","0.0-114.0","A3B83172E928434E9BC83C87525CC2D3","019cf80f-a6bf-7791-ba14-574e788ae29f","019cf80d-4266-7117-8a51-54e13c84aca4","","2338","
                <div class=""stimulus-container"">
                    <img src=""images/schematic_sequence/supermarket_scheme/supermarket_scheme_7.png"" class=""exp-image"">
                    <div class=""question-area"">
                        <p style=""font-size: 20px; font-weight: bold; margin: 0;"">Is there a person in this image?</p>
                    </div>
                </div>","0","main_experiment_trial","7","supermarket_scheme","schematic_sequence","","","","",""
"","","","","","html-keyboard-response","115","351480","0.0-115.0","A3B83172E928434E9BC83C87525CC2D3","019cf80f-a6bf-7791-ba14-574e788ae29f","019cf80d-4266-7117-8a51-54e13c84aca4","","null","
                <div class=""stimulus-container"">
                    <img src=""images/schematic_sequence/supermarket_scheme/supermarket_scheme_8.png"" class=""exp-image"">
                    <div class=""question-area""></div> 
                </div>","null","","","","","","","","",""
"","","","","","html-button-response","116","354385","0.0-116.0","A3B83172E928434E9BC83C87525CC2D3","019cf80f-a6bf-7791-ba14-574e788ae29f","019cf80d-4266-7117-8a51-54e13c84aca4","","2904","
                <div class=""stimulus-container"">
                    <img src=""images/schematic_sequence/supermarket_scheme/supermarket_scheme_8.png"" class=""exp-image"">
                    <div class=""question-area"">
                        <p style=""font-size: 20px; font-weight: bold; margin: 0;"">Is there a person in this image?</p>
                    </div>
                </div>","0","main_experiment_trial","8","supermarket_scheme","schematic_sequence","","","","",""
"","","","","","html-keyboard-response","117","359396","0.0-117.0","A3B83172E928434E9BC83C87525CC2D3","019cf80f-a6bf-7791-ba14-574e788ae29f","019cf80d-4266-7117-8a51-54e13c84aca4","","null","
                <div class=""stimulus-container"">
                    <img src=""images/schematic_sequence/supermarket_scheme/supermarket_scheme_9.png"" class=""exp-image"">
                    <div class=""question-area""></div> 
                </div>","null","","","","","","","","",""
"","","","","","html-button-response","118","360877","0.0-118.0","A3B83172E928434E9BC83C87525CC2D3","019cf80f-a6bf-7791-ba14-574e788ae29f","019cf80d-4266-7117-8a51-54e13c84aca4","","1480","
                <div class=""stimulus-container"">
                    <img src=""images/schematic_sequence/supermarket_scheme/supermarket_scheme_9.png"" class=""exp-image"">
                    <div class=""question-area"">
                        <p style=""font-size: 20px; font-weight: bold; margin: 0;"">Is there a person in this image?</p>
                    </div>
                </div>","0","main_experiment_trial","9","supermarket_scheme","schematic_sequence","","","","",""
"","","","","","html-keyboard-response","119","365885","0.0-119.0","A3B83172E928434E9BC83C87525CC2D3","019cf80f-a6bf-7791-ba14-574e788ae29f","019cf80d-4266-7117-8a51-54e13c84aca4","","null","
                <div class=""stimulus-container"">
                    <img src=""images/schematic_sequence/supermarket_scheme/supermarket_scheme_ten.png"" class=""exp-image"">
                    <div class=""question-area""></div> 
                </div>","null","","","","","","","","",""
"","","","","","html-button-response","120","366725","0.0-120.0","A3B83172E928434E9BC83C87525CC2D3","019cf80f-a6bf-7791-ba14-574e788ae29f","019cf80d-4266-7117-8a51-54e13c84aca4","","838","
                <div class=""stimulus-container"">
                    <img src=""images/schematic_sequence/supermarket_scheme/supermarket_scheme_ten.png"" class=""exp-image"">
                    <div class=""question-area"">
                        <p style=""font-size: 20px; font-weight: bold; margin: 0;"">Is there a person in this image?</p>
                    </div>
                </div>","1","main_experiment_trial","ten","supermarket_scheme","schematic_sequence","","","","",""
"","","","","","html-keyboard-response","121","367732","0.0-121.0","A3B83172E928434E9BC83C87525CC2D3","019cf80f-a6bf-7791-ba14-574e788ae29f","019cf80d-4266-7117-8a51-54e13c84aca4","","null","<div style=""background-color: white; width: 100vw; height: 100vh;""></div>","null","","","","","","","","",""
"","","","","","html-keyboard-response","122","372747","0.0-122.0","A3B83172E928434E9BC83C87525CC2D3","019cf80f-a6bf-7791-ba14-574e788ae29f","019cf80d-4266-7117-8a51-54e13c84aca4","","null","
                <div class=""stimulus-container"">
                    <img src=""images/schematic_sequence/hotel_scheme/hotel_scheme_1.png"" class=""exp-image"">
                    <div class=""question-area""></div> 
                </div>","null","","","","","","","","",""
"","","","","","html-button-response","123","373206","0.0-123.0","A3B83172E928434E9BC83C87525CC2D3","019cf80f-a6bf-7791-ba14-574e788ae29f","019cf80d-4266-7117-8a51-54e13c84aca4","","458","
                <div class=""stimulus-container"">
                    <img src=""images/schematic_sequence/hotel_scheme/hotel_scheme_1.png"" class=""exp-image"">
                    <div class=""question-area"">
                        <p style=""font-size: 20px; font-weight: bold; margin: 0;"">Is there a person in this image?</p>
                    </div>
                </div>","1","main_experiment_trial","1","hotel_scheme","schematic_sequence","","","","",""
"","","","","","html-keyboard-response","124","378219","0.0-124.0","A3B83172E928434E9BC83C87525CC2D3","019cf80f-a6bf-7791-ba14-574e788ae29f","019cf80d-4266-7117-8a51-54e13c84aca4","","null","
                <div class=""stimulus-container"">
                    <img src=""images/schematic_sequence/hotel_scheme/hotel_scheme_2.png"" class=""exp-image"">
                    <div class=""question-area""></div> 
                </div>","null","","","","","","","","",""
"","","","","","html-button-response","125","378852","0.0-125.0","A3B83172E928434E9BC83C87525CC2D3","019cf80f-a6bf-7791-ba14-574e788ae29f","019cf80d-4266-7117-8a51-54e13c84aca4","","632","
                <div class=""stimulus-container"">
                    <img src=""images/schematic_sequence/hotel_scheme/hotel_scheme_2.png"" class=""exp-image"">
                    <div class=""question-area"">
                        <p style=""font-size: 20px; font-weight: bold; margin: 0;"">Is there a person in this image?</p>
                    </div>
                </div>","0","main_experiment_trial","2","hotel_scheme","schematic_sequence","","","","",""
"","","","","","html-keyboard-response","126","383859","0.0-126.0","A3B83172E928434E9BC83C87525CC2D3","019cf80f-a6bf-7791-ba14-574e788ae29f","019cf80d-4266-7117-8a51-54e13c84aca4","","null","
                <div class=""stimulus-container"">
                    <img src=""images/schematic_sequence/hotel_scheme/hotel_scheme_3.png"" class=""exp-image"">
                    <div class=""question-area""></div> 
                </div>","null","","","","","","","","",""
"","","","","","html-button-response","127","384315","0.0-127.0","A3B83172E928434E9BC83C87525CC2D3","019cf80f-a6bf-7791-ba14-574e788ae29f","019cf80d-4266-7117-8a51-54e13c84aca4","","455","
                <div class=""stimulus-container"">
                    <img src=""images/schematic_sequence/hotel_scheme/hotel_scheme_3.png"" class=""exp-image"">
                    <div class=""question-area"">
                        <p style=""font-size: 20px; font-weight: bold; margin: 0;"">Is there a person in this image?</p>
                    </div>
                </div>","0","main_experiment_trial","3","hotel_scheme","schematic_sequence","","","","",""
"","","","","","html-keyboard-response","128","389325","0.0-128.0","A3B83172E928434E9BC83C87525CC2D3","019cf80f-a6bf-7791-ba14-574e788ae29f","019cf80d-4266-7117-8a51-54e13c84aca4","","null","
                <div class=""stimulus-container"">
                    <img src=""images/schematic_sequence/hotel_scheme/hotel_scheme_4.png"" class=""exp-image"">
                    <div class=""question-area""></div> 
                </div>","null","","","","","","","","",""
"","","","","","html-button-response","129","390203","0.0-129.0","A3B83172E928434E9BC83C87525CC2D3","019cf80f-a6bf-7791-ba14-574e788ae29f","019cf80d-4266-7117-8a51-54e13c84aca4","","876","
                <div class=""stimulus-container"">
                    <img src=""images/schematic_sequence/hotel_scheme/hotel_scheme_4.png"" class=""exp-image"">
                    <div class=""question-area"">
                        <p style=""font-size: 20px; font-weight: bold; margin: 0;"">Is there a person in this image?</p>
                    </div>
                </div>","1","main_experiment_trial","4","hotel_scheme","schematic_sequence","","","","",""
"","","","","","html-keyboard-response","130","395212","0.0-130.0","A3B83172E928434E9BC83C87525CC2D3","019cf80f-a6bf-7791-ba14-574e788ae29f","019cf80d-4266-7117-8a51-54e13c84aca4","","null","
                <div class=""stimulus-container"">
                    <img src=""images/schematic_sequence/hotel_scheme/hotel_scheme_5.png"" class=""exp-image"">
                    <div class=""question-area""></div> 
                </div>","null","","","","","","","","",""
"","","","","","html-button-response","131","395640","0.0-131.0","A3B83172E928434E9BC83C87525CC2D3","019cf80f-a6bf-7791-ba14-574e788ae29f","019cf80d-4266-7117-8a51-54e13c84aca4","","426","
                <div class=""stimulus-container"">
                    <img src=""images/schematic_sequence/hotel_scheme/hotel_scheme_5.png"" class=""exp-image"">
                    <div class=""question-area"">
                        <p style=""font-size: 20px; font-weight: bold; margin: 0;"">Is there a person in this image?</p>
                    </div>
                </div>","0","main_experiment_trial","5","hotel_scheme","schematic_sequence","","","","",""
"","","","","","html-keyboard-response","132","400646","0.0-132.0","A3B83172E928434E9BC83C87525CC2D3","019cf80f-a6bf-7791-ba14-574e788ae29f","019cf80d-4266-7117-8a51-54e13c84aca4","","null","
                <div class=""stimulus-container"">
                    <img src=""images/schematic_sequence/hotel_scheme/hotel_scheme_6.png"" class=""exp-image"">
                    <div class=""question-area""></div> 
                </div>","null","","","","","","","","",""
"","","","","","html-button-response","133","401533","0.0-133.0","A3B83172E928434E9BC83C87525CC2D3","019cf80f-a6bf-7791-ba14-574e788ae29f","019cf80d-4266-7117-8a51-54e13c84aca4","","886","
                <div class=""stimulus-container"">
                    <img src=""images/schematic_sequence/hotel_scheme/hotel_scheme_6.png"" class=""exp-image"">
                    <div class=""question-area"">
                        <p style=""font-size: 20px; font-weight: bold; margin: 0;"">Is there a person in this image?</p>
                    </div>
                </div>","0","main_experiment_trial","6","hotel_scheme","schematic_sequence","","","","",""
"","","","","","html-keyboard-response","134","406538","0.0-134.0","A3B83172E928434E9BC83C87525CC2D3","019cf80f-a6bf-7791-ba14-574e788ae29f","019cf80d-4266-7117-8a51-54e13c84aca4","","null","
                <div class=""stimulus-container"">
                    <img src=""images/schematic_sequence/hotel_scheme/hotel_scheme_7.png"" class=""exp-image"">
                    <div class=""question-area""></div> 
                </div>","null","","","","","","","","",""
"","","","","","html-button-response","135","406995","0.0-135.0","A3B83172E928434E9BC83C87525CC2D3","019cf80f-a6bf-7791-ba14-574e788ae29f","019cf80d-4266-7117-8a51-54e13c84aca4","","456","
                <div class=""stimulus-container"">
                    <img src=""images/schematic_sequence/hotel_scheme/hotel_scheme_7.png"" class=""exp-image"">
                    <div class=""question-area"">
                        <p style=""font-size: 20px; font-weight: bold; margin: 0;"">Is there a person in this image?</p>
                    </div>
                </div>","0","main_experiment_trial","7","hotel_scheme","schematic_sequence","","","","",""
"","","","","","html-keyboard-response","136","412004","0.0-136.0","A3B83172E928434E9BC83C87525CC2D3","019cf80f-a6bf-7791-ba14-574e788ae29f","019cf80d-4266-7117-8a51-54e13c84aca4","","null","
                <div class=""stimulus-container"">
                    <img src=""images/schematic_sequence/hotel_scheme/hotel_scheme_8.png"" class=""exp-image"">
                    <div class=""question-area""></div> 
                </div>","null","","","","","","","","",""
"","","","","","html-button-response","137","412547","0.0-137.0","A3B83172E928434E9BC83C87525CC2D3","019cf80f-a6bf-7791-ba14-574e788ae29f","019cf80d-4266-7117-8a51-54e13c84aca4","","542","
                <div class=""stimulus-container"">
                    <img src=""images/schematic_sequence/hotel_scheme/hotel_scheme_8.png"" class=""exp-image"">
                    <div class=""question-area"">
                        <p style=""font-size: 20px; font-weight: bold; margin: 0;"">Is there a person in this image?</p>
                    </div>
                </div>","0","main_experiment_trial","8","hotel_scheme","schematic_sequence","","","","",""
"","","","","","html-keyboard-response","138","417551","0.0-138.0","A3B83172E928434E9BC83C87525CC2D3","019cf80f-a6bf-7791-ba14-574e788ae29f","019cf80d-4266-7117-8a51-54e13c84aca4","","null","
                <div class=""stimulus-container"">
                    <img src=""images/schematic_sequence/hotel_scheme/hotel_scheme_9.png"" class=""exp-image"">
                    <div class=""question-area""></div> 
                </div>","null","","","","","","","","",""
"","","","","","html-button-response","139","418100","0.0-139.0","A3B83172E928434E9BC83C87525CC2D3","019cf80f-a6bf-7791-ba14-574e788ae29f","019cf80d-4266-7117-8a51-54e13c84aca4","","548","
                <div class=""stimulus-container"">
                    <img src=""images/schematic_sequence/hotel_scheme/hotel_scheme_9.png"" class=""exp-image"">
                    <div class=""question-area"">
                        <p style=""font-size: 20px; font-weight: bold; margin: 0;"">Is there a person in this image?</p>
                    </div>
                </div>","0","main_experiment_trial","9","hotel_scheme","schematic_sequence","","","","",""
"","","","","","html-keyboard-response","140","423101","0.0-140.0","A3B83172E928434E9BC83C87525CC2D3","019cf80f-a6bf-7791-ba14-574e788ae29f","019cf80d-4266-7117-8a51-54e13c84aca4","","null","
                <div class=""stimulus-container"">
                    <img src=""images/schematic_sequence/hotel_scheme/hotel_scheme_ten.png"" class=""exp-image"">
                    <div class=""question-area""></div> 
                </div>","null","","","","","","","","",""
"","","","","","html-button-response","141","423515","0.0-141.0","A3B83172E928434E9BC83C87525CC2D3","019cf80f-a6bf-7791-ba14-574e788ae29f","019cf80d-4266-7117-8a51-54e13c84aca4","","412","
                <div class=""stimulus-container"">
                    <img src=""images/schematic_sequence/hotel_scheme/hotel_scheme_ten.png"" class=""exp-image"">
                    <div class=""question-area"">
                        <p style=""font-size: 20px; font-weight: bold; margin: 0;"">Is there a person in this image?</p>
                    </div>
                </div>","0","main_experiment_trial","ten","hotel_scheme","schematic_sequence","","","","",""
"","","","","","html-keyboard-response","142","424517","0.0-142.0","A3B83172E928434E9BC83C87525CC2D3","019cf80f-a6bf-7791-ba14-574e788ae29f","019cf80d-4266-7117-8a51-54e13c84aca4","","null","<div style=""background-color: white; width: 100vw; height: 100vh;""></div>","null","","","","","","","","",""
"","","","","","html-keyboard-response","143","429524","0.0-143.0","A3B83172E928434E9BC83C87525CC2D3","019cf80f-a6bf-7791-ba14-574e788ae29f","019cf80d-4266-7117-8a51-54e13c84aca4","","null","
                <div class=""stimulus-container"">
                    <img src=""images/semantic_sequence/using_technology_semantic/using_technology_semantic_1.png"" class=""exp-image"">
                    <div class=""question-area""></div> 
                </div>","null","","","","","","","","",""
"","","","","","html-button-response","144","429915","0.0-144.0","A3B83172E928434E9BC83C87525CC2D3","019cf80f-a6bf-7791-ba14-574e788ae29f","019cf80d-4266-7117-8a51-54e13c84aca4","","390","
                <div class=""stimulus-container"">
                    <img src=""images/semantic_sequence/using_technology_semantic/using_technology_semantic_1.png"" class=""exp-image"">
                    <div class=""question-area"">
                        <p style=""font-size: 20px; font-weight: bold; margin: 0;"">Is there a person in this image?</p>
                    </div>
                </div>","0","main_experiment_trial","1","using_technology_semantic","semantic_sequence","","","","",""
"","","","","","html-keyboard-response","145","434919","0.0-145.0","A3B83172E928434E9BC83C87525CC2D3","019cf80f-a6bf-7791-ba14-574e788ae29f","019cf80d-4266-7117-8a51-54e13c84aca4","","null","
                <div class=""stimulus-container"">
                    <img src=""images/semantic_sequence/using_technology_semantic/using_technology_semantic_2.png"" class=""exp-image"">
                    <div class=""question-area""></div> 
                </div>","null","","","","","","","","",""
"","","","","","html-button-response","146","435232","0.0-146.0","A3B83172E928434E9BC83C87525CC2D3","019cf80f-a6bf-7791-ba14-574e788ae29f","019cf80d-4266-7117-8a51-54e13c84aca4","","311","
                <div class=""stimulus-container"">
                    <img src=""images/semantic_sequence/using_technology_semantic/using_technology_semantic_2.png"" class=""exp-image"">
                    <div class=""question-area"">
                        <p style=""font-size: 20px; font-weight: bold; margin: 0;"">Is there a person in this image?</p>
                    </div>
                </div>","0","main_experiment_trial","2","using_technology_semantic","semantic_sequence","","","","",""
"","","","","","html-keyboard-response","147","440236","0.0-147.0","A3B83172E928434E9BC83C87525CC2D3","019cf80f-a6bf-7791-ba14-574e788ae29f","019cf80d-4266-7117-8a51-54e13c84aca4","","null","
                <div class=""stimulus-container"">
                    <img src=""images/semantic_sequence/using_technology_semantic/using_technology_semantic_3.png"" class=""exp-image"">
                    <div class=""question-area""></div> 
                </div>","null","","","","","","","","",""
"","","","","","html-button-response","148","442382","0.0-148.0","A3B83172E928434E9BC83C87525CC2D3","019cf80f-a6bf-7791-ba14-574e788ae29f","019cf80d-4266-7117-8a51-54e13c84aca4","","2145","
                <div class=""stimulus-container"">
                    <img src=""images/semantic_sequence/using_technology_semantic/using_technology_semantic_3.png"" class=""exp-image"">
                    <div class=""question-area"">
                        <p style=""font-size: 20px; font-weight: bold; margin: 0;"">Is there a person in this image?</p>
                    </div>
                </div>","0","main_experiment_trial","3","using_technology_semantic","semantic_sequence","","","","",""
"","","","","","html-keyboard-response","149","447395","0.0-149.0","A3B83172E928434E9BC83C87525CC2D3","019cf80f-a6bf-7791-ba14-574e788ae29f","019cf80d-4266-7117-8a51-54e13c84aca4","","null","
                <div class=""stimulus-container"">
                    <img src=""images/semantic_sequence/using_technology_semantic/using_technology_semantic_4.png"" class=""exp-image"">
                    <div class=""question-area""></div> 
                </div>","null","","","","","","","","",""
"","","","","","html-button-response","150","447843","0.0-150.0","A3B83172E928434E9BC83C87525CC2D3","019cf80f-a6bf-7791-ba14-574e788ae29f","019cf80d-4266-7117-8a51-54e13c84aca4","","447","
                <div class=""stimulus-container"">
                    <img src=""images/semantic_sequence/using_technology_semantic/using_technology_semantic_4.png"" class=""exp-image"">
                    <div class=""question-area"">
                        <p style=""font-size: 20px; font-weight: bold; margin: 0;"">Is there a person in this image?</p>
                    </div>
                </div>","0","main_experiment_trial","4","using_technology_semantic","semantic_sequence","","","","",""
"","","","","","html-keyboard-response","151","452856","0.0-151.0","A3B83172E928434E9BC83C87525CC2D3","019cf80f-a6bf-7791-ba14-574e788ae29f","019cf80d-4266-7117-8a51-54e13c84aca4","","null","
                <div class=""stimulus-container"">
                    <img src=""images/semantic_sequence/using_technology_semantic/using_technology_semantic_5.png"" class=""exp-image"">
                    <div class=""question-area""></div> 
                </div>","null","","","","","","","","",""
"","","","","","html-button-response","152","453276","0.0-152.0","A3B83172E928434E9BC83C87525CC2D3","019cf80f-a6bf-7791-ba14-574e788ae29f","019cf80d-4266-7117-8a51-54e13c84aca4","","419","
                <div class=""stimulus-container"">
                    <img src=""images/semantic_sequence/using_technology_semantic/using_technology_semantic_5.png"" class=""exp-image"">
                    <div class=""question-area"">
                        <p style=""font-size: 20px; font-weight: bold; margin: 0;"">Is there a person in this image?</p>
                    </div>
                </div>","0","main_experiment_trial","5","using_technology_semantic","semantic_sequence","","","","",""
"","","","","","html-keyboard-response","153","458277","0.0-153.0","A3B83172E928434E9BC83C87525CC2D3","019cf80f-a6bf-7791-ba14-574e788ae29f","019cf80d-4266-7117-8a51-54e13c84aca4","","null","
                <div class=""stimulus-container"">
                    <img src=""images/semantic_sequence/using_technology_semantic/using_technology_semantic_6.png"" class=""exp-image"">
                    <div class=""question-area""></div> 
                </div>","null","","","","","","","","",""
"","","","","","html-button-response","154","458722","0.0-154.0","A3B83172E928434E9BC83C87525CC2D3","019cf80f-a6bf-7791-ba14-574e788ae29f","019cf80d-4266-7117-8a51-54e13c84aca4","","444","
                <div class=""stimulus-container"">
                    <img src=""images/semantic_sequence/using_technology_semantic/using_technology_semantic_6.png"" class=""exp-image"">
                    <div class=""question-area"">
                        <p style=""font-size: 20px; font-weight: bold; margin: 0;"">Is there a person in this image?</p>
                    </div>
                </div>","0","main_experiment_trial","6","using_technology_semantic","semantic_sequence","","","","",""
"","","","","","html-keyboard-response","155","463732","0.0-155.0","A3B83172E928434E9BC83C87525CC2D3","019cf80f-a6bf-7791-ba14-574e788ae29f","019cf80d-4266-7117-8a51-54e13c84aca4","","null","
                <div class=""stimulus-container"">
                    <img src=""images/semantic_sequence/using_technology_semantic/using_technology_semantic_7.png"" class=""exp-image"">
                    <div class=""question-area""></div> 
                </div>","null","","","","","","","","",""
"","","","","","html-button-response","156","464251","0.0-156.0","A3B83172E928434E9BC83C87525CC2D3","019cf80f-a6bf-7791-ba14-574e788ae29f","019cf80d-4266-7117-8a51-54e13c84aca4","","517","
                <div class=""stimulus-container"">
                    <img src=""images/semantic_sequence/using_technology_semantic/using_technology_semantic_7.png"" class=""exp-image"">
                    <div class=""question-area"">
                        <p style=""font-size: 20px; font-weight: bold; margin: 0;"">Is there a person in this image?</p>
                    </div>
                </div>","0","main_experiment_trial","7","using_technology_semantic","semantic_sequence","","","","",""
"","","","","","html-keyboard-response","157","469266","0.0-157.0","A3B83172E928434E9BC83C87525CC2D3","019cf80f-a6bf-7791-ba14-574e788ae29f","019cf80d-4266-7117-8a51-54e13c84aca4","","null","
                <div class=""stimulus-container"">
                    <img src=""images/semantic_sequence/using_technology_semantic/using_technology_semantic_8.png"" class=""exp-image"">
                    <div class=""question-area""></div> 
                </div>","null","","","","","","","","",""
"","","","","","html-button-response","158","469864","0.0-158.0","A3B83172E928434E9BC83C87525CC2D3","019cf80f-a6bf-7791-ba14-574e788ae29f","019cf80d-4266-7117-8a51-54e13c84aca4","","596","
                <div class=""stimulus-container"">
                    <img src=""images/semantic_sequence/using_technology_semantic/using_technology_semantic_8.png"" class=""exp-image"">
                    <div class=""question-area"">
                        <p style=""font-size: 20px; font-weight: bold; margin: 0;"">Is there a person in this image?</p>
                    </div>
                </div>","0","main_experiment_trial","8","using_technology_semantic","semantic_sequence","","","","",""
"","","","","","html-keyboard-response","159","474879","0.0-159.0","A3B83172E928434E9BC83C87525CC2D3","019cf80f-a6bf-7791-ba14-574e788ae29f","019cf80d-4266-7117-8a51-54e13c84aca4","","null","
                <div class=""stimulus-container"">
                    <img src=""images/semantic_sequence/using_technology_semantic/using_technology_semantic_9.png"" class=""exp-image"">
                    <div class=""question-area""></div> 
                </div>","null","","","","","","","","",""
"","","","","","html-button-response","160","475305","0.0-160.0","A3B83172E928434E9BC83C87525CC2D3","019cf80f-a6bf-7791-ba14-574e788ae29f","019cf80d-4266-7117-8a51-54e13c84aca4","","425","
                <div class=""stimulus-container"">
                    <img src=""images/semantic_sequence/using_technology_semantic/using_technology_semantic_9.png"" class=""exp-image"">
                    <div class=""question-area"">
                        <p style=""font-size: 20px; font-weight: bold; margin: 0;"">Is there a person in this image?</p>
                    </div>
                </div>","0","main_experiment_trial","9","using_technology_semantic","semantic_sequence","","","","",""
"","","","","","html-keyboard-response","161","480321","0.0-161.0","A3B83172E928434E9BC83C87525CC2D3","019cf80f-a6bf-7791-ba14-574e788ae29f","019cf80d-4266-7117-8a51-54e13c84aca4","","null","
                <div class=""stimulus-container"">
                    <img src=""images/semantic_sequence/using_technology_semantic/using_technology_semantic_ten.png"" class=""exp-image"">
                    <div class=""question-area""></div> 
                </div>","null","","","","","","","","",""
"","","","","","html-button-response","162","480839","0.0-162.0","A3B83172E928434E9BC83C87525CC2D3","019cf80f-a6bf-7791-ba14-574e788ae29f","019cf80d-4266-7117-8a51-54e13c84aca4","","516","
                <div class=""stimulus-container"">
                    <img src=""images/semantic_sequence/using_technology_semantic/using_technology_semantic_ten.png"" class=""exp-image"">
                    <div class=""question-area"">
                        <p style=""font-size: 20px; font-weight: bold; margin: 0;"">Is there a person in this image?</p>
                    </div>
                </div>","0","main_experiment_trial","ten","using_technology_semantic","semantic_sequence","","","","",""
"","","","","","html-keyboard-response","163","481847","0.0-163.0","A3B83172E928434E9BC83C87525CC2D3","019cf80f-a6bf-7791-ba14-574e788ae29f","019cf80d-4266-7117-8a51-54e13c84aca4","","null","<div style=""background-color: white; width: 100vw; height: 100vh;""></div>","null","","","","","","","","",""
"","","","","","html-keyboard-response","164","486850","0.0-164.0","A3B83172E928434E9BC83C87525CC2D3","019cf80f-a6bf-7791-ba14-574e788ae29f","019cf80d-4266-7117-8a51-54e13c84aca4","","null","
                <div class=""stimulus-container"">
                    <img src=""images/semantic_sequence/housework_semantic/housework_semantic_1.png"" class=""exp-image"">
                    <div class=""question-area""></div> 
                </div>","null","","","","","","","","",""
"","","","","","html-button-response","165","487733","0.0-165.0","A3B83172E928434E9BC83C87525CC2D3","019cf80f-a6bf-7791-ba14-574e788ae29f","019cf80d-4266-7117-8a51-54e13c84aca4","","881","
                <div class=""stimulus-container"">
                    <img src=""images/semantic_sequence/housework_semantic/housework_semantic_1.png"" class=""exp-image"">
                    <div class=""question-area"">
                        <p style=""font-size: 20px; font-weight: bold; margin: 0;"">Is there a person in this image?</p>
                    </div>
                </div>","1","main_experiment_trial","1","housework_semantic","semantic_sequence","","","","",""
"","","","","","html-keyboard-response","166","492746","0.0-166.0","A3B83172E928434E9BC83C87525CC2D3","019cf80f-a6bf-7791-ba14-574e788ae29f","019cf80d-4266-7117-8a51-54e13c84aca4","","null","
                <div class=""stimulus-container"">
                    <img src=""images/semantic_sequence/housework_semantic/housework_semantic_2.png"" class=""exp-image"">
                    <div class=""question-area""></div> 
                </div>","null","","","","","","","","",""
"","","","","","html-button-response","167","493268","0.0-167.0","A3B83172E928434E9BC83C87525CC2D3","019cf80f-a6bf-7791-ba14-574e788ae29f","019cf80d-4266-7117-8a51-54e13c84aca4","","521","
                <div class=""stimulus-container"">
                    <img src=""images/semantic_sequence/housework_semantic/housework_semantic_2.png"" class=""exp-image"">
                    <div class=""question-area"">
                        <p style=""font-size: 20px; font-weight: bold; margin: 0;"">Is there a person in this image?</p>
                    </div>
                </div>","0","main_experiment_trial","2","housework_semantic","semantic_sequence","","","","",""
"","","","","","html-keyboard-response","168","498271","0.0-168.0","A3B83172E928434E9BC83C87525CC2D3","019cf80f-a6bf-7791-ba14-574e788ae29f","019cf80d-4266-7117-8a51-54e13c84aca4","","null","
                <div class=""stimulus-container"">
                    <img src=""images/semantic_sequence/housework_semantic/housework_semantic_3.png"" class=""exp-image"">
                    <div class=""question-area""></div> 
                </div>","null","","","","","","","","",""
"","","","","","html-button-response","169","498735","0.0-169.0","A3B83172E928434E9BC83C87525CC2D3","019cf80f-a6bf-7791-ba14-574e788ae29f","019cf80d-4266-7117-8a51-54e13c84aca4","","463","
                <div class=""stimulus-container"">
                    <img src=""images/semantic_sequence/housework_semantic/housework_semantic_3.png"" class=""exp-image"">
                    <div class=""question-area"">
                        <p style=""font-size: 20px; font-weight: bold; margin: 0;"">Is there a person in this image?</p>
                    </div>
                </div>","0","main_experiment_trial","3","housework_semantic","semantic_sequence","","","","",""
"","","","","","html-keyboard-response","170","503739","0.0-170.0","A3B83172E928434E9BC83C87525CC2D3","019cf80f-a6bf-7791-ba14-574e788ae29f","019cf80d-4266-7117-8a51-54e13c84aca4","","null","
                <div class=""stimulus-container"">
                    <img src=""images/semantic_sequence/housework_semantic/housework_semantic_4.png"" class=""exp-image"">
                    <div class=""question-area""></div> 
                </div>","null","","","","","","","","",""
"","","","","","html-button-response","171","504189","0.0-171.0","A3B83172E928434E9BC83C87525CC2D3","019cf80f-a6bf-7791-ba14-574e788ae29f","019cf80d-4266-7117-8a51-54e13c84aca4","","449","
                <div class=""stimulus-container"">
                    <img src=""images/semantic_sequence/housework_semantic/housework_semantic_4.png"" class=""exp-image"">
                    <div class=""question-area"">
                        <p style=""font-size: 20px; font-weight: bold; margin: 0;"">Is there a person in this image?</p>
                    </div>
                </div>","0","main_experiment_trial","4","housework_semantic","semantic_sequence","","","","",""
"","","","","","html-keyboard-response","172","509199","0.0-172.0","A3B83172E928434E9BC83C87525CC2D3","019cf80f-a6bf-7791-ba14-574e788ae29f","019cf80d-4266-7117-8a51-54e13c84aca4","","null","
                <div class=""stimulus-container"">
                    <img src=""images/semantic_sequence/housework_semantic/housework_semantic_5.png"" class=""exp-image"">
                    <div class=""question-area""></div> 
                </div>","null","","","","","","","","",""
"","","","","","html-button-response","173","509651","0.0-173.0","A3B83172E928434E9BC83C87525CC2D3","019cf80f-a6bf-7791-ba14-574e788ae29f","019cf80d-4266-7117-8a51-54e13c84aca4","","452","
                <div class=""stimulus-container"">
                    <img src=""images/semantic_sequence/housework_semantic/housework_semantic_5.png"" class=""exp-image"">
                    <div class=""question-area"">
                        <p style=""font-size: 20px; font-weight: bold; margin: 0;"">Is there a person in this image?</p>
                    </div>
                </div>","0","main_experiment_trial","5","housework_semantic","semantic_sequence","","","","",""
"","","","","","html-keyboard-response","174","514665","0.0-174.0","A3B83172E928434E9BC83C87525CC2D3","019cf80f-a6bf-7791-ba14-574e788ae29f","019cf80d-4266-7117-8a51-54e13c84aca4","","null","
                <div class=""stimulus-container"">
                    <img src=""images/semantic_sequence/housework_semantic/housework_semantic_6.png"" class=""exp-image"">
                    <div class=""question-area""></div> 
                </div>","null","","","","","","","","",""
"","","","","","html-button-response","175","515317","0.0-175.0","A3B83172E928434E9BC83C87525CC2D3","019cf80f-a6bf-7791-ba14-574e788ae29f","019cf80d-4266-7117-8a51-54e13c84aca4","","651","
                <div class=""stimulus-container"">
                    <img src=""images/semantic_sequence/housework_semantic/housework_semantic_6.png"" class=""exp-image"">
                    <div class=""question-area"">
                        <p style=""font-size: 20px; font-weight: bold; margin: 0;"">Is there a person in this image?</p>
                    </div>
                </div>","0","main_experiment_trial","6","housework_semantic","semantic_sequence","","","","",""
"","","","","","html-keyboard-response","176","520328","0.0-176.0","A3B83172E928434E9BC83C87525CC2D3","019cf80f-a6bf-7791-ba14-574e788ae29f","019cf80d-4266-7117-8a51-54e13c84aca4","","null","
                <div class=""stimulus-container"">
                    <img src=""images/semantic_sequence/housework_semantic/housework_semantic_7.png"" class=""exp-image"">
                    <div class=""question-area""></div> 
                </div>","null","","","","","","","","",""
"","","","","","html-button-response","177","520800","0.0-177.0","A3B83172E928434E9BC83C87525CC2D3","019cf80f-a6bf-7791-ba14-574e788ae29f","019cf80d-4266-7117-8a51-54e13c84aca4","","470","
                <div class=""stimulus-container"">
                    <img src=""images/semantic_sequence/housework_semantic/housework_semantic_7.png"" class=""exp-image"">
                    <div class=""question-area"">
                        <p style=""font-size: 20px; font-weight: bold; margin: 0;"">Is there a person in this image?</p>
                    </div>
                </div>","1","main_experiment_trial","7","housework_semantic","semantic_sequence","","","","",""
"","","","","","html-keyboard-response","178","525813","0.0-178.0","A3B83172E928434E9BC83C87525CC2D3","019cf80f-a6bf-7791-ba14-574e788ae29f","019cf80d-4266-7117-8a51-54e13c84aca4","","null","
                <div class=""stimulus-container"">
                    <img src=""images/semantic_sequence/housework_semantic/housework_semantic_8.png"" class=""exp-image"">
                    <div class=""question-area""></div> 
                </div>","null","","","","","","","","",""
"","","","","","html-button-response","179","526518","0.0-179.0","A3B83172E928434E9BC83C87525CC2D3","019cf80f-a6bf-7791-ba14-574e788ae29f","019cf80d-4266-7117-8a51-54e13c84aca4","","703","
                <div class=""stimulus-container"">
                    <img src=""images/semantic_sequence/housework_semantic/housework_semantic_8.png"" class=""exp-image"">
                    <div class=""question-area"">
                        <p style=""font-size: 20px; font-weight: bold; margin: 0;"">Is there a person in this image?</p>
                    </div>
                </div>","0","main_experiment_trial","8","housework_semantic","semantic_sequence","","","","",""
"","","","","","html-keyboard-response","180","531524","0.0-180.0","A3B83172E928434E9BC83C87525CC2D3","019cf80f-a6bf-7791-ba14-574e788ae29f","019cf80d-4266-7117-8a51-54e13c84aca4","","null","
                <div class=""stimulus-container"">
