"success","timeout","failed_images","failed_audio","failed_video","trial_type","trial_index","time_elapsed","internal_node_id","subject_id","study_id","session_id","view_history","rt","stimulus","response","task","image_index","folder","sequence_type","valuable_image_index","reward_type","chosen_image_index","correct_choice"
"true","false","[]","[]","[]","preload","0","6483","0.0-0.0","EC645E7F80C242CBA5232FAC323E4571","019cef99-2d01-7343-b2a8-05feee347e4a","019cef87-c56d-7b55-9135-c5814367ec25","","","","","","","","","","","",""
"","","","","","instructions","1","8063","0.0-1.0","EC645E7F80C242CBA5232FAC323E4571","019cef99-2d01-7343-b2a8-05feee347e4a","019cef87-c56d-7b55-9135-c5814367ec25","[{""page_index"":0,""viewing_time"":1579}]","1580","","","","","","","","","",""
"","","","","","instructions","2","10663","0.0-2.0","EC645E7F80C242CBA5232FAC323E4571","019cef99-2d01-7343-b2a8-05feee347e4a","019cef87-c56d-7b55-9135-c5814367ec25","[{""page_index"":0,""viewing_time"":2599}]","2599","","","","","","","","","",""
"true","","","","","fullscreen","3","19945","0.0-3.0","EC645E7F80C242CBA5232FAC323E4571","019cef99-2d01-7343-b2a8-05feee347e4a","019cef87-c56d-7b55-9135-c5814367ec25","","8279","","","","","","","","","",""
"","","","","","instructions","4","35031","0.0-4.0","EC645E7F80C242CBA5232FAC323E4571","019cef99-2d01-7343-b2a8-05feee347e4a","019cef87-c56d-7b55-9135-c5814367ec25","[{""page_index"":0,""viewing_time"":15085}]","15085","","","","","","","","","",""
"","","","","","instructions","5","44935","0.0-5.0","EC645E7F80C242CBA5232FAC323E4571","019cef99-2d01-7343-b2a8-05feee347e4a","019cef87-c56d-7b55-9135-c5814367ec25","[{""page_index"":0,""viewing_time"":9904}]","9904","","","","","","","","","",""
"","","","","","html-keyboard-response","6","48948","0.0-6.0","EC645E7F80C242CBA5232FAC323E4571","019cef99-2d01-7343-b2a8-05feee347e4a","019cef87-c56d-7b55-9135-c5814367ec25","","null","
                <div class=""stimulus-container"">
                    <img src=""images/instructions/movie_1.png"" class=""exp-image"">
                    <div class=""question-area""></div> 
                </div>","null","","","","","","","",""
"","","","","","html-button-response","7","50535","0.0-7.0","EC645E7F80C242CBA5232FAC323E4571","019cef99-2d01-7343-b2a8-05feee347e4a","019cef87-c56d-7b55-9135-c5814367ec25","","1586","
                <div class=""stimulus-container"">
                    <img src=""images/instructions/movie_1.png"" class=""exp-image"">
                    <div class=""question-area"">
                        <p style=""font-size: 20px; font-weight: bold; margin: 0;"">Was there a person in this image?</p>
                    </div>
                </div>","0","example_question","1","","","","","",""
"","","","","","html-keyboard-response","8","54543","0.0-8.0","EC645E7F80C242CBA5232FAC323E4571","019cef99-2d01-7343-b2a8-05feee347e4a","019cef87-c56d-7b55-9135-c5814367ec25","","null","
                <div class=""stimulus-container"">
                    <img src=""images/instructions/movie_2.png"" class=""exp-image"">
                    <div class=""question-area""></div> 
                </div>","null","","","","","","","",""
"","","","","","html-button-response","9","55575","0.0-9.0","EC645E7F80C242CBA5232FAC323E4571","019cef99-2d01-7343-b2a8-05feee347e4a","019cef87-c56d-7b55-9135-c5814367ec25","","1031","
                <div class=""stimulus-container"">
                    <img src=""images/instructions/movie_2.png"" class=""exp-image"">
                    <div class=""question-area"">
                        <p style=""font-size: 20px; font-weight: bold; margin: 0;"">Was there a person in this image?</p>
                    </div>
                </div>","0","example_question","2","","","","","",""
"","","","","","html-keyboard-response","10","59585","0.0-10.0","EC645E7F80C242CBA5232FAC323E4571","019cef99-2d01-7343-b2a8-05feee347e4a","019cef87-c56d-7b55-9135-c5814367ec25","","null","
                <div class=""stimulus-container"">
                    <img src=""images/instructions/movie_3.png"" class=""exp-image"">
                    <div class=""question-area""></div> 
                </div>","null","","","","","","","",""
"","","","","","html-button-response","11","60471","0.0-11.0","EC645E7F80C242CBA5232FAC323E4571","019cef99-2d01-7343-b2a8-05feee347e4a","019cef87-c56d-7b55-9135-c5814367ec25","","885","
                <div class=""stimulus-container"">
                    <img src=""images/instructions/movie_3.png"" class=""exp-image"">
                    <div class=""question-area"">
                        <p style=""font-size: 20px; font-weight: bold; margin: 0;"">Was there a person in this image?</p>
                    </div>
                </div>","0","example_question","3","","","","","",""
"","","","","","html-keyboard-response","12","64473","0.0-12.0","EC645E7F80C242CBA5232FAC323E4571","019cef99-2d01-7343-b2a8-05feee347e4a","019cef87-c56d-7b55-9135-c5814367ec25","","null","
                <div class=""stimulus-container"">
                    <img src=""images/instructions/movie_4.png"" class=""exp-image"">
                    <div class=""question-area""></div> 
                </div>","null","","","","","","","",""
"","","","","","html-button-response","13","65343","0.0-13.0","EC645E7F80C242CBA5232FAC323E4571","019cef99-2d01-7343-b2a8-05feee347e4a","019cef87-c56d-7b55-9135-c5814367ec25","","869","
                <div class=""stimulus-container"">
                    <img src=""images/instructions/movie_4.png"" class=""exp-image"">
                    <div class=""question-area"">
                        <p style=""font-size: 20px; font-weight: bold; margin: 0;"">Was there a person in this image?</p>
                    </div>
                </div>","0","example_question","4","","","","","",""
"","","","","","instructions","14","67327","0.0-14.0","EC645E7F80C242CBA5232FAC323E4571","019cef99-2d01-7343-b2a8-05feee347e4a","019cef87-c56d-7b55-9135-c5814367ec25","[{""page_index"":0,""viewing_time"":1984}]","1984","","","","","","","","","",""
"","","","","","instructions","15","78839","0.0-15.0","EC645E7F80C242CBA5232FAC323E4571","019cef99-2d01-7343-b2a8-05feee347e4a","019cef87-c56d-7b55-9135-c5814367ec25","[{""page_index"":0,""viewing_time"":11512}]","11512","","","","","","","","","",""
"","","","","","html-keyboard-response","16","79849","0.0-16.0","EC645E7F80C242CBA5232FAC323E4571","019cef99-2d01-7343-b2a8-05feee347e4a","019cef87-c56d-7b55-9135-c5814367ec25","","null","<div style=""background-color: white; width: 100vw; height: 100vh;""></div>","null","","","","","","","",""
"","","","","","html-keyboard-response","17","84866","0.0-17.0","EC645E7F80C242CBA5232FAC323E4571","019cef99-2d01-7343-b2a8-05feee347e4a","019cef87-c56d-7b55-9135-c5814367ec25","","null","
                <div class=""stimulus-container"">
                    <img src=""images/schematic_sequence/dinner_party_scheme/dinner_party_scheme_1.png"" class=""exp-image"">
                    <div class=""question-area""></div> 
                </div>","null","","","","","","","",""
"","","","","","html-button-response","18","85759","0.0-18.0","EC645E7F80C242CBA5232FAC323E4571","019cef99-2d01-7343-b2a8-05feee347e4a","019cef87-c56d-7b55-9135-c5814367ec25","","892","
                <div class=""stimulus-container"">
                    <img src=""images/schematic_sequence/dinner_party_scheme/dinner_party_scheme_1.png"" class=""exp-image"">
                    <div class=""question-area"">
                        <p style=""font-size: 20px; font-weight: bold; margin: 0;"">Is there a person in this image?</p>
                    </div>
                </div>","0","main_experiment_trial","1","dinner_party_scheme","schematic_sequence","","","",""
"","","","","","html-keyboard-response","19","90770","0.0-19.0","EC645E7F80C242CBA5232FAC323E4571","019cef99-2d01-7343-b2a8-05feee347e4a","019cef87-c56d-7b55-9135-c5814367ec25","","null","
                <div class=""stimulus-container"">
                    <img src=""images/schematic_sequence/dinner_party_scheme/dinner_party_scheme_2.png"" class=""exp-image"">
                    <div class=""question-area""></div> 
                </div>","null","","","","","","","",""
"","","","","","html-button-response","20","91671","0.0-20.0","EC645E7F80C242CBA5232FAC323E4571","019cef99-2d01-7343-b2a8-05feee347e4a","019cef87-c56d-7b55-9135-c5814367ec25","","900","
                <div class=""stimulus-container"">
                    <img src=""images/schematic_sequence/dinner_party_scheme/dinner_party_scheme_2.png"" class=""exp-image"">
                    <div class=""question-area"">
                        <p style=""font-size: 20px; font-weight: bold; margin: 0;"">Is there a person in this image?</p>
                    </div>
                </div>","0","main_experiment_trial","2","dinner_party_scheme","schematic_sequence","","","",""
"","","","","","html-keyboard-response","21","96685","0.0-21.0","EC645E7F80C242CBA5232FAC323E4571","019cef99-2d01-7343-b2a8-05feee347e4a","019cef87-c56d-7b55-9135-c5814367ec25","","null","
                <div class=""stimulus-container"">
                    <img src=""images/schematic_sequence/dinner_party_scheme/dinner_party_scheme_3.png"" class=""exp-image"">
                    <div class=""question-area""></div> 
                </div>","null","","","","","","","",""
"","","","","","html-button-response","22","97447","0.0-22.0","EC645E7F80C242CBA5232FAC323E4571","019cef99-2d01-7343-b2a8-05feee347e4a","019cef87-c56d-7b55-9135-c5814367ec25","","760","
                <div class=""stimulus-container"">
                    <img src=""images/schematic_sequence/dinner_party_scheme/dinner_party_scheme_3.png"" class=""exp-image"">
                    <div class=""question-area"">
                        <p style=""font-size: 20px; font-weight: bold; margin: 0;"">Is there a person in this image?</p>
                    </div>
                </div>","0","main_experiment_trial","3","dinner_party_scheme","schematic_sequence","","","",""
"","","","","","html-keyboard-response","23","102463","0.0-23.0","EC645E7F80C242CBA5232FAC323E4571","019cef99-2d01-7343-b2a8-05feee347e4a","019cef87-c56d-7b55-9135-c5814367ec25","","null","
                <div class=""stimulus-container"">
                    <img src=""images/schematic_sequence/dinner_party_scheme/dinner_party_scheme_4.png"" class=""exp-image"">
                    <div class=""question-area""></div> 
                </div>","null","","","","","","","",""
"","","","","","html-button-response","24","103095","0.0-24.0","EC645E7F80C242CBA5232FAC323E4571","019cef99-2d01-7343-b2a8-05feee347e4a","019cef87-c56d-7b55-9135-c5814367ec25","","631","
                <div class=""stimulus-container"">
                    <img src=""images/schematic_sequence/dinner_party_scheme/dinner_party_scheme_4.png"" class=""exp-image"">
                    <div class=""question-area"">
                        <p style=""font-size: 20px; font-weight: bold; margin: 0;"">Is there a person in this image?</p>
                    </div>
                </div>","0","main_experiment_trial","4","dinner_party_scheme","schematic_sequence","","","",""
"","","","","","html-keyboard-response","25","108101","0.0-25.0","EC645E7F80C242CBA5232FAC323E4571","019cef99-2d01-7343-b2a8-05feee347e4a","019cef87-c56d-7b55-9135-c5814367ec25","","null","
                <div class=""stimulus-container"">
                    <img src=""images/schematic_sequence/dinner_party_scheme/dinner_party_scheme_5.png"" class=""exp-image"">
                    <div class=""question-area""></div> 
                </div>","null","","","","","","","",""
"","","","","","html-button-response","26","108863","0.0-26.0","EC645E7F80C242CBA5232FAC323E4571","019cef99-2d01-7343-b2a8-05feee347e4a","019cef87-c56d-7b55-9135-c5814367ec25","","761","
                <div class=""stimulus-container"">
                    <img src=""images/schematic_sequence/dinner_party_scheme/dinner_party_scheme_5.png"" class=""exp-image"">
                    <div class=""question-area"">
                        <p style=""font-size: 20px; font-weight: bold; margin: 0;"">Is there a person in this image?</p>
                    </div>
                </div>","0","main_experiment_trial","5","dinner_party_scheme","schematic_sequence","","","",""
"","","","","","html-keyboard-response","27","113877","0.0-27.0","EC645E7F80C242CBA5232FAC323E4571","019cef99-2d01-7343-b2a8-05feee347e4a","019cef87-c56d-7b55-9135-c5814367ec25","","null","
                <div class=""stimulus-container"">
                    <img src=""images/schematic_sequence/dinner_party_scheme/dinner_party_scheme_6.png"" class=""exp-image"">
                    <div class=""question-area""></div> 
                </div>","null","","","","","","","",""
"","","","","","html-button-response","28","114567","0.0-28.0","EC645E7F80C242CBA5232FAC323E4571","019cef99-2d01-7343-b2a8-05feee347e4a","019cef87-c56d-7b55-9135-c5814367ec25","","689","
                <div class=""stimulus-container"">
                    <img src=""images/schematic_sequence/dinner_party_scheme/dinner_party_scheme_6.png"" class=""exp-image"">
                    <div class=""question-area"">
                        <p style=""font-size: 20px; font-weight: bold; margin: 0;"">Is there a person in this image?</p>
                    </div>
                </div>","0","main_experiment_trial","6","dinner_party_scheme","schematic_sequence","","","",""
"","","","","","html-keyboard-response","29","119569","0.0-29.0","EC645E7F80C242CBA5232FAC323E4571","019cef99-2d01-7343-b2a8-05feee347e4a","019cef87-c56d-7b55-9135-c5814367ec25","","null","
                <div class=""stimulus-container"">
                    <img src=""images/schematic_sequence/dinner_party_scheme/dinner_party_scheme_7.png"" class=""exp-image"">
                    <div class=""question-area""></div> 
                </div>","null","","","","","","","",""
"","","","","","html-button-response","30","120119","0.0-30.0","EC645E7F80C242CBA5232FAC323E4571","019cef99-2d01-7343-b2a8-05feee347e4a","019cef87-c56d-7b55-9135-c5814367ec25","","549","
                <div class=""stimulus-container"">
                    <img src=""images/schematic_sequence/dinner_party_scheme/dinner_party_scheme_7.png"" class=""exp-image"">
                    <div class=""question-area"">
                        <p style=""font-size: 20px; font-weight: bold; margin: 0;"">Is there a person in this image?</p>
                    </div>
                </div>","0","main_experiment_trial","7","dinner_party_scheme","schematic_sequence","","","",""
"","","","","","html-keyboard-response","31","125133","0.0-31.0","EC645E7F80C242CBA5232FAC323E4571","019cef99-2d01-7343-b2a8-05feee347e4a","019cef87-c56d-7b55-9135-c5814367ec25","","null","
                <div class=""stimulus-container"">
                    <img src=""images/schematic_sequence/dinner_party_scheme/dinner_party_scheme_8.png"" class=""exp-image"">
                    <div class=""question-area""></div> 
                </div>","null","","","","","","","",""
"","","","","","html-button-response","32","125911","0.0-32.0","EC645E7F80C242CBA5232FAC323E4571","019cef99-2d01-7343-b2a8-05feee347e4a","019cef87-c56d-7b55-9135-c5814367ec25","","777","
                <div class=""stimulus-container"">
                    <img src=""images/schematic_sequence/dinner_party_scheme/dinner_party_scheme_8.png"" class=""exp-image"">
                    <div class=""question-area"">
                        <p style=""font-size: 20px; font-weight: bold; margin: 0;"">Is there a person in this image?</p>
                    </div>
                </div>","0","main_experiment_trial","8","dinner_party_scheme","schematic_sequence","","","",""
"","","","","","html-keyboard-response","33","130915","0.0-33.0","EC645E7F80C242CBA5232FAC323E4571","019cef99-2d01-7343-b2a8-05feee347e4a","019cef87-c56d-7b55-9135-c5814367ec25","","null","
                <div class=""stimulus-container"">
                    <img src=""images/schematic_sequence/dinner_party_scheme/dinner_party_scheme_9.png"" class=""exp-image"">
                    <div class=""question-area""></div> 
                </div>","null","","","","","","","",""
"","","","","","html-button-response","34","131591","0.0-34.0","EC645E7F80C242CBA5232FAC323E4571","019cef99-2d01-7343-b2a8-05feee347e4a","019cef87-c56d-7b55-9135-c5814367ec25","","675","
                <div class=""stimulus-container"">
                    <img src=""images/schematic_sequence/dinner_party_scheme/dinner_party_scheme_9.png"" class=""exp-image"">
                    <div class=""question-area"">
                        <p style=""font-size: 20px; font-weight: bold; margin: 0;"">Is there a person in this image?</p>
                    </div>
                </div>","0","main_experiment_trial","9","dinner_party_scheme","schematic_sequence","","","",""
"","","","","","html-keyboard-response","35","136599","0.0-35.0","EC645E7F80C242CBA5232FAC323E4571","019cef99-2d01-7343-b2a8-05feee347e4a","019cef87-c56d-7b55-9135-c5814367ec25","","null","
                <div class=""stimulus-container"">
                    <img src=""images/schematic_sequence/dinner_party_scheme/dinner_party_scheme_ten.png"" class=""exp-image"">
                    <div class=""question-area""></div> 
                </div>","null","","","","","","","",""
"","","","","","html-button-response","36","137639","0.0-36.0","EC645E7F80C242CBA5232FAC323E4571","019cef99-2d01-7343-b2a8-05feee347e4a","019cef87-c56d-7b55-9135-c5814367ec25","","1039","
                <div class=""stimulus-container"">
                    <img src=""images/schematic_sequence/dinner_party_scheme/dinner_party_scheme_ten.png"" class=""exp-image"">
                    <div class=""question-area"">
                        <p style=""font-size: 20px; font-weight: bold; margin: 0;"">Is there a person in this image?</p>
                    </div>
                </div>","0","main_experiment_trial","ten","dinner_party_scheme","schematic_sequence","","","",""
"","","","","","html-keyboard-response","37","138645","0.0-37.0","EC645E7F80C242CBA5232FAC323E4571","019cef99-2d01-7343-b2a8-05feee347e4a","019cef87-c56d-7b55-9135-c5814367ec25","","null","<div style=""background-color: white; width: 100vw; height: 100vh;""></div>","null","","","","","","","",""
"","","","","","html-keyboard-response","38","143652","0.0-38.0","EC645E7F80C242CBA5232FAC323E4571","019cef99-2d01-7343-b2a8-05feee347e4a","019cef87-c56d-7b55-9135-c5814367ec25","","null","
                <div class=""stimulus-container"">
                    <img src=""images/causal_sequence/museum_causal/museum_causal_1.png"" class=""exp-image"">
                    <div class=""question-area""></div> 
                </div>","null","","","","","","","",""
"","","","","","html-button-response","39","144607","0.0-39.0","EC645E7F80C242CBA5232FAC323E4571","019cef99-2d01-7343-b2a8-05feee347e4a","019cef87-c56d-7b55-9135-c5814367ec25","","954","
                <div class=""stimulus-container"">
                    <img src=""images/causal_sequence/museum_causal/museum_causal_1.png"" class=""exp-image"">
                    <div class=""question-area"">
                        <p style=""font-size: 20px; font-weight: bold; margin: 0;"">Is there a person in this image?</p>
                    </div>
                </div>","0","main_experiment_trial","1","museum_causal","causal_sequence","","","",""
"","","","","","html-keyboard-response","40","149607","0.0-40.0","EC645E7F80C242CBA5232FAC323E4571","019cef99-2d01-7343-b2a8-05feee347e4a","019cef87-c56d-7b55-9135-c5814367ec25","","null","
                <div class=""stimulus-container"">
                    <img src=""images/causal_sequence/museum_causal/museum_causal_2.png"" class=""exp-image"">
                    <div class=""question-area""></div> 
                </div>","null","","","","","","","",""
"","","","","","html-button-response","41","150294","0.0-41.0","EC645E7F80C242CBA5232FAC323E4571","019cef99-2d01-7343-b2a8-05feee347e4a","019cef87-c56d-7b55-9135-c5814367ec25","","687","
                <div class=""stimulus-container"">
                    <img src=""images/causal_sequence/museum_causal/museum_causal_2.png"" class=""exp-image"">
                    <div class=""question-area"">
                        <p style=""font-size: 20px; font-weight: bold; margin: 0;"">Is there a person in this image?</p>
                    </div>
                </div>","0","main_experiment_trial","2","museum_causal","causal_sequence","","","",""
"","","","","","html-keyboard-response","42","155303","0.0-42.0","EC645E7F80C242CBA5232FAC323E4571","019cef99-2d01-7343-b2a8-05feee347e4a","019cef87-c56d-7b55-9135-c5814367ec25","","null","
                <div class=""stimulus-container"">
                    <img src=""images/causal_sequence/museum_causal/museum_causal_3.png"" class=""exp-image"">
                    <div class=""question-area""></div> 
                </div>","null","","","","","","","",""
"","","","","","html-button-response","43","156894","0.0-43.0","EC645E7F80C242CBA5232FAC323E4571","019cef99-2d01-7343-b2a8-05feee347e4a","019cef87-c56d-7b55-9135-c5814367ec25","","1590","
                <div class=""stimulus-container"">
                    <img src=""images/causal_sequence/museum_causal/museum_causal_3.png"" class=""exp-image"">
                    <div class=""question-area"">
                        <p style=""font-size: 20px; font-weight: bold; margin: 0;"">Is there a person in this image?</p>
                    </div>
                </div>","0","main_experiment_trial","3","museum_causal","causal_sequence","","","",""
"","","","","","html-keyboard-response","44","161895","0.0-44.0","EC645E7F80C242CBA5232FAC323E4571","019cef99-2d01-7343-b2a8-05feee347e4a","019cef87-c56d-7b55-9135-c5814367ec25","","null","
                <div class=""stimulus-container"">
                    <img src=""images/causal_sequence/museum_causal/museum_causal_4.png"" class=""exp-image"">
                    <div class=""question-area""></div> 
                </div>","null","","","","","","","",""
"","","","","","html-button-response","45","162542","0.0-45.0","EC645E7F80C242CBA5232FAC323E4571","019cef99-2d01-7343-b2a8-05feee347e4a","019cef87-c56d-7b55-9135-c5814367ec25","","647","
                <div class=""stimulus-container"">
                    <img src=""images/causal_sequence/museum_causal/museum_causal_4.png"" class=""exp-image"">
                    <div class=""question-area"">
                        <p style=""font-size: 20px; font-weight: bold; margin: 0;"">Is there a person in this image?</p>
                    </div>
                </div>","1","main_experiment_trial","4","museum_causal","causal_sequence","","","",""
"","","","","","html-keyboard-response","46","167544","0.0-46.0","EC645E7F80C242CBA5232FAC323E4571","019cef99-2d01-7343-b2a8-05feee347e4a","019cef87-c56d-7b55-9135-c5814367ec25","","null","
                <div class=""stimulus-container"">
                    <img src=""images/causal_sequence/museum_causal/museum_causal_5.png"" class=""exp-image"">
                    <div class=""question-area""></div> 
                </div>","null","","","","","","","",""
"","","","","","html-button-response","47","168351","0.0-47.0","EC645E7F80C242CBA5232FAC323E4571","019cef99-2d01-7343-b2a8-05feee347e4a","019cef87-c56d-7b55-9135-c5814367ec25","","806","
                <div class=""stimulus-container"">
                    <img src=""images/causal_sequence/museum_causal/museum_causal_5.png"" class=""exp-image"">
                    <div class=""question-area"">
                        <p style=""font-size: 20px; font-weight: bold; margin: 0;"">Is there a person in this image?</p>
                    </div>
                </div>","0","main_experiment_trial","5","museum_causal","causal_sequence","","","",""
"","","","","","html-keyboard-response","48","173356","0.0-48.0","EC645E7F80C242CBA5232FAC323E4571","019cef99-2d01-7343-b2a8-05feee347e4a","019cef87-c56d-7b55-9135-c5814367ec25","","null","
                <div class=""stimulus-container"">
                    <img src=""images/causal_sequence/museum_causal/museum_causal_6.png"" class=""exp-image"">
                    <div class=""question-area""></div> 
                </div>","null","","","","","","","",""
"","","","","","html-button-response","49","174206","0.0-49.0","EC645E7F80C242CBA5232FAC323E4571","019cef99-2d01-7343-b2a8-05feee347e4a","019cef87-c56d-7b55-9135-c5814367ec25","","849","
                <div class=""stimulus-container"">
                    <img src=""images/causal_sequence/museum_causal/museum_causal_6.png"" class=""exp-image"">
                    <div class=""question-area"">
                        <p style=""font-size: 20px; font-weight: bold; margin: 0;"">Is there a person in this image?</p>
                    </div>
                </div>","0","main_experiment_trial","6","museum_causal","causal_sequence","","","",""
"","","","","","html-keyboard-response","50","179216","0.0-50.0","EC645E7F80C242CBA5232FAC323E4571","019cef99-2d01-7343-b2a8-05feee347e4a","019cef87-c56d-7b55-9135-c5814367ec25","","null","
                <div class=""stimulus-container"">
                    <img src=""images/causal_sequence/museum_causal/museum_causal_7.png"" class=""exp-image"">
                    <div class=""question-area""></div> 
                </div>","null","","","","","","","",""
"","","","","","html-button-response","51","179855","0.0-51.0","EC645E7F80C242CBA5232FAC323E4571","019cef99-2d01-7343-b2a8-05feee347e4a","019cef87-c56d-7b55-9135-c5814367ec25","","638","
                <div class=""stimulus-container"">
                    <img src=""images/causal_sequence/museum_causal/museum_causal_7.png"" class=""exp-image"">
                    <div class=""question-area"">
                        <p style=""font-size: 20px; font-weight: bold; margin: 0;"">Is there a person in this image?</p>
                    </div>
                </div>","1","main_experiment_trial","7","museum_causal","causal_sequence","","","",""
"","","","","","html-keyboard-response","52","184871","0.0-52.0","EC645E7F80C242CBA5232FAC323E4571","019cef99-2d01-7343-b2a8-05feee347e4a","019cef87-c56d-7b55-9135-c5814367ec25","","null","
                <div class=""stimulus-container"">
                    <img src=""images/causal_sequence/museum_causal/museum_causal_8.png"" class=""exp-image"">
                    <div class=""question-area""></div> 
                </div>","null","","","","","","","",""
"","","","","","html-button-response","53","185663","0.0-53.0","EC645E7F80C242CBA5232FAC323E4571","019cef99-2d01-7343-b2a8-05feee347e4a","019cef87-c56d-7b55-9135-c5814367ec25","","791","
                <div class=""stimulus-container"">
                    <img src=""images/causal_sequence/museum_causal/museum_causal_8.png"" class=""exp-image"">
                    <div class=""question-area"">
                        <p style=""font-size: 20px; font-weight: bold; margin: 0;"">Is there a person in this image?</p>
                    </div>
                </div>","0","main_experiment_trial","8","museum_causal","causal_sequence","","","",""
"","","","","","html-keyboard-response","54","190665","0.0-54.0","EC645E7F80C242CBA5232FAC323E4571","019cef99-2d01-7343-b2a8-05feee347e4a","019cef87-c56d-7b55-9135-c5814367ec25","","null","
                <div class=""stimulus-container"">
                    <img src=""images/causal_sequence/museum_causal/museum_causal_9.png"" class=""exp-image"">
                    <div class=""question-area""></div> 
                </div>","null","","","","","","","",""
"","","","","","html-button-response","55","191335","0.0-55.0","EC645E7F80C242CBA5232FAC323E4571","019cef99-2d01-7343-b2a8-05feee347e4a","019cef87-c56d-7b55-9135-c5814367ec25","","669","
                <div class=""stimulus-container"">
                    <img src=""images/causal_sequence/museum_causal/museum_causal_9.png"" class=""exp-image"">
                    <div class=""question-area"">
                        <p style=""font-size: 20px; font-weight: bold; margin: 0;"">Is there a person in this image?</p>
                    </div>
                </div>","1","main_experiment_trial","9","museum_causal","causal_sequence","","","",""
"","","","","","html-keyboard-response","56","196337","0.0-56.0","EC645E7F80C242CBA5232FAC323E4571","019cef99-2d01-7343-b2a8-05feee347e4a","019cef87-c56d-7b55-9135-c5814367ec25","","null","
                <div class=""stimulus-container"">
                    <img src=""images/causal_sequence/museum_causal/museum_causal_ten.png"" class=""exp-image"">
                    <div class=""question-area""></div> 
                </div>","null","","","","","","","",""
"","","","","","html-button-response","57","197223","0.0-57.0","EC645E7F80C242CBA5232FAC323E4571","019cef99-2d01-7343-b2a8-05feee347e4a","019cef87-c56d-7b55-9135-c5814367ec25","","885","
                <div class=""stimulus-container"">
                    <img src=""images/causal_sequence/museum_causal/museum_causal_ten.png"" class=""exp-image"">
                    <div class=""question-area"">
                        <p style=""font-size: 20px; font-weight: bold; margin: 0;"">Is there a person in this image?</p>
                    </div>
                </div>","0","main_experiment_trial","ten","museum_causal","causal_sequence","","","",""
"","","","","","html-keyboard-response","58","198232","0.0-58.0","EC645E7F80C242CBA5232FAC323E4571","019cef99-2d01-7343-b2a8-05feee347e4a","019cef87-c56d-7b55-9135-c5814367ec25","","null","<div style=""background-color: white; width: 100vw; height: 100vh;""></div>","null","","","","","","","",""
"","","","","","html-keyboard-response","59","203234","0.0-59.0","EC645E7F80C242CBA5232FAC323E4571","019cef99-2d01-7343-b2a8-05feee347e4a","019cef87-c56d-7b55-9135-c5814367ec25","","null","
                <div class=""stimulus-container"">
                    <img src=""images/schematic_sequence/supermarket_scheme/supermarket_scheme_1.png"" class=""exp-image"">
                    <div class=""question-area""></div> 
                </div>","null","","","","","","","",""
"","","","","","html-button-response","60","203847","0.0-60.0","EC645E7F80C242CBA5232FAC323E4571","019cef99-2d01-7343-b2a8-05feee347e4a","019cef87-c56d-7b55-9135-c5814367ec25","","612","
                <div class=""stimulus-container"">
                    <img src=""images/schematic_sequence/supermarket_scheme/supermarket_scheme_1.png"" class=""exp-image"">
                    <div class=""question-area"">
                        <p style=""font-size: 20px; font-weight: bold; margin: 0;"">Is there a person in this image?</p>
                    </div>
                </div>","1","main_experiment_trial","1","supermarket_scheme","schematic_sequence","","","",""
"","","","","","html-keyboard-response","61","208852","0.0-61.0","EC645E7F80C242CBA5232FAC323E4571","019cef99-2d01-7343-b2a8-05feee347e4a","019cef87-c56d-7b55-9135-c5814367ec25","","null","
                <div class=""stimulus-container"">
                    <img src=""images/schematic_sequence/supermarket_scheme/supermarket_scheme_2.png"" class=""exp-image"">
                    <div class=""question-area""></div> 
                </div>","null","","","","","","","",""
"","","","","","html-button-response","62","209327","0.0-62.0","EC645E7F80C242CBA5232FAC323E4571","019cef99-2d01-7343-b2a8-05feee347e4a","019cef87-c56d-7b55-9135-c5814367ec25","","474","
                <div class=""stimulus-container"">
                    <img src=""images/schematic_sequence/supermarket_scheme/supermarket_scheme_2.png"" class=""exp-image"">
                    <div class=""question-area"">
                        <p style=""font-size: 20px; font-weight: bold; margin: 0;"">Is there a person in this image?</p>
                    </div>
                </div>","1","main_experiment_trial","2","supermarket_scheme","schematic_sequence","","","",""
"","","","","","html-keyboard-response","63","214328","0.0-63.0","EC645E7F80C242CBA5232FAC323E4571","019cef99-2d01-7343-b2a8-05feee347e4a","019cef87-c56d-7b55-9135-c5814367ec25","","null","
                <div class=""stimulus-container"">
                    <img src=""images/schematic_sequence/supermarket_scheme/supermarket_scheme_3.png"" class=""exp-image"">
                    <div class=""question-area""></div> 
                </div>","null","","","","","","","",""
"","","","","","html-button-response","64","215166","0.0-64.0","EC645E7F80C242CBA5232FAC323E4571","019cef99-2d01-7343-b2a8-05feee347e4a","019cef87-c56d-7b55-9135-c5814367ec25","","838","
                <div class=""stimulus-container"">
                    <img src=""images/schematic_sequence/supermarket_scheme/supermarket_scheme_3.png"" class=""exp-image"">
                    <div class=""question-area"">
                        <p style=""font-size: 20px; font-weight: bold; margin: 0;"">Is there a person in this image?</p>
                    </div>
                </div>","1","main_experiment_trial","3","supermarket_scheme","schematic_sequence","","","",""
"","","","","","html-keyboard-response","65","220177","0.0-65.0","EC645E7F80C242CBA5232FAC323E4571","019cef99-2d01-7343-b2a8-05feee347e4a","019cef87-c56d-7b55-9135-c5814367ec25","","null","
                <div class=""stimulus-container"">
                    <img src=""images/schematic_sequence/supermarket_scheme/supermarket_scheme_4.png"" class=""exp-image"">
                    <div class=""question-area""></div> 
                </div>","null","","","","","","","",""
"","","","","","html-button-response","66","220983","0.0-66.0","EC645E7F80C242CBA5232FAC323E4571","019cef99-2d01-7343-b2a8-05feee347e4a","019cef87-c56d-7b55-9135-c5814367ec25","","805","
                <div class=""stimulus-container"">
                    <img src=""images/schematic_sequence/supermarket_scheme/supermarket_scheme_4.png"" class=""exp-image"">
                    <div class=""question-area"">
                        <p style=""font-size: 20px; font-weight: bold; margin: 0;"">Is there a person in this image?</p>
                    </div>
                </div>","0","main_experiment_trial","4","supermarket_scheme","schematic_sequence","","","",""
"","","","","","html-keyboard-response","67","225993","0.0-67.0","EC645E7F80C242CBA5232FAC323E4571","019cef99-2d01-7343-b2a8-05feee347e4a","019cef87-c56d-7b55-9135-c5814367ec25","","null","
                <div class=""stimulus-container"">
                    <img src=""images/schematic_sequence/supermarket_scheme/supermarket_scheme_5.png"" class=""exp-image"">
                    <div class=""question-area""></div> 
                </div>","null","","","","","","","",""
"","","","","","html-button-response","68","226870","0.0-68.0","EC645E7F80C242CBA5232FAC323E4571","019cef99-2d01-7343-b2a8-05feee347e4a","019cef87-c56d-7b55-9135-c5814367ec25","","877","
                <div class=""stimulus-container"">
                    <img src=""images/schematic_sequence/supermarket_scheme/supermarket_scheme_5.png"" class=""exp-image"">
                    <div class=""question-area"">
                        <p style=""font-size: 20px; font-weight: bold; margin: 0;"">Is there a person in this image?</p>
                    </div>
                </div>","1","main_experiment_trial","5","supermarket_scheme","schematic_sequence","","","",""
"","","","","","html-keyboard-response","69","231871","0.0-69.0","EC645E7F80C242CBA5232FAC323E4571","019cef99-2d01-7343-b2a8-05feee347e4a","019cef87-c56d-7b55-9135-c5814367ec25","","null","
                <div class=""stimulus-container"">
                    <img src=""images/schematic_sequence/supermarket_scheme/supermarket_scheme_6.png"" class=""exp-image"">
                    <div class=""question-area""></div> 
                </div>","null","","","","","","","",""
"","","","","","html-button-response","70","232727","0.0-70.0","EC645E7F80C242CBA5232FAC323E4571","019cef99-2d01-7343-b2a8-05feee347e4a","019cef87-c56d-7b55-9135-c5814367ec25","","855","
                <div class=""stimulus-container"">
                    <img src=""images/schematic_sequence/supermarket_scheme/supermarket_scheme_6.png"" class=""exp-image"">
                    <div class=""question-area"">
                        <p style=""font-size: 20px; font-weight: bold; margin: 0;"">Is there a person in this image?</p>
                    </div>
                </div>","0","main_experiment_trial","6","supermarket_scheme","schematic_sequence","","","",""
"","","","","","html-keyboard-response","71","237731","0.0-71.0","EC645E7F80C242CBA5232FAC323E4571","019cef99-2d01-7343-b2a8-05feee347e4a","019cef87-c56d-7b55-9135-c5814367ec25","","null","
                <div class=""stimulus-container"">
                    <img src=""images/schematic_sequence/supermarket_scheme/supermarket_scheme_7.png"" class=""exp-image"">
                    <div class=""question-area""></div> 
                </div>","null","","","","","","","",""
"","","","","","html-button-response","72","238494","0.0-72.0","EC645E7F80C242CBA5232FAC323E4571","019cef99-2d01-7343-b2a8-05feee347e4a","019cef87-c56d-7b55-9135-c5814367ec25","","763","
                <div class=""stimulus-container"">
                    <img src=""images/schematic_sequence/supermarket_scheme/supermarket_scheme_7.png"" class=""exp-image"">
                    <div class=""question-area"">
                        <p style=""font-size: 20px; font-weight: bold; margin: 0;"">Is there a person in this image?</p>
                    </div>
                </div>","0","main_experiment_trial","7","supermarket_scheme","schematic_sequence","","","",""
"","","","","","html-keyboard-response","73","243502","0.0-73.0","EC645E7F80C242CBA5232FAC323E4571","019cef99-2d01-7343-b2a8-05feee347e4a","019cef87-c56d-7b55-9135-c5814367ec25","","null","
                <div class=""stimulus-container"">
                    <img src=""images/schematic_sequence/supermarket_scheme/supermarket_scheme_8.png"" class=""exp-image"">
                    <div class=""question-area""></div> 
                </div>","null","","","","","","","",""
"","","","","","html-button-response","74","244111","0.0-74.0","EC645E7F80C242CBA5232FAC323E4571","019cef99-2d01-7343-b2a8-05feee347e4a","019cef87-c56d-7b55-9135-c5814367ec25","","608","
                <div class=""stimulus-container"">
                    <img src=""images/schematic_sequence/supermarket_scheme/supermarket_scheme_8.png"" class=""exp-image"">
                    <div class=""question-area"">
                        <p style=""font-size: 20px; font-weight: bold; margin: 0;"">Is there a person in this image?</p>
                    </div>
                </div>","0","main_experiment_trial","8","supermarket_scheme","schematic_sequence","","","",""
"","","","","","html-keyboard-response","75","249112","0.0-75.0","EC645E7F80C242CBA5232FAC323E4571","019cef99-2d01-7343-b2a8-05feee347e4a","019cef87-c56d-7b55-9135-c5814367ec25","","null","
                <div class=""stimulus-container"">
                    <img src=""images/schematic_sequence/supermarket_scheme/supermarket_scheme_9.png"" class=""exp-image"">
                    <div class=""question-area""></div> 
                </div>","null","","","","","","","",""
"","","","","","html-button-response","76","249894","0.0-76.0","EC645E7F80C242CBA5232FAC323E4571","019cef99-2d01-7343-b2a8-05feee347e4a","019cef87-c56d-7b55-9135-c5814367ec25","","781","
                <div class=""stimulus-container"">
                    <img src=""images/schematic_sequence/supermarket_scheme/supermarket_scheme_9.png"" class=""exp-image"">
                    <div class=""question-area"">
                        <p style=""font-size: 20px; font-weight: bold; margin: 0;"">Is there a person in this image?</p>
                    </div>
                </div>","0","main_experiment_trial","9","supermarket_scheme","schematic_sequence","","","",""
"","","","","","html-keyboard-response","77","254900","0.0-77.0","EC645E7F80C242CBA5232FAC323E4571","019cef99-2d01-7343-b2a8-05feee347e4a","019cef87-c56d-7b55-9135-c5814367ec25","","null","
                <div class=""stimulus-container"">
                    <img src=""images/schematic_sequence/supermarket_scheme/supermarket_scheme_ten.png"" class=""exp-image"">
                    <div class=""question-area""></div> 
                </div>","null","","","","","","","",""
"","","","","","html-button-response","78","255590","0.0-78.0","EC645E7F80C242CBA5232FAC323E4571","019cef99-2d01-7343-b2a8-05feee347e4a","019cef87-c56d-7b55-9135-c5814367ec25","","690","
                <div class=""stimulus-container"">
                    <img src=""images/schematic_sequence/supermarket_scheme/supermarket_scheme_ten.png"" class=""exp-image"">
                    <div class=""question-area"">
                        <p style=""font-size: 20px; font-weight: bold; margin: 0;"">Is there a person in this image?</p>
                    </div>
                </div>","1","main_experiment_trial","ten","supermarket_scheme","schematic_sequence","","","",""
"","","","","","html-keyboard-response","79","256600","0.0-79.0","EC645E7F80C242CBA5232FAC323E4571","019cef99-2d01-7343-b2a8-05feee347e4a","019cef87-c56d-7b55-9135-c5814367ec25","","null","<div style=""background-color: white; width: 100vw; height: 100vh;""></div>","null","","","","","","","",""
"","","","","","html-keyboard-response","80","261606","0.0-80.0","EC645E7F80C242CBA5232FAC323E4571","019cef99-2d01-7343-b2a8-05feee347e4a","019cef87-c56d-7b55-9135-c5814367ec25","","null","
                <div class=""stimulus-container"">
                    <img src=""images/schematic_sequence/restaurant_scheme/restaurant_scheme_1.png"" class=""exp-image"">
                    <div class=""question-area""></div> 
                </div>","null","","","","","","","",""
"","","","","","html-button-response","81","262102","0.0-81.0","EC645E7F80C242CBA5232FAC323E4571","019cef99-2d01-7343-b2a8-05feee347e4a","019cef87-c56d-7b55-9135-c5814367ec25","","496","
                <div class=""stimulus-container"">
                    <img src=""images/schematic_sequence/restaurant_scheme/restaurant_scheme_1.png"" class=""exp-image"">
                    <div class=""question-area"">
                        <p style=""font-size: 20px; font-weight: bold; margin: 0;"">Is there a person in this image?</p>
                    </div>
                </div>","0","main_experiment_trial","1","restaurant_scheme","schematic_sequence","","","",""
"","","","","","html-keyboard-response","82","267115","0.0-82.0","EC645E7F80C242CBA5232FAC323E4571","019cef99-2d01-7343-b2a8-05feee347e4a","019cef87-c56d-7b55-9135-c5814367ec25","","null","
                <div class=""stimulus-container"">
                    <img src=""images/schematic_sequence/restaurant_scheme/restaurant_scheme_2.png"" class=""exp-image"">
                    <div class=""question-area""></div> 
                </div>","null","","","","","","","",""
"","","","","","html-button-response","83","268055","0.0-83.0","EC645E7F80C242CBA5232FAC323E4571","019cef99-2d01-7343-b2a8-05feee347e4a","019cef87-c56d-7b55-9135-c5814367ec25","","939","
                <div class=""stimulus-container"">
                    <img src=""images/schematic_sequence/restaurant_scheme/restaurant_scheme_2.png"" class=""exp-image"">
                    <div class=""question-area"">
                        <p style=""font-size: 20px; font-weight: bold; margin: 0;"">Is there a person in this image?</p>
                    </div>
                </div>","1","main_experiment_trial","2","restaurant_scheme","schematic_sequence","","","",""
"","","","","","html-keyboard-response","84","273059","0.0-84.0","EC645E7F80C242CBA5232FAC323E4571","019cef99-2d01-7343-b2a8-05feee347e4a","019cef87-c56d-7b55-9135-c5814367ec25","","null","
                <div class=""stimulus-container"">
                    <img src=""images/schematic_sequence/restaurant_scheme/restaurant_scheme_3.png"" class=""exp-image"">
                    <div class=""question-area""></div> 
                </div>","null","","","","","","","",""
"","","","","","html-button-response","85","273598","0.0-85.0","EC645E7F80C242CBA5232FAC323E4571","019cef99-2d01-7343-b2a8-05feee347e4a","019cef87-c56d-7b55-9135-c5814367ec25","","539","
                <div class=""stimulus-container"">
                    <img src=""images/schematic_sequence/restaurant_scheme/restaurant_scheme_3.png"" class=""exp-image"">
                    <div class=""question-area"">
                        <p style=""font-size: 20px; font-weight: bold; margin: 0;"">Is there a person in this image?</p>
                    </div>
                </div>","1","main_experiment_trial","3","restaurant_scheme","schematic_sequence","","","",""
"","","","","","html-keyboard-response","86","278606","0.0-86.0","EC645E7F80C242CBA5232FAC323E4571","019cef99-2d01-7343-b2a8-05feee347e4a","019cef87-c56d-7b55-9135-c5814367ec25","","null","
                <div class=""stimulus-container"">
                    <img src=""images/schematic_sequence/restaurant_scheme/restaurant_scheme_4.png"" class=""exp-image"">
                    <div class=""question-area""></div> 
                </div>","null","","","","","","","",""
"","","","","","html-button-response","87","279326","0.0-87.0","EC645E7F80C242CBA5232FAC323E4571","019cef99-2d01-7343-b2a8-05feee347e4a","019cef87-c56d-7b55-9135-c5814367ec25","","720","
                <div class=""stimulus-container"">
                    <img src=""images/schematic_sequence/restaurant_scheme/restaurant_scheme_4.png"" class=""exp-image"">
                    <div class=""question-area"">
                        <p style=""font-size: 20px; font-weight: bold; margin: 0;"">Is there a person in this image?</p>
                    </div>
                </div>","0","main_experiment_trial","4","restaurant_scheme","schematic_sequence","","","",""
"","","","","","html-keyboard-response","88","284329","0.0-88.0","EC645E7F80C242CBA5232FAC323E4571","019cef99-2d01-7343-b2a8-05feee347e4a","019cef87-c56d-7b55-9135-c5814367ec25","","null","
                <div class=""stimulus-container"">
                    <img src=""images/schematic_sequence/restaurant_scheme/restaurant_scheme_5.png"" class=""exp-image"">
                    <div class=""question-area""></div> 
                </div>","null","","","","","","","",""
"","","","","","html-button-response","89","284918","0.0-89.0","EC645E7F80C242CBA5232FAC323E4571","019cef99-2d01-7343-b2a8-05feee347e4a","019cef87-c56d-7b55-9135-c5814367ec25","","588","
                <div class=""stimulus-container"">
                    <img src=""images/schematic_sequence/restaurant_scheme/restaurant_scheme_5.png"" class=""exp-image"">
                    <div class=""question-area"">
                        <p style=""font-size: 20px; font-weight: bold; margin: 0;"">Is there a person in this image?</p>
                    </div>
                </div>","0","main_experiment_trial","5","restaurant_scheme","schematic_sequence","","","",""
"","","","","","html-keyboard-response","90","289930","0.0-90.0","EC645E7F80C242CBA5232FAC323E4571","019cef99-2d01-7343-b2a8-05feee347e4a","019cef87-c56d-7b55-9135-c5814367ec25","","null","
                <div class=""stimulus-container"">
                    <img src=""images/schematic_sequence/restaurant_scheme/restaurant_scheme_6.png"" class=""exp-image"">
                    <div class=""question-area""></div> 
                </div>","null","","","","","","","",""
"","","","","","html-button-response","91","290463","0.0-91.0","EC645E7F80C242CBA5232FAC323E4571","019cef99-2d01-7343-b2a8-05feee347e4a","019cef87-c56d-7b55-9135-c5814367ec25","","531","
                <div class=""stimulus-container"">
                    <img src=""images/schematic_sequence/restaurant_scheme/restaurant_scheme_6.png"" class=""exp-image"">
                    <div class=""question-area"">
                        <p style=""font-size: 20px; font-weight: bold; margin: 0;"">Is there a person in this image?</p>
                    </div>
                </div>","1","main_experiment_trial","6","restaurant_scheme","schematic_sequence","","","",""
"","","","","","html-keyboard-response","92","295472","0.0-92.0","EC645E7F80C242CBA5232FAC323E4571","019cef99-2d01-7343-b2a8-05feee347e4a","019cef87-c56d-7b55-9135-c5814367ec25","","null","
                <div class=""stimulus-container"">
                    <img src=""images/schematic_sequence/restaurant_scheme/restaurant_scheme_7.png"" class=""exp-image"">
                    <div class=""question-area""></div> 
                </div>","null","","","","","","","",""
"","","","","","html-button-response","93","295950","0.0-93.0","EC645E7F80C242CBA5232FAC323E4571","019cef99-2d01-7343-b2a8-05feee347e4a","019cef87-c56d-7b55-9135-c5814367ec25","","478","
                <div class=""stimulus-container"">
                    <img src=""images/schematic_sequence/restaurant_scheme/restaurant_scheme_7.png"" class=""exp-image"">
                    <div class=""question-area"">
                        <p style=""font-size: 20px; font-weight: bold; margin: 0;"">Is there a person in this image?</p>
                    </div>
                </div>","1","main_experiment_trial","7","restaurant_scheme","schematic_sequence","","","",""
"","","","","","html-keyboard-response","94","300964","0.0-94.0","EC645E7F80C242CBA5232FAC323E4571","019cef99-2d01-7343-b2a8-05feee347e4a","019cef87-c56d-7b55-9135-c5814367ec25","","null","
                <div class=""stimulus-container"">
                    <img src=""images/schematic_sequence/restaurant_scheme/restaurant_scheme_8.png"" class=""exp-image"">
                    <div class=""question-area""></div> 
                </div>","null","","","","","","","",""
"","","","","","html-button-response","95","301943","0.0-95.0","EC645E7F80C242CBA5232FAC323E4571","019cef99-2d01-7343-b2a8-05feee347e4a","019cef87-c56d-7b55-9135-c5814367ec25","","978","
                <div class=""stimulus-container"">
                    <img src=""images/schematic_sequence/restaurant_scheme/restaurant_scheme_8.png"" class=""exp-image"">
                    <div class=""question-area"">
                        <p style=""font-size: 20px; font-weight: bold; margin: 0;"">Is there a person in this image?</p>
                    </div>
                </div>","0","main_experiment_trial","8","restaurant_scheme","schematic_sequence","","","",""
"","","","","","html-keyboard-response","96","306944","0.0-96.0","EC645E7F80C242CBA5232FAC323E4571","019cef99-2d01-7343-b2a8-05feee347e4a","019cef87-c56d-7b55-9135-c5814367ec25","","null","
                <div class=""stimulus-container"">
                    <img src=""images/schematic_sequence/restaurant_scheme/restaurant_scheme_9.png"" class=""exp-image"">
                    <div class=""question-area""></div> 
                </div>","null","","","","","","","",""
"","","","","","html-button-response","97","307502","0.0-97.0","EC645E7F80C242CBA5232FAC323E4571","019cef99-2d01-7343-b2a8-05feee347e4a","019cef87-c56d-7b55-9135-c5814367ec25","","558","
                <div class=""stimulus-container"">
                    <img src=""images/schematic_sequence/restaurant_scheme/restaurant_scheme_9.png"" class=""exp-image"">
                    <div class=""question-area"">
                        <p style=""font-size: 20px; font-weight: bold; margin: 0;"">Is there a person in this image?</p>
                    </div>
                </div>","0","main_experiment_trial","9","restaurant_scheme","schematic_sequence","","","",""
"","","","","","html-keyboard-response","98","312504","0.0-98.0","EC645E7F80C242CBA5232FAC323E4571","019cef99-2d01-7343-b2a8-05feee347e4a","019cef87-c56d-7b55-9135-c5814367ec25","","null","
                <div class=""stimulus-container"">
                    <img src=""images/schematic_sequence/restaurant_scheme/restaurant_scheme_ten.png"" class=""exp-image"">
                    <div class=""question-area""></div> 
                </div>","null","","","","","","","",""
"","","","","","html-button-response","99","313063","0.0-99.0","EC645E7F80C242CBA5232FAC323E4571","019cef99-2d01-7343-b2a8-05feee347e4a","019cef87-c56d-7b55-9135-c5814367ec25","","558","
                <div class=""stimulus-container"">
                    <img src=""images/schematic_sequence/restaurant_scheme/restaurant_scheme_ten.png"" class=""exp-image"">
                    <div class=""question-area"">
                        <p style=""font-size: 20px; font-weight: bold; margin: 0;"">Is there a person in this image?</p>
                    </div>
                </div>","0","main_experiment_trial","ten","restaurant_scheme","schematic_sequence","","","",""
"","","","","","html-keyboard-response","100","314065","0.0-100.0","EC645E7F80C242CBA5232FAC323E4571","019cef99-2d01-7343-b2a8-05feee347e4a","019cef87-c56d-7b55-9135-c5814367ec25","","null","<div style=""background-color: white; width: 100vw; height: 100vh;""></div>","null","","","","","","","",""
"","","","","","html-keyboard-response","101","319067","0.0-101.0","EC645E7F80C242CBA5232FAC323E4571","019cef99-2d01-7343-b2a8-05feee347e4a","019cef87-c56d-7b55-9135-c5814367ec25","","null","
                <div class=""stimulus-container"">
                    <img src=""images/causal_sequence/dog_causal/dog_causal_1.png"" class=""exp-image"">
                    <div class=""question-area""></div> 
                </div>","null","","","","","","","",""
"","","","","","html-button-response","102","319910","0.0-102.0","EC645E7F80C242CBA5232FAC323E4571","019cef99-2d01-7343-b2a8-05feee347e4a","019cef87-c56d-7b55-9135-c5814367ec25","","843","
                <div class=""stimulus-container"">
                    <img src=""images/causal_sequence/dog_causal/dog_causal_1.png"" class=""exp-image"">
                    <div class=""question-area"">
                        <p style=""font-size: 20px; font-weight: bold; margin: 0;"">Is there a person in this image?</p>
                    </div>
                </div>","0","main_experiment_trial","1","dog_causal","causal_sequence","","","",""
"","","","","","html-keyboard-response","103","324912","0.0-103.0","EC645E7F80C242CBA5232FAC323E4571","019cef99-2d01-7343-b2a8-05feee347e4a","019cef87-c56d-7b55-9135-c5814367ec25","","null","
                <div class=""stimulus-container"">
                    <img src=""images/causal_sequence/dog_causal/dog_causal_2.png"" class=""exp-image"">
                    <div class=""question-area""></div> 
                </div>","null","","","","","","","",""
"","","","","","html-button-response","104","325383","0.0-104.0","EC645E7F80C242CBA5232FAC323E4571","019cef99-2d01-7343-b2a8-05feee347e4a","019cef87-c56d-7b55-9135-c5814367ec25","","469","
                <div class=""stimulus-container"">
                    <img src=""images/causal_sequence/dog_causal/dog_causal_2.png"" class=""exp-image"">
                    <div class=""question-area"">
                        <p style=""font-size: 20px; font-weight: bold; margin: 0;"">Is there a person in this image?</p>
                    </div>
                </div>","0","main_experiment_trial","2","dog_causal","causal_sequence","","","",""
"","","","","","html-keyboard-response","105","330388","0.0-105.0","EC645E7F80C242CBA5232FAC323E4571","019cef99-2d01-7343-b2a8-05feee347e4a","019cef87-c56d-7b55-9135-c5814367ec25","","null","
                <div class=""stimulus-container"">
                    <img src=""images/causal_sequence/dog_causal/dog_causal_3.png"" class=""exp-image"">
                    <div class=""question-area""></div> 
                </div>","null","","","","","","","",""
"","","","","","html-button-response","106","331431","0.0-106.0","EC645E7F80C242CBA5232FAC323E4571","019cef99-2d01-7343-b2a8-05feee347e4a","019cef87-c56d-7b55-9135-c5814367ec25","","1042","
                <div class=""stimulus-container"">
                    <img src=""images/causal_sequence/dog_causal/dog_causal_3.png"" class=""exp-image"">
                    <div class=""question-area"">
                        <p style=""font-size: 20px; font-weight: bold; margin: 0;"">Is there a person in this image?</p>
                    </div>
                </div>","0","main_experiment_trial","3","dog_causal","causal_sequence","","","",""
"","","","","","html-keyboard-response","107","336433","0.0-107.0","EC645E7F80C242CBA5232FAC323E4571","019cef99-2d01-7343-b2a8-05feee347e4a","019cef87-c56d-7b55-9135-c5814367ec25","","null","
                <div class=""stimulus-container"">
                    <img src=""images/causal_sequence/dog_causal/dog_causal_4.png"" class=""exp-image"">
                    <div class=""question-area""></div> 
                </div>","null","","","","","","","",""
"","","","","","html-button-response","108","336895","0.0-108.0","EC645E7F80C242CBA5232FAC323E4571","019cef99-2d01-7343-b2a8-05feee347e4a","019cef87-c56d-7b55-9135-c5814367ec25","","461","
                <div class=""stimulus-container"">
                    <img src=""images/causal_sequence/dog_causal/dog_causal_4.png"" class=""exp-image"">
                    <div class=""question-area"">
                        <p style=""font-size: 20px; font-weight: bold; margin: 0;"">Is there a person in this image?</p>
                    </div>
                </div>","0","main_experiment_trial","4","dog_causal","causal_sequence","","","",""
"","","","","","html-keyboard-response","109","341904","0.0-109.0","EC645E7F80C242CBA5232FAC323E4571","019cef99-2d01-7343-b2a8-05feee347e4a","019cef87-c56d-7b55-9135-c5814367ec25","","null","
                <div class=""stimulus-container"">
                    <img src=""images/causal_sequence/dog_causal/dog_causal_5.png"" class=""exp-image"">
                    <div class=""question-area""></div> 
                </div>","null","","","","","","","",""
"","","","","","html-button-response","110","342727","0.0-110.0","EC645E7F80C242CBA5232FAC323E4571","019cef99-2d01-7343-b2a8-05feee347e4a","019cef87-c56d-7b55-9135-c5814367ec25","","822","
                <div class=""stimulus-container"">
                    <img src=""images/causal_sequence/dog_causal/dog_causal_5.png"" class=""exp-image"">
                    <div class=""question-area"">
                        <p style=""font-size: 20px; font-weight: bold; margin: 0;"">Is there a person in this image?</p>
                    </div>
                </div>","0","main_experiment_trial","5","dog_causal","causal_sequence","","","",""
"","","","","","html-keyboard-response","111","347735","0.0-111.0","EC645E7F80C242CBA5232FAC323E4571","019cef99-2d01-7343-b2a8-05feee347e4a","019cef87-c56d-7b55-9135-c5814367ec25","","null","
                <div class=""stimulus-container"">
                    <img src=""images/causal_sequence/dog_causal/dog_causal_6.png"" class=""exp-image"">
                    <div class=""question-area""></div> 
                </div>","null","","","","","","","",""
"","","","","","html-button-response","112","348694","0.0-112.0","EC645E7F80C242CBA5232FAC323E4571","019cef99-2d01-7343-b2a8-05feee347e4a","019cef87-c56d-7b55-9135-c5814367ec25","","958","
                <div class=""stimulus-container"">
                    <img src=""images/causal_sequence/dog_causal/dog_causal_6.png"" class=""exp-image"">
                    <div class=""question-area"">
                        <p style=""font-size: 20px; font-weight: bold; margin: 0;"">Is there a person in this image?</p>
                    </div>
                </div>","0","main_experiment_trial","6","dog_causal","causal_sequence","","","",""
"","","","","","html-keyboard-response","113","353696","0.0-113.0","EC645E7F80C242CBA5232FAC323E4571","019cef99-2d01-7343-b2a8-05feee347e4a","019cef87-c56d-7b55-9135-c5814367ec25","","null","
                <div class=""stimulus-container"">
                    <img src=""images/causal_sequence/dog_causal/dog_causal_7.png"" class=""exp-image"">
                    <div class=""question-area""></div> 
                </div>","null","","","","","","","",""
"","","","","","html-button-response","114","354246","0.0-114.0","EC645E7F80C242CBA5232FAC323E4571","019cef99-2d01-7343-b2a8-05feee347e4a","019cef87-c56d-7b55-9135-c5814367ec25","","550","
                <div class=""stimulus-container"">
                    <img src=""images/causal_sequence/dog_causal/dog_causal_7.png"" class=""exp-image"">
                    <div class=""question-area"">
                        <p style=""font-size: 20px; font-weight: bold; margin: 0;"">Is there a person in this image?</p>
                    </div>
                </div>","0","main_experiment_trial","7","dog_causal","causal_sequence","","","",""
"","","","","","html-keyboard-response","115","359250","0.0-115.0","EC645E7F80C242CBA5232FAC323E4571","019cef99-2d01-7343-b2a8-05feee347e4a","019cef87-c56d-7b55-9135-c5814367ec25","","null","
                <div class=""stimulus-container"">
                    <img src=""images/causal_sequence/dog_causal/dog_causal_8.png"" class=""exp-image"">
                    <div class=""question-area""></div> 
                </div>","null","","","","","","","",""
"","","","","","html-button-response","116","359831","0.0-116.0","EC645E7F80C242CBA5232FAC323E4571","019cef99-2d01-7343-b2a8-05feee347e4a","019cef87-c56d-7b55-9135-c5814367ec25","","580","
                <div class=""stimulus-container"">
                    <img src=""images/causal_sequence/dog_causal/dog_causal_8.png"" class=""exp-image"">
                    <div class=""question-area"">
                        <p style=""font-size: 20px; font-weight: bold; margin: 0;"">Is there a person in this image?</p>
                    </div>
                </div>","0","main_experiment_trial","8","dog_causal","causal_sequence","","","",""
"","","","","","html-keyboard-response","117","364831","0.0-117.0","EC645E7F80C242CBA5232FAC323E4571","019cef99-2d01-7343-b2a8-05feee347e4a","019cef87-c56d-7b55-9135-c5814367ec25","","null","
                <div class=""stimulus-container"">
                    <img src=""images/causal_sequence/dog_causal/dog_causal_9.png"" class=""exp-image"">
                    <div class=""question-area""></div> 
                </div>","null","","","","","","","",""
"","","","","","html-button-response","118","365294","0.0-118.0","EC645E7F80C242CBA5232FAC323E4571","019cef99-2d01-7343-b2a8-05feee347e4a","019cef87-c56d-7b55-9135-c5814367ec25","","462","
                <div class=""stimulus-container"">
                    <img src=""images/causal_sequence/dog_causal/dog_causal_9.png"" class=""exp-image"">
                    <div class=""question-area"">
                        <p style=""font-size: 20px; font-weight: bold; margin: 0;"">Is there a person in this image?</p>
                    </div>
                </div>","0","main_experiment_trial","9","dog_causal","causal_sequence","","","",""
"","","","","","html-keyboard-response","119","370296","0.0-119.0","EC645E7F80C242CBA5232FAC323E4571","019cef99-2d01-7343-b2a8-05feee347e4a","019cef87-c56d-7b55-9135-c5814367ec25","","null","
                <div class=""stimulus-container"">
                    <img src=""images/causal_sequence/dog_causal/dog_causal_ten.png"" class=""exp-image"">
                    <div class=""question-area""></div> 
                </div>","null","","","","","","","",""
"","","","","","html-button-response","120","370831","0.0-120.0","EC645E7F80C242CBA5232FAC323E4571","019cef99-2d01-7343-b2a8-05feee347e4a","019cef87-c56d-7b55-9135-c5814367ec25","","534","
                <div class=""stimulus-container"">
                    <img src=""images/causal_sequence/dog_causal/dog_causal_ten.png"" class=""exp-image"">
                    <div class=""question-area"">
                        <p style=""font-size: 20px; font-weight: bold; margin: 0;"">Is there a person in this image?</p>
                    </div>
                </div>","0","main_experiment_trial","ten","dog_causal","causal_sequence","","","",""
"","","","","","html-keyboard-response","121","371838","0.0-121.0","EC645E7F80C242CBA5232FAC323E4571","019cef99-2d01-7343-b2a8-05feee347e4a","019cef87-c56d-7b55-9135-c5814367ec25","","null","<div style=""background-color: white; width: 100vw; height: 100vh;""></div>","null","","","","","","","",""
"","","","","","html-keyboard-response","122","376841","0.0-122.0","EC645E7F80C242CBA5232FAC323E4571","019cef99-2d01-7343-b2a8-05feee347e4a","019cef87-c56d-7b55-9135-c5814367ec25","","null","
                <div class=""stimulus-container"">
                    <img src=""images/causal_sequence/package_causal/package_causal_1.png"" class=""exp-image"">
                    <div class=""question-area""></div> 
                </div>","null","","","","","","","",""
"","","","","","html-button-response","123","377375","0.0-123.0","EC645E7F80C242CBA5232FAC323E4571","019cef99-2d01-7343-b2a8-05feee347e4a","019cef87-c56d-7b55-9135-c5814367ec25","","532","
                <div class=""stimulus-container"">
                    <img src=""images/causal_sequence/package_causal/package_causal_1.png"" class=""exp-image"">
                    <div class=""question-area"">
                        <p style=""font-size: 20px; font-weight: bold; margin: 0;"">Is there a person in this image?</p>
                    </div>
                </div>","0","main_experiment_trial","1","package_causal","causal_sequence","","","",""
"","","","","","html-keyboard-response","124","382375","0.0-124.0","EC645E7F80C242CBA5232FAC323E4571","019cef99-2d01-7343-b2a8-05feee347e4a","019cef87-c56d-7b55-9135-c5814367ec25","","null","
                <div class=""stimulus-container"">
                    <img src=""images/causal_sequence/package_causal/package_causal_2.png"" class=""exp-image"">
                    <div class=""question-area""></div> 
                </div>","null","","","","","","","",""
"","","","","","html-button-response","125","382983","0.0-125.0","EC645E7F80C242CBA5232FAC323E4571","019cef99-2d01-7343-b2a8-05feee347e4a","019cef87-c56d-7b55-9135-c5814367ec25","","607","
                <div class=""stimulus-container"">
                    <img src=""images/causal_sequence/package_causal/package_causal_2.png"" class=""exp-image"">
                    <div class=""question-area"">
                        <p style=""font-size: 20px; font-weight: bold; margin: 0;"">Is there a person in this image?</p>
                    </div>
                </div>","0","main_experiment_trial","2","package_causal","causal_sequence","","","",""
"","","","","","html-keyboard-response","126","387996","0.0-126.0","EC645E7F80C242CBA5232FAC323E4571","019cef99-2d01-7343-b2a8-05feee347e4a","019cef87-c56d-7b55-9135-c5814367ec25","","null","
                <div class=""stimulus-container"">
                    <img src=""images/causal_sequence/package_causal/package_causal_3.png"" class=""exp-image"">
                    <div class=""question-area""></div> 
                </div>","null","","","","","","","",""
"","","","","","html-button-response","127","388622","0.0-127.0","EC645E7F80C242CBA5232FAC323E4571","019cef99-2d01-7343-b2a8-05feee347e4a","019cef87-c56d-7b55-9135-c5814367ec25","","625","
                <div class=""stimulus-container"">
                    <img src=""images/causal_sequence/package_causal/package_causal_3.png"" class=""exp-image"">
                    <div class=""question-area"">
                        <p style=""font-size: 20px; font-weight: bold; margin: 0;"">Is there a person in this image?</p>
                    </div>
                </div>","0","main_experiment_trial","3","package_causal","causal_sequence","","","",""
"","","","","","html-keyboard-response","128","393638","0.0-128.0","EC645E7F80C242CBA5232FAC323E4571","019cef99-2d01-7343-b2a8-05feee347e4a","019cef87-c56d-7b55-9135-c5814367ec25","","null","
                <div class=""stimulus-container"">
                    <img src=""images/causal_sequence/package_causal/package_causal_4.png"" class=""exp-image"">
                    <div class=""question-area""></div> 
                </div>","null","","","","","","","",""
"","","","","","html-button-response","129","394310","0.0-129.0","EC645E7F80C242CBA5232FAC323E4571","019cef99-2d01-7343-b2a8-05feee347e4a","019cef87-c56d-7b55-9135-c5814367ec25","","671","
                <div class=""stimulus-container"">
                    <img src=""images/causal_sequence/package_causal/package_causal_4.png"" class=""exp-image"">
                    <div class=""question-area"">
                        <p style=""font-size: 20px; font-weight: bold; margin: 0;"">Is there a person in this image?</p>
                    </div>
                </div>","1","main_experiment_trial","4","package_causal","causal_sequence","","","",""
"","","","","","html-keyboard-response","130","399325","0.0-130.0","EC645E7F80C242CBA5232FAC323E4571","019cef99-2d01-7343-b2a8-05feee347e4a","019cef87-c56d-7b55-9135-c5814367ec25","","null","
                <div class=""stimulus-container"">
                    <img src=""images/causal_sequence/package_causal/package_causal_5.png"" class=""exp-image"">
                    <div class=""question-area""></div> 
                </div>","null","","","","","","","",""
"","","","","","html-button-response","131","400118","0.0-131.0","EC645E7F80C242CBA5232FAC323E4571","019cef99-2d01-7343-b2a8-05feee347e4a","019cef87-c56d-7b55-9135-c5814367ec25","","793","
                <div class=""stimulus-container"">
                    <img src=""images/causal_sequence/package_causal/package_causal_5.png"" class=""exp-image"">
                    <div class=""question-area"">
                        <p style=""font-size: 20px; font-weight: bold; margin: 0;"">Is there a person in this image?</p>
                    </div>
                </div>","0","main_experiment_trial","5","package_causal","causal_sequence","","","",""
"","","","","","html-keyboard-response","132","405120","0.0-132.0","EC645E7F80C242CBA5232FAC323E4571","019cef99-2d01-7343-b2a8-05feee347e4a","019cef87-c56d-7b55-9135-c5814367ec25","","null","
                <div class=""stimulus-container"">
                    <img src=""images/causal_sequence/package_causal/package_causal_6.png"" class=""exp-image"">
                    <div class=""question-area""></div> 
                </div>","null","","","","","","","",""
"","","","","","html-button-response","133","405654","0.0-133.0","EC645E7F80C242CBA5232FAC323E4571","019cef99-2d01-7343-b2a8-05feee347e4a","019cef87-c56d-7b55-9135-c5814367ec25","","534","
                <div class=""stimulus-container"">
                    <img src=""images/causal_sequence/package_causal/package_causal_6.png"" class=""exp-image"">
                    <div class=""question-area"">
                        <p style=""font-size: 20px; font-weight: bold; margin: 0;"">Is there a person in this image?</p>
                    </div>
                </div>","0","main_experiment_trial","6","package_causal","causal_sequence","","","",""
"","","","","","html-keyboard-response","134","410666","0.0-134.0","EC645E7F80C242CBA5232FAC323E4571","019cef99-2d01-7343-b2a8-05feee347e4a","019cef87-c56d-7b55-9135-c5814367ec25","","null","
                <div class=""stimulus-container"">
                    <img src=""images/causal_sequence/package_causal/package_causal_7.png"" class=""exp-image"">
                    <div class=""question-area""></div> 
                </div>","null","","","","","","","",""
"","","","","","html-button-response","135","411334","0.0-135.0","EC645E7F80C242CBA5232FAC323E4571","019cef99-2d01-7343-b2a8-05feee347e4a","019cef87-c56d-7b55-9135-c5814367ec25","","667","
                <div class=""stimulus-container"">
                    <img src=""images/causal_sequence/package_causal/package_causal_7.png"" class=""exp-image"">
                    <div class=""question-area"">
                        <p style=""font-size: 20px; font-weight: bold; margin: 0;"">Is there a person in this image?</p>
                    </div>
                </div>","0","main_experiment_trial","7","package_causal","causal_sequence","","","",""
"","","","","","html-keyboard-response","136","416349","0.0-136.0","EC645E7F80C242CBA5232FAC323E4571","019cef99-2d01-7343-b2a8-05feee347e4a","019cef87-c56d-7b55-9135-c5814367ec25","","null","
                <div class=""stimulus-container"">
                    <img src=""images/causal_sequence/package_causal/package_causal_8.png"" class=""exp-image"">
                    <div class=""question-area""></div> 
                </div>","null","","","","","","","",""
"","","","","","html-button-response","137","416982","0.0-137.0","EC645E7F80C242CBA5232FAC323E4571","019cef99-2d01-7343-b2a8-05feee347e4a","019cef87-c56d-7b55-9135-c5814367ec25","","633","
                <div class=""stimulus-container"">
                    <img src=""images/causal_sequence/package_causal/package_causal_8.png"" class=""exp-image"">
                    <div class=""question-area"">
                        <p style=""font-size: 20px; font-weight: bold; margin: 0;"">Is there a person in this image?</p>
                    </div>
                </div>","0","main_experiment_trial","8","package_causal","causal_sequence","","","",""
"","","","","","html-keyboard-response","138","421987","0.0-138.0","EC645E7F80C242CBA5232FAC323E4571","019cef99-2d01-7343-b2a8-05feee347e4a","019cef87-c56d-7b55-9135-c5814367ec25","","null","
                <div class=""stimulus-container"">
                    <img src=""images/causal_sequence/package_causal/package_causal_9.png"" class=""exp-image"">
                    <div class=""question-area""></div> 
                </div>","null","","","","","","","",""
"","","","","","html-button-response","139","422438","0.0-139.0","EC645E7F80C242CBA5232FAC323E4571","019cef99-2d01-7343-b2a8-05feee347e4a","019cef87-c56d-7b55-9135-c5814367ec25","","451","
                <div class=""stimulus-container"">
                    <img src=""images/causal_sequence/package_causal/package_causal_9.png"" class=""exp-image"">
                    <div class=""question-area"">
                        <p style=""font-size: 20px; font-weight: bold; margin: 0;"">Is there a person in this image?</p>
                    </div>
                </div>","0","main_experiment_trial","9","package_causal","causal_sequence","","","",""
"","","","","","html-keyboard-response","140","427453","0.0-140.0","EC645E7F80C242CBA5232FAC323E4571","019cef99-2d01-7343-b2a8-05feee347e4a","019cef87-c56d-7b55-9135-c5814367ec25","","null","
                <div class=""stimulus-container"">
                    <img src=""images/causal_sequence/package_causal/package_causal_ten.png"" class=""exp-image"">
                    <div class=""question-area""></div> 
                </div>","null","","","","","","","",""
"","","","","","html-button-response","141","427902","0.0-141.0","EC645E7F80C242CBA5232FAC323E4571","019cef99-2d01-7343-b2a8-05feee347e4a","019cef87-c56d-7b55-9135-c5814367ec25","","449","
                <div class=""stimulus-container"">
                    <img src=""images/causal_sequence/package_causal/package_causal_ten.png"" class=""exp-image"">
                    <div class=""question-area"">
                        <p style=""font-size: 20px; font-weight: bold; margin: 0;"">Is there a person in this image?</p>
                    </div>
                </div>","0","main_experiment_trial","ten","package_causal","causal_sequence","","","",""
"","","","","","html-keyboard-response","142","428916","0.0-142.0","EC645E7F80C242CBA5232FAC323E4571","019cef99-2d01-7343-b2a8-05feee347e4a","019cef87-c56d-7b55-9135-c5814367ec25","","null","<div style=""background-color: white; width: 100vw; height: 100vh;""></div>","null","","","","","","","",""
"","","","","","html-keyboard-response","143","433923","0.0-143.0","EC645E7F80C242CBA5232FAC323E4571","019cef99-2d01-7343-b2a8-05feee347e4a","019cef87-c56d-7b55-9135-c5814367ec25","","null","
                <div class=""stimulus-container"">
                    <img src=""images/causal_sequence/the_performance_causal/the_performance_causal_1.png"" class=""exp-image"">
                    <div class=""question-area""></div> 
                </div>","null","","","","","","","",""
"","","","","","html-button-response","144","434686","0.0-144.0","EC645E7F80C242CBA5232FAC323E4571","019cef99-2d01-7343-b2a8-05feee347e4a","019cef87-c56d-7b55-9135-c5814367ec25","","762","
                <div class=""stimulus-container"">
                    <img src=""images/causal_sequence/the_performance_causal/the_performance_causal_1.png"" class=""exp-image"">
                    <div class=""question-area"">
                        <p style=""font-size: 20px; font-weight: bold; margin: 0;"">Is there a person in this image?</p>
                    </div>
                </div>","0","main_experiment_trial","1","the_performance_causal","causal_sequence","","","",""
"","","","","","html-keyboard-response","145","439697","0.0-145.0","EC645E7F80C242CBA5232FAC323E4571","019cef99-2d01-7343-b2a8-05feee347e4a","019cef87-c56d-7b55-9135-c5814367ec25","","null","
                <div class=""stimulus-container"">
                    <img src=""images/causal_sequence/the_performance_causal/the_performance_causal_2.png"" class=""exp-image"">
                    <div class=""question-area""></div> 
                </div>","null","","","","","","","",""
"","","","","","html-button-response","146","440263","0.0-146.0","EC645E7F80C242CBA5232FAC323E4571","019cef99-2d01-7343-b2a8-05feee347e4a","019cef87-c56d-7b55-9135-c5814367ec25","","565","
                <div class=""stimulus-container"">
                    <img src=""images/causal_sequence/the_performance_causal/the_performance_causal_2.png"" class=""exp-image"">
                    <div class=""question-area"">
                        <p style=""font-size: 20px; font-weight: bold; margin: 0;"">Is there a person in this image?</p>
                    </div>
                </div>","0","main_experiment_trial","2","the_performance_causal","causal_sequence","","","",""
"","","","","","html-keyboard-response","147","445272","0.0-147.0","EC645E7F80C242CBA5232FAC323E4571","019cef99-2d01-7343-b2a8-05feee347e4a","019cef87-c56d-7b55-9135-c5814367ec25","","null","
                <div class=""stimulus-container"">
                    <img src=""images/causal_sequence/the_performance_causal/the_performance_causal_3.png"" class=""exp-image"">
                    <div class=""question-area""></div> 
                </div>","null","","","","","","","",""
"","","","","","html-button-response","148","446054","0.0-148.0","EC645E7F80C242CBA5232FAC323E4571","019cef99-2d01-7343-b2a8-05feee347e4a","019cef87-c56d-7b55-9135-c5814367ec25","","782","
                <div class=""stimulus-container"">
                    <img src=""images/causal_sequence/the_performance_causal/the_performance_causal_3.png"" class=""exp-image"">
                    <div class=""question-area"">
                        <p style=""font-size: 20px; font-weight: bold; margin: 0;"">Is there a person in this image?</p>
                    </div>
                </div>","0","main_experiment_trial","3","the_performance_causal","causal_sequence","","","",""
"","","","","","html-keyboard-response","149","451062","0.0-149.0","EC645E7F80C242CBA5232FAC323E4571","019cef99-2d01-7343-b2a8-05feee347e4a","019cef87-c56d-7b55-9135-c5814367ec25","","null","
                <div class=""stimulus-container"">
                    <img src=""images/causal_sequence/the_performance_causal/the_performance_causal_4.png"" class=""exp-image"">
                    <div class=""question-area""></div> 
                </div>","null","","","","","","","",""
"","","","","","html-button-response","150","452006","0.0-150.0","EC645E7F80C242CBA5232FAC323E4571","019cef99-2d01-7343-b2a8-05feee347e4a","019cef87-c56d-7b55-9135-c5814367ec25","","943","
                <div class=""stimulus-container"">
                    <img src=""images/causal_sequence/the_performance_causal/the_performance_causal_4.png"" class=""exp-image"">
                    <div class=""question-area"">
                        <p style=""font-size: 20px; font-weight: bold; margin: 0;"">Is there a person in this image?</p>
                    </div>
                </div>","0","main_experiment_trial","4","the_performance_causal","causal_sequence","","","",""
"","","","","","html-keyboard-response","151","457008","0.0-151.0","EC645E7F80C242CBA5232FAC323E4571","019cef99-2d01-7343-b2a8-05feee347e4a","019cef87-c56d-7b55-9135-c5814367ec25","","null","
                <div class=""stimulus-container"">
                    <img src=""images/causal_sequence/the_performance_causal/the_performance_causal_5.png"" class=""exp-image"">
                    <div class=""question-area""></div> 
                </div>","null","","","","","","","",""
"","","","","","html-button-response","152","457822","0.0-152.0","EC645E7F80C242CBA5232FAC323E4571","019cef99-2d01-7343-b2a8-05feee347e4a","019cef87-c56d-7b55-9135-c5814367ec25","","814","
                <div class=""stimulus-container"">
                    <img src=""images/causal_sequence/the_performance_causal/the_performance_causal_5.png"" class=""exp-image"">
                    <div class=""question-area"">
                        <p style=""font-size: 20px; font-weight: bold; margin: 0;"">Is there a person in this image?</p>
                    </div>
                </div>","0","main_experiment_trial","5","the_performance_causal","causal_sequence","","","",""
"","","","","","html-keyboard-response","153","462823","0.0-153.0","EC645E7F80C242CBA5232FAC323E4571","019cef99-2d01-7343-b2a8-05feee347e4a","019cef87-c56d-7b55-9135-c5814367ec25","","null","
                <div class=""stimulus-container"">
                    <img src=""images/causal_sequence/the_performance_causal/the_performance_causal_6.png"" class=""exp-image"">
                    <div class=""question-area""></div> 
                </div>","null","","","","","","","",""
"","","","","","html-button-response","154","463502","0.0-154.0","EC645E7F80C242CBA5232FAC323E4571","019cef99-2d01-7343-b2a8-05feee347e4a","019cef87-c56d-7b55-9135-c5814367ec25","","678","
                <div class=""stimulus-container"">
                    <img src=""images/causal_sequence/the_performance_causal/the_performance_causal_6.png"" class=""exp-image"">
                    <div class=""question-area"">
                        <p style=""font-size: 20px; font-weight: bold; margin: 0;"">Is there a person in this image?</p>
                    </div>
                </div>","0","main_experiment_trial","6","the_performance_causal","causal_sequence","","","",""
"","","","","","html-keyboard-response","155","468503","0.0-155.0","EC645E7F80C242CBA5232FAC323E4571","019cef99-2d01-7343-b2a8-05feee347e4a","019cef87-c56d-7b55-9135-c5814367ec25","","null","
                <div class=""stimulus-container"">
                    <img src=""images/causal_sequence/the_performance_causal/the_performance_causal_7.png"" class=""exp-image"">
                    <div class=""question-area""></div> 
                </div>","null","","","","","","","",""
"","","","","","html-button-response","156","469078","0.0-156.0","EC645E7F80C242CBA5232FAC323E4571","019cef99-2d01-7343-b2a8-05feee347e4a","019cef87-c56d-7b55-9135-c5814367ec25","","574","
                <div class=""stimulus-container"">
                    <img src=""images/causal_sequence/the_performance_causal/the_performance_causal_7.png"" class=""exp-image"">
                    <div class=""question-area"">
                        <p style=""font-size: 20px; font-weight: bold; margin: 0;"">Is there a person in this image?</p>
                    </div>
                </div>","0","main_experiment_trial","7","the_performance_causal","causal_sequence","","","",""
"","","","","","html-keyboard-response","157","474086","0.0-157.0","EC645E7F80C242CBA5232FAC323E4571","019cef99-2d01-7343-b2a8-05feee347e4a","019cef87-c56d-7b55-9135-c5814367ec25","","null","
                <div class=""stimulus-container"">
                    <img src=""images/causal_sequence/the_performance_causal/the_performance_causal_8.png"" class=""exp-image"">
                    <div class=""question-area""></div> 
                </div>","null","","","","","","","",""
"","","","","","html-button-response","158","474998","0.0-158.0","EC645E7F80C242CBA5232FAC323E4571","019cef99-2d01-7343-b2a8-05feee347e4a","019cef87-c56d-7b55-9135-c5814367ec25","","911","
                <div class=""stimulus-container"">
                    <img src=""images/causal_sequence/the_performance_causal/the_performance_causal_8.png"" class=""exp-image"">
                    <div class=""question-area"">
                        <p style=""font-size: 20px; font-weight: bold; margin: 0;"">Is there a person in this image?</p>
                    </div>
                </div>","0","main_experiment_trial","8","the_performance_causal","causal_sequence","","","",""
"","","","","","html-keyboard-response","159","480011","0.0-159.0","EC645E7F80C242CBA5232FAC323E4571","019cef99-2d01-7343-b2a8-05feee347e4a","019cef87-c56d-7b55-9135-c5814367ec25","","null","
                <div class=""stimulus-container"">
                    <img src=""images/causal_sequence/the_performance_causal/the_performance_causal_9.png"" class=""exp-image"">
                    <div class=""question-area""></div> 
                </div>","null","","","","","","","",""
"","","","","","html-button-response","160","480918","0.0-160.0","EC645E7F80C242CBA5232FAC323E4571","019cef99-2d01-7343-b2a8-05feee347e4a","019cef87-c56d-7b55-9135-c5814367ec25","","906","
                <div class=""stimulus-container"">
                    <img src=""images/causal_sequence/the_performance_causal/the_performance_causal_9.png"" class=""exp-image"">
                    <div class=""question-area"">
                        <p style=""font-size: 20px; font-weight: bold; margin: 0;"">Is there a person in this image?</p>
                    </div>
                </div>","0","main_experiment_trial","9","the_performance_causal","causal_sequence","","","",""
"","","","","","html-keyboard-response","161","485925","0.0-161.0","EC645E7F80C242CBA5232FAC323E4571","019cef99-2d01-7343-b2a8-05feee347e4a","019cef87-c56d-7b55-9135-c5814367ec25","","null","
                <div class=""stimulus-container"">
                    <img src=""images/causal_sequence/the_performance_causal/the_performance_causal_ten.png"" class=""exp-image"">
                    <div class=""question-area""></div> 
                </div>","null","","","","","","","",""
"","","","","","html-button-response","162","486766","0.0-162.0","EC645E7F80C242CBA5232FAC323E4571","019cef99-2d01-7343-b2a8-05feee347e4a","019cef87-c56d-7b55-9135-c5814367ec25","","841","
                <div class=""stimulus-container"">
                    <img src=""images/causal_sequence/the_performance_causal/the_performance_causal_ten.png"" class=""exp-image"">
                    <div class=""question-area"">
                        <p style=""font-size: 20px; font-weight: bold; margin: 0;"">Is there a person in this image?</p>
                    </div>
                </div>","0","main_experiment_trial","ten","the_performance_causal","causal_sequence","","","",""
"","","","","","html-keyboard-response","163","487775","0.0-163.0","EC645E7F80C242CBA5232FAC323E4571","019cef99-2d01-7343-b2a8-05feee347e4a","019cef87-c56d-7b55-9135-c5814367ec25","","null","<div style=""background-color: white; width: 100vw; height: 100vh;""></div>","null","","","","","","","",""
"","","","","","html-keyboard-response","164","492776","0.0-164.0","EC645E7F80C242CBA5232FAC323E4571","019cef99-2d01-7343-b2a8-05feee347e4a","019cef87-c56d-7b55-9135-c5814367ec25","","null","
                <div class=""stimulus-container"">
                    <img src=""images/schematic_sequence/flight_scheme/flight_scheme_1.png"" class=""exp-image"">
                    <div class=""question-area""></div> 
                </div>","null","","","","","","","",""
"","","","","","html-button-response","165","493935","0.0-165.0","EC645E7F80C242CBA5232FAC323E4571","019cef99-2d01-7343-b2a8-05feee347e4a","019cef87-c56d-7b55-9135-c5814367ec25","","1158","
                <div class=""stimulus-container"">
                    <img src=""images/schematic_sequence/flight_scheme/flight_scheme_1.png"" class=""exp-image"">
                    <div class=""question-area"">
                        <p style=""font-size: 20px; font-weight: bold; margin: 0;"">Is there a person in this image?</p>
                    </div>
                </div>","0","main_experiment_trial","1","flight_scheme","schematic_sequence","","","",""
"","","","","","html-keyboard-response","166","498936","0.0-166.0","EC645E7F80C242CBA5232FAC323E4571","019cef99-2d01-7343-b2a8-05feee347e4a","019cef87-c56d-7b55-9135-c5814367ec25","","null","
                <div class=""stimulus-container"">
                    <img src=""images/schematic_sequence/flight_scheme/flight_scheme_2.png"" class=""exp-image"">
                    <div class=""question-area""></div> 
                </div>","null","","","","","","","",""
"","","","","","html-button-response","167","499566","0.0-167.0","EC645E7F80C242CBA5232FAC323E4571","019cef99-2d01-7343-b2a8-05feee347e4a","019cef87-c56d-7b55-9135-c5814367ec25","","630","
                <div class=""stimulus-container"">
                    <img src=""images/schematic_sequence/flight_scheme/flight_scheme_2.png"" class=""exp-image"">
                    <div class=""question-area"">
                        <p style=""font-size: 20px; font-weight: bold; margin: 0;"">Is there a person in this image?</p>
                    </div>
                </div>","1","main_experiment_trial","2","flight_scheme","schematic_sequence","","","",""
"","","","","","html-keyboard-response","168","504568","0.0-168.0","EC645E7F80C242CBA5232FAC323E4571","019cef99-2d01-7343-b2a8-05feee347e4a","019cef87-c56d-7b55-9135-c5814367ec25","","null","
                <div class=""stimulus-container"">
                    <img src=""images/schematic_sequence/flight_scheme/flight_scheme_3.png"" class=""exp-image"">
                    <div class=""question-area""></div> 
                </div>","null","","","","","","","",""
"","","","","","html-button-response","169","505622","0.0-169.0","EC645E7F80C242CBA5232FAC323E4571","019cef99-2d01-7343-b2a8-05feee347e4a","019cef87-c56d-7b55-9135-c5814367ec25","","1053","
                <div class=""stimulus-container"">
                    <img src=""images/schematic_sequence/flight_scheme/flight_scheme_3.png"" class=""exp-image"">
                    <div class=""question-area"">
                        <p style=""font-size: 20px; font-weight: bold; margin: 0;"">Is there a person in this image?</p>
                    </div>
                </div>","0","main_experiment_trial","3","flight_scheme","schematic_sequence","","","",""
"","","","","","html-keyboard-response","170","510632","0.0-170.0","EC645E7F80C242CBA5232FAC323E4571","019cef99-2d01-7343-b2a8-05feee347e4a","019cef87-c56d-7b55-9135-c5814367ec25","","null","
                <div class=""stimulus-container"">
                    <img src=""images/schematic_sequence/flight_scheme/flight_scheme_4.png"" class=""exp-image"">
                    <div class=""question-area""></div> 
                </div>","null","","","","","","","",""
"","","","","","html-button-response","171","511662","0.0-171.0","EC645E7F80C242CBA5232FAC323E4571","019cef99-2d01-7343-b2a8-05feee347e4a","019cef87-c56d-7b55-9135-c5814367ec25","","1028","
                <div class=""stimulus-container"">
                    <img src=""images/schematic_sequence/flight_scheme/flight_scheme_4.png"" class=""exp-image"">
                    <div class=""question-area"">
                        <p style=""font-size: 20px; font-weight: bold; margin: 0;"">Is there a person in this image?</p>
                    </div>
                </div>","0","main_experiment_trial","4","flight_scheme","schematic_sequence","","","",""
"","","","","","html-keyboard-response","172","516668","0.0-172.0","EC645E7F80C242CBA5232FAC323E4571","019cef99-2d01-7343-b2a8-05feee347e4a","019cef87-c56d-7b55-9135-c5814367ec25","","null","
                <div class=""stimulus-container"">
                    <img src=""images/schematic_sequence/flight_scheme/flight_scheme_5.png"" class=""exp-image"">
                    <div class=""question-area""></div> 
                </div>","null","","","","","","","",""
"","","","","","html-button-response","173","517430","0.0-173.0","EC645E7F80C242CBA5232FAC323E4571","019cef99-2d01-7343-b2a8-05feee347e4a","019cef87-c56d-7b55-9135-c5814367ec25","","761","
                <div class=""stimulus-container"">
                    <img src=""images/schematic_sequence/flight_scheme/flight_scheme_5.png"" class=""exp-image"">
                    <div class=""question-area"">
                        <p style=""font-size: 20px; font-weight: bold; margin: 0;"">Is there a person in this image?</p>
                    </div>
                </div>","0","main_experiment_trial","5","flight_scheme","schematic_sequence","","","",""
"","","","","","html-keyboard-response","174","522431","0.0-174.0","EC645E7F80C242CBA5232FAC323E4571","019cef99-2d01-7343-b2a8-05feee347e4a","019cef87-c56d-7b55-9135-c5814367ec25","","null","
                <div class=""stimulus-container"">
                    <img src=""images/schematic_sequence/flight_scheme/flight_scheme_6.png"" class=""exp-image"">
                    <div class=""question-area""></div> 
                </div>","null","","","","","","","",""
"","","","","","html-button-response","175","523046","0.0-175.0","EC645E7F80C242CBA5232FAC323E4571","019cef99-2d01-7343-b2a8-05feee347e4a","019cef87-c56d-7b55-9135-c5814367ec25","","615","
                <div class=""stimulus-container"">
                    <img src=""images/schematic_sequence/flight_scheme/flight_scheme_6.png"" class=""exp-image"">
                    <div class=""question-area"">
                        <p style=""font-size: 20px; font-weight: bold; margin: 0;"">Is there a person in this image?</p>
                    </div>
                </div>","1","main_experiment_trial","6","flight_scheme","schematic_sequence","","","",""
"","","","","","html-keyboard-response","176","528061","0.0-176.0","EC645E7F80C242CBA5232FAC323E4571","019cef99-2d01-7343-b2a8-05feee347e4a","019cef87-c56d-7b55-9135-c5814367ec25","","null","
                <div class=""stimulus-container"">
                    <img src=""images/schematic_sequence/flight_scheme/flight_scheme_7.png"" class=""exp-image"">
                    <div class=""question-area""></div> 
                </div>","null","","","","","","","",""
"","","","","","html-button-response","177","529222","0.0-177.0","EC645E7F80C242CBA5232FAC323E4571","019cef99-2d01-7343-b2a8-05feee347e4a","019cef87-c56d-7b55-9135-c5814367ec25","","1160","
                <div class=""stimulus-container"">
                    <img src=""images/schematic_sequence/flight_scheme/flight_scheme_7.png"" class=""exp-image"">
                    <div class=""question-area"">
                        <p style=""font-size: 20px; font-weight: bold; margin: 0;"">Is there a person in this image?</p>
                    </div>
                </div>","1","main_experiment_trial","7","flight_scheme","schematic_sequence","","","",""
"","","","","","html-keyboard-response","178","534225","0.0-178.0","EC645E7F80C242CBA5232FAC323E4571","019cef99-2d01-7343-b2a8-05feee347e4a","019cef87-c56d-7b55-9135-c5814367ec25","","null","
                <div class=""stimulus-container"">
                    <img src=""images/schematic_sequence/flight_scheme/flight_scheme_8.png"" class=""exp-image"">
                    <div class=""question-area""></div> 
                </div>","null","","","","","","","",""
"","","","","","html-button-response","179","534878","0.0-179.0","EC645E7F80C242CBA5232FAC323E4571","019cef99-2d01-7343-b2a8-05feee347e4a","019cef87-c56d-7b55-9135-c5814367ec25","","653","
                <div class=""stimulus-container"">
                    <img src=""images/schematic_sequence/flight_scheme/flight_scheme_8.png"" class=""exp-image"">
                    <div class=""question-area"">
                        <p style=""font-size: 20px; font-weight: bold; margin: 0;"">Is there a person in this image?</p>
                    </div>
                </div>","1","main_experiment_trial","8","flight_scheme","schematic_sequence","","","",""
"","","","","","html-keyboard-response","180","539880","0.0-180.0","EC645E7F80C242CBA5232FAC323E4571","019cef99-2d01-7343-b2a8-05feee347e4a","019cef87-c56d-7b55-9135-c5814367ec25","","null","
                <div class=""stimulus-container"">
                    <img src=""images/schematic_sequence/flight_scheme/flight_scheme_9.png"" class=""exp-image"">
                    <div class=""question-area""></div> 
                </div>","null","","","","","","","",""
"","","","","","html-button-response","181","540374","0.0-181.0","EC645E7F80C242CBA5232FAC323E4571","019cef99-2d01-7343-b2a8-05feee347e4a","019cef87-c56d-7b55-9135-c5814367ec25","","493","
                <div class=""stimulus-container"">
                    <img src=""images/schematic_sequence/flight_scheme/flight_scheme_9.png"" class=""exp-image"">
                    <div class=""question-area"">
                        <p style=""font-size: 20px; font-weight: bold; margin: 0;"">Is there a person in this image?</p>
                    </div>
                </div>","0","main_experiment_trial","9","flight_scheme","schematic_sequence","","","",""
"","","","","","html-keyboard-response","182","545379","0.0-182.0","EC645E7F80C242CBA5232FAC323E4571","019cef99-2d01-7343-b2a8-05feee347e4a","019cef87-c56d-7b55-9135-c5814367ec25","","null","
                <div class=""stimulus-container"">
                    <img src=""images/schematic_sequence/flight_scheme/flight_scheme_ten.png"" class=""exp-image"">
                    <div class=""question-area""></div> 
                </div>","null","","","","","","","",""
"","","","","","html-button-response","183","546806","0.0-183.0","EC645E7F80C242CBA5232FAC323E4571","019cef99-2d01-7343-b2a8-05feee347e4a","019cef87-c56d-7b55-9135-c5814367ec25","","1426","
                <div class=""stimulus-container"">
                    <img src=""images/schematic_sequence/flight_scheme/flight_scheme_ten.png"" class=""exp-image"">
                    <div class=""question-area"">
                        <p style=""font-size: 20px; font-weight: bold; margin: 0;"">Is there a person in this image?</p>
                    </div>
                </div>","0","main_experiment_trial","ten","flight_scheme","schematic_sequence","","","",""
"","","","","","html-keyboard-response","184","547809","0.0-184.0","EC645E7F80C242CBA5232FAC323E4571","019cef99-2d01-7343-b2a8-05feee347e4a","019cef87-c56d-7b55-9135-c5814367ec25","","null","<div style=""background-color: white; width: 100vw; height: 100vh;""></div>","null","","","","","","","",""
