"success","timeout","failed_images","failed_audio","failed_video","trial_type","trial_index","time_elapsed","internal_node_id","subject_id","study_id","session_id","view_history","rt","stimulus","response","task","image_index","folder","sequence_type","presentation_order","valuable_image_index","reward_type","distance_from_x","target_X","chosen_image_index","is_x_plus_dist","correct_choice"
"true","false","[]","[]","[]","preload","0","7266","0.0-0.0","39F516D2FE80412BABF4A7A0DE1C4580","019cfa76-b7fa-7b70-be24-98e3aa790465","019cfa3a-388e-72ab-ad58-bdeb258f96cd","","","","","","","","","","","","","","","",""
"","","","","","instructions","1","10051","0.0-1.0","39F516D2FE80412BABF4A7A0DE1C4580","019cfa76-b7fa-7b70-be24-98e3aa790465","019cfa3a-388e-72ab-ad58-bdeb258f96cd","[{""page_index"":0,""viewing_time"":2783}]","2784","","","","","","","","","","","","","",""
"","","","","","instructions","2","26219","0.0-2.0","39F516D2FE80412BABF4A7A0DE1C4580","019cfa76-b7fa-7b70-be24-98e3aa790465","019cfa3a-388e-72ab-ad58-bdeb258f96cd","[{""page_index"":0,""viewing_time"":16166}]","16166","","","","","","","","","","","","","",""
"true","","","","","fullscreen","3","29103","0.0-3.0","39F516D2FE80412BABF4A7A0DE1C4580","019cfa76-b7fa-7b70-be24-98e3aa790465","019cfa3a-388e-72ab-ad58-bdeb258f96cd","","1881","","","","","","","","","","","","","",""
"","","","","","instructions","4","43554","0.0-4.0","39F516D2FE80412BABF4A7A0DE1C4580","019cfa76-b7fa-7b70-be24-98e3aa790465","019cfa3a-388e-72ab-ad58-bdeb258f96cd","[{""page_index"":0,""viewing_time"":14449}]","14449","","","","","","","","","","","","","",""
"","","","","","instructions","5","64089","0.0-5.0","39F516D2FE80412BABF4A7A0DE1C4580","019cfa76-b7fa-7b70-be24-98e3aa790465","019cfa3a-388e-72ab-ad58-bdeb258f96cd","[{""page_index"":0,""viewing_time"":20533}]","20534","","","","","","","","","","","","","",""
"","","","","","html-keyboard-response","6","68091","0.0-6.0","39F516D2FE80412BABF4A7A0DE1C4580","019cfa76-b7fa-7b70-be24-98e3aa790465","019cfa3a-388e-72ab-ad58-bdeb258f96cd","","null","
                <div class=""stimulus-container"">
                    <img src=""images/instructions/movie_1.png"" class=""exp-image"">
                    <div class=""question-area""></div> 
                </div>","null","","","","","","","","","","","",""
"","","","","","html-button-response","7","70142","0.0-7.0","39F516D2FE80412BABF4A7A0DE1C4580","019cfa76-b7fa-7b70-be24-98e3aa790465","019cfa3a-388e-72ab-ad58-bdeb258f96cd","","2048","
                <div class=""stimulus-container"">
                    <img src=""images/instructions/movie_1.png"" class=""exp-image"">
                    <div class=""question-area"">
                        <p style=""font-size: 20px; font-weight: bold; margin: 0;"">Was there a person in this image?</p>
                    </div>
                </div>","0","example_question","1","","","","","","","","","",""
"","","","","","html-keyboard-response","8","74143","0.0-8.0","39F516D2FE80412BABF4A7A0DE1C4580","019cfa76-b7fa-7b70-be24-98e3aa790465","019cfa3a-388e-72ab-ad58-bdeb258f96cd","","null","
                <div class=""stimulus-container"">
                    <img src=""images/instructions/movie_2.png"" class=""exp-image"">
                    <div class=""question-area""></div> 
                </div>","null","","","","","","","","","","","",""
"","","","","","html-button-response","9","75191","0.0-9.0","39F516D2FE80412BABF4A7A0DE1C4580","019cfa76-b7fa-7b70-be24-98e3aa790465","019cfa3a-388e-72ab-ad58-bdeb258f96cd","","1046","
                <div class=""stimulus-container"">
                    <img src=""images/instructions/movie_2.png"" class=""exp-image"">
                    <div class=""question-area"">
                        <p style=""font-size: 20px; font-weight: bold; margin: 0;"">Was there a person in this image?</p>
                    </div>
                </div>","0","example_question","2","","","","","","","","","",""
"","","","","","html-keyboard-response","10","79194","0.0-10.0","39F516D2FE80412BABF4A7A0DE1C4580","019cfa76-b7fa-7b70-be24-98e3aa790465","019cfa3a-388e-72ab-ad58-bdeb258f96cd","","null","
                <div class=""stimulus-container"">
                    <img src=""images/instructions/movie_3.png"" class=""exp-image"">
                    <div class=""question-area""></div> 
                </div>","null","","","","","","","","","","","",""
"","","","","","html-button-response","11","80424","0.0-11.0","39F516D2FE80412BABF4A7A0DE1C4580","019cfa76-b7fa-7b70-be24-98e3aa790465","019cfa3a-388e-72ab-ad58-bdeb258f96cd","","1229","
                <div class=""stimulus-container"">
                    <img src=""images/instructions/movie_3.png"" class=""exp-image"">
                    <div class=""question-area"">
                        <p style=""font-size: 20px; font-weight: bold; margin: 0;"">Was there a person in this image?</p>
                    </div>
                </div>","0","example_question","3","","","","","","","","","",""
"","","","","","html-keyboard-response","12","84426","0.0-12.0","39F516D2FE80412BABF4A7A0DE1C4580","019cfa76-b7fa-7b70-be24-98e3aa790465","019cfa3a-388e-72ab-ad58-bdeb258f96cd","","null","
                <div class=""stimulus-container"">
                    <img src=""images/instructions/movie_4.png"" class=""exp-image"">
                    <div class=""question-area""></div> 
                </div>","null","","","","","","","","","","","",""
"","","","","","html-button-response","13","85241","0.0-13.0","39F516D2FE80412BABF4A7A0DE1C4580","019cfa76-b7fa-7b70-be24-98e3aa790465","019cfa3a-388e-72ab-ad58-bdeb258f96cd","","814","
                <div class=""stimulus-container"">
                    <img src=""images/instructions/movie_4.png"" class=""exp-image"">
                    <div class=""question-area"">
                        <p style=""font-size: 20px; font-weight: bold; margin: 0;"">Was there a person in this image?</p>
                    </div>
                </div>","0","example_question","4","","","","","","","","","",""
"","","","","","instructions","14","88975","0.0-14.0","39F516D2FE80412BABF4A7A0DE1C4580","019cfa76-b7fa-7b70-be24-98e3aa790465","019cfa3a-388e-72ab-ad58-bdeb258f96cd","[{""page_index"":0,""viewing_time"":3733}]","3734","","","","","","","","","","","","","",""
"","","","","","instructions","15","119711","0.0-15.0","39F516D2FE80412BABF4A7A0DE1C4580","019cfa76-b7fa-7b70-be24-98e3aa790465","019cfa3a-388e-72ab-ad58-bdeb258f96cd","[{""page_index"":0,""viewing_time"":30734}]","30734","","","","","","","","","","","","","",""
"","","","","","html-keyboard-response","16","124713","0.0-16.0","39F516D2FE80412BABF4A7A0DE1C4580","019cfa76-b7fa-7b70-be24-98e3aa790465","019cfa3a-388e-72ab-ad58-bdeb258f96cd","","null","<div style=""background-color: white; width: 100vw; height: 100vh;""></div>","null","","","","","","","","","","","",""
"","","","","","html-keyboard-response","17","125714","0.0-17.0","39F516D2FE80412BABF4A7A0DE1C4580","019cfa76-b7fa-7b70-be24-98e3aa790465","019cfa3a-388e-72ab-ad58-bdeb258f96cd","","null","
                <div class=""stimulus-container"">
                    <img src=""images/semantic_sequence/housework_semantic/housework_semantic_1.png"" class=""exp-image"">
                    <div class=""question-area""></div> 
                </div>","null","","","","","","","","","","","",""
"","","","","","html-button-response","18","127512","0.0-18.0","39F516D2FE80412BABF4A7A0DE1C4580","019cfa76-b7fa-7b70-be24-98e3aa790465","019cfa3a-388e-72ab-ad58-bdeb258f96cd","","1796","
                <div class=""stimulus-container"">
                    <img src=""images/semantic_sequence/housework_semantic/housework_semantic_1.png"" class=""exp-image"">
                    <div class=""question-area"">
                        <p style=""font-size: 20px; font-weight: bold; margin: 0;"">Is there a person in this image?</p>
                    </div>
                </div>","1","main_experiment_trial","1","housework_semantic","semantic_sequence","chronological","","","","","","",""
"","","","","","html-keyboard-response","19","128513","0.0-19.0","39F516D2FE80412BABF4A7A0DE1C4580","019cfa76-b7fa-7b70-be24-98e3aa790465","019cfa3a-388e-72ab-ad58-bdeb258f96cd","","null","
                <div class=""stimulus-container"">
                    <img src=""images/semantic_sequence/housework_semantic/housework_semantic_2.png"" class=""exp-image"">
                    <div class=""question-area""></div> 
                </div>","null","","","","","","","","","","","",""
"","","","","","html-button-response","20","130029","0.0-20.0","39F516D2FE80412BABF4A7A0DE1C4580","019cfa76-b7fa-7b70-be24-98e3aa790465","019cfa3a-388e-72ab-ad58-bdeb258f96cd","","1514","
                <div class=""stimulus-container"">
                    <img src=""images/semantic_sequence/housework_semantic/housework_semantic_2.png"" class=""exp-image"">
                    <div class=""question-area"">
                        <p style=""font-size: 20px; font-weight: bold; margin: 0;"">Is there a person in this image?</p>
                    </div>
                </div>","0","main_experiment_trial","2","housework_semantic","semantic_sequence","chronological","","","","","","",""
"","","","","","html-keyboard-response","21","131031","0.0-21.0","39F516D2FE80412BABF4A7A0DE1C4580","019cfa76-b7fa-7b70-be24-98e3aa790465","019cfa3a-388e-72ab-ad58-bdeb258f96cd","","null","
                <div class=""stimulus-container"">
                    <img src=""images/semantic_sequence/housework_semantic/housework_semantic_3.png"" class=""exp-image"">
                    <div class=""question-area""></div> 
                </div>","null","","","","","","","","","","","",""
"","","","","","html-button-response","22","133879","0.0-22.0","39F516D2FE80412BABF4A7A0DE1C4580","019cfa76-b7fa-7b70-be24-98e3aa790465","019cfa3a-388e-72ab-ad58-bdeb258f96cd","","2847","
                <div class=""stimulus-container"">
                    <img src=""images/semantic_sequence/housework_semantic/housework_semantic_3.png"" class=""exp-image"">
                    <div class=""question-area"">
                        <p style=""font-size: 20px; font-weight: bold; margin: 0;"">Is there a person in this image?</p>
                    </div>
                </div>","0","main_experiment_trial","3","housework_semantic","semantic_sequence","chronological","","","","","","",""
"","","","","","html-keyboard-response","23","134882","0.0-23.0","39F516D2FE80412BABF4A7A0DE1C4580","019cfa76-b7fa-7b70-be24-98e3aa790465","019cfa3a-388e-72ab-ad58-bdeb258f96cd","","null","
                <div class=""stimulus-container"">
                    <img src=""images/semantic_sequence/housework_semantic/housework_semantic_4.png"" class=""exp-image"">
                    <div class=""question-area""></div> 
                </div>","null","","","","","","","","","","","",""
"","","","","","html-button-response","24","137885","0.0-24.0","39F516D2FE80412BABF4A7A0DE1C4580","019cfa76-b7fa-7b70-be24-98e3aa790465","019cfa3a-388e-72ab-ad58-bdeb258f96cd","","null","
                <div class=""stimulus-container"">
                    <img src=""images/semantic_sequence/housework_semantic/housework_semantic_4.png"" class=""exp-image"">
                    <div class=""question-area"">
                        <p style=""font-size: 20px; font-weight: bold; margin: 0;"">Is there a person in this image?</p>
                    </div>
                </div>","null","main_experiment_trial","4","housework_semantic","semantic_sequence","chronological","","","","","","",""
"","","","","","html-keyboard-response","25","138887","0.0-25.0","39F516D2FE80412BABF4A7A0DE1C4580","019cfa76-b7fa-7b70-be24-98e3aa790465","019cfa3a-388e-72ab-ad58-bdeb258f96cd","","null","
                <div class=""stimulus-container"">
                    <img src=""images/semantic_sequence/housework_semantic/housework_semantic_5.png"" class=""exp-image"">
                    <div class=""question-area""></div> 
                </div>","null","","","","","","","","","","","",""
"","","","","","html-button-response","26","140596","0.0-26.0","39F516D2FE80412BABF4A7A0DE1C4580","019cfa76-b7fa-7b70-be24-98e3aa790465","019cfa3a-388e-72ab-ad58-bdeb258f96cd","","1708","
                <div class=""stimulus-container"">
                    <img src=""images/semantic_sequence/housework_semantic/housework_semantic_5.png"" class=""exp-image"">
                    <div class=""question-area"">
                        <p style=""font-size: 20px; font-weight: bold; margin: 0;"">Is there a person in this image?</p>
                    </div>
                </div>","0","main_experiment_trial","5","housework_semantic","semantic_sequence","chronological","","","","","","",""
"","","","","","html-keyboard-response","27","141598","0.0-27.0","39F516D2FE80412BABF4A7A0DE1C4580","019cfa76-b7fa-7b70-be24-98e3aa790465","019cfa3a-388e-72ab-ad58-bdeb258f96cd","","null","
                <div class=""stimulus-container"">
                    <img src=""images/semantic_sequence/housework_semantic/housework_semantic_6.png"" class=""exp-image"">
                    <div class=""question-area""></div> 
                </div>","null","","","","","","","","","","","",""
"","","","","","html-button-response","28","142313","0.0-28.0","39F516D2FE80412BABF4A7A0DE1C4580","019cfa76-b7fa-7b70-be24-98e3aa790465","019cfa3a-388e-72ab-ad58-bdeb258f96cd","","714","
                <div class=""stimulus-container"">
                    <img src=""images/semantic_sequence/housework_semantic/housework_semantic_6.png"" class=""exp-image"">
                    <div class=""question-area"">
                        <p style=""font-size: 20px; font-weight: bold; margin: 0;"">Is there a person in this image?</p>
                    </div>
                </div>","0","main_experiment_trial","6","housework_semantic","semantic_sequence","chronological","","","","","","",""
"","","","","","html-keyboard-response","29","143315","0.0-29.0","39F516D2FE80412BABF4A7A0DE1C4580","019cfa76-b7fa-7b70-be24-98e3aa790465","019cfa3a-388e-72ab-ad58-bdeb258f96cd","","null","
                <div class=""stimulus-container"">
                    <img src=""images/semantic_sequence/housework_semantic/housework_semantic_7.png"" class=""exp-image"">
                    <div class=""question-area""></div> 
                </div>","null","","","","","","","","","","","",""
"","","","","","html-button-response","30","143930","0.0-30.0","39F516D2FE80412BABF4A7A0DE1C4580","019cfa76-b7fa-7b70-be24-98e3aa790465","019cfa3a-388e-72ab-ad58-bdeb258f96cd","","614","
                <div class=""stimulus-container"">
                    <img src=""images/semantic_sequence/housework_semantic/housework_semantic_7.png"" class=""exp-image"">
                    <div class=""question-area"">
                        <p style=""font-size: 20px; font-weight: bold; margin: 0;"">Is there a person in this image?</p>
                    </div>
                </div>","1","main_experiment_trial","7","housework_semantic","semantic_sequence","chronological","","","","","","",""
"","","","","","html-keyboard-response","31","144934","0.0-31.0","39F516D2FE80412BABF4A7A0DE1C4580","019cfa76-b7fa-7b70-be24-98e3aa790465","019cfa3a-388e-72ab-ad58-bdeb258f96cd","","null","
                <div class=""stimulus-container"">
                    <img src=""images/semantic_sequence/housework_semantic/housework_semantic_8.png"" class=""exp-image"">
                    <div class=""question-area""></div> 
                </div>","null","","","","","","","","","","","",""
"","","","","","html-button-response","32","145614","0.0-32.0","39F516D2FE80412BABF4A7A0DE1C4580","019cfa76-b7fa-7b70-be24-98e3aa790465","019cfa3a-388e-72ab-ad58-bdeb258f96cd","","679","
                <div class=""stimulus-container"">
                    <img src=""images/semantic_sequence/housework_semantic/housework_semantic_8.png"" class=""exp-image"">
                    <div class=""question-area"">
                        <p style=""font-size: 20px; font-weight: bold; margin: 0;"">Is there a person in this image?</p>
                    </div>
                </div>","0","main_experiment_trial","8","housework_semantic","semantic_sequence","chronological","","","","","","",""
"","","","","","html-keyboard-response","33","146616","0.0-33.0","39F516D2FE80412BABF4A7A0DE1C4580","019cfa76-b7fa-7b70-be24-98e3aa790465","019cfa3a-388e-72ab-ad58-bdeb258f96cd","","null","
                <div class=""stimulus-container"">
                    <img src=""images/semantic_sequence/housework_semantic/housework_semantic_9.png"" class=""exp-image"">
                    <div class=""question-area""></div> 
                </div>","null","","","","","","","","","","","",""
"","","","","","html-button-response","34","147097","0.0-34.0","39F516D2FE80412BABF4A7A0DE1C4580","019cfa76-b7fa-7b70-be24-98e3aa790465","019cfa3a-388e-72ab-ad58-bdeb258f96cd","","480","
                <div class=""stimulus-container"">
                    <img src=""images/semantic_sequence/housework_semantic/housework_semantic_9.png"" class=""exp-image"">
                    <div class=""question-area"">
                        <p style=""font-size: 20px; font-weight: bold; margin: 0;"">Is there a person in this image?</p>
                    </div>
                </div>","0","main_experiment_trial","9","housework_semantic","semantic_sequence","chronological","","","","","","",""
"","","","","","html-keyboard-response","35","148100","0.0-35.0","39F516D2FE80412BABF4A7A0DE1C4580","019cfa76-b7fa-7b70-be24-98e3aa790465","019cfa3a-388e-72ab-ad58-bdeb258f96cd","","null","
                <div class=""stimulus-container"">
                    <img src=""images/semantic_sequence/housework_semantic/housework_semantic_ten.png"" class=""exp-image"">
                    <div class=""question-area""></div> 
                </div>","null","","","","","","","","","","","",""
"","","","","","html-button-response","36","148547","0.0-36.0","39F516D2FE80412BABF4A7A0DE1C4580","019cfa76-b7fa-7b70-be24-98e3aa790465","019cfa3a-388e-72ab-ad58-bdeb258f96cd","","446","
                <div class=""stimulus-container"">
                    <img src=""images/semantic_sequence/housework_semantic/housework_semantic_ten.png"" class=""exp-image"">
                    <div class=""question-area"">
                        <p style=""font-size: 20px; font-weight: bold; margin: 0;"">Is there a person in this image?</p>
                    </div>
                </div>","0","main_experiment_trial","ten","housework_semantic","semantic_sequence","chronological","","","","","","",""
"","","","","","html-keyboard-response","37","153549","0.0-37.0","39F516D2FE80412BABF4A7A0DE1C4580","019cfa76-b7fa-7b70-be24-98e3aa790465","019cfa3a-388e-72ab-ad58-bdeb258f96cd","","null","<div style=""background-color: white; width: 100vw; height: 100vh;""></div>","null","","","","","","","","","","","",""
"","","","","","html-keyboard-response","38","154552","0.0-38.0","39F516D2FE80412BABF4A7A0DE1C4580","019cfa76-b7fa-7b70-be24-98e3aa790465","019cfa3a-388e-72ab-ad58-bdeb258f96cd","","null","
                <div class=""stimulus-container"">
                    <img src=""images/causal_sequence/coin_causal/coin_causal_1.png"" class=""exp-image"">
                    <div class=""question-area""></div> 
                </div>","null","","","","","","","","","","","",""
"","","","","","html-button-response","39","157415","0.0-39.0","39F516D2FE80412BABF4A7A0DE1C4580","019cfa76-b7fa-7b70-be24-98e3aa790465","019cfa3a-388e-72ab-ad58-bdeb258f96cd","","2862","
                <div class=""stimulus-container"">
                    <img src=""images/causal_sequence/coin_causal/coin_causal_1.png"" class=""exp-image"">
                    <div class=""question-area"">
                        <p style=""font-size: 20px; font-weight: bold; margin: 0;"">Is there a person in this image?</p>
                    </div>
                </div>","0","main_experiment_trial","1","coin_causal","causal_sequence","chronological","","","","","","",""
"","","","","","html-keyboard-response","40","158417","0.0-40.0","39F516D2FE80412BABF4A7A0DE1C4580","019cfa76-b7fa-7b70-be24-98e3aa790465","019cfa3a-388e-72ab-ad58-bdeb258f96cd","","null","
                <div class=""stimulus-container"">
                    <img src=""images/causal_sequence/coin_causal/coin_causal_2.png"" class=""exp-image"">
                    <div class=""question-area""></div> 
                </div>","null","","","","","","","","","","","",""
"","","","","","html-button-response","41","159048","0.0-41.0","39F516D2FE80412BABF4A7A0DE1C4580","019cfa76-b7fa-7b70-be24-98e3aa790465","019cfa3a-388e-72ab-ad58-bdeb258f96cd","","630","
                <div class=""stimulus-container"">
                    <img src=""images/causal_sequence/coin_causal/coin_causal_2.png"" class=""exp-image"">
                    <div class=""question-area"">
                        <p style=""font-size: 20px; font-weight: bold; margin: 0;"">Is there a person in this image?</p>
                    </div>
                </div>","0","main_experiment_trial","2","coin_causal","causal_sequence","chronological","","","","","","",""
"","","","","","html-keyboard-response","42","160050","0.0-42.0","39F516D2FE80412BABF4A7A0DE1C4580","019cfa76-b7fa-7b70-be24-98e3aa790465","019cfa3a-388e-72ab-ad58-bdeb258f96cd","","null","
                <div class=""stimulus-container"">
                    <img src=""images/causal_sequence/coin_causal/coin_causal_3.png"" class=""exp-image"">
                    <div class=""question-area""></div> 
                </div>","null","","","","","","","","","","","",""
"","","","","","html-button-response","43","160615","0.0-43.0","39F516D2FE80412BABF4A7A0DE1C4580","019cfa76-b7fa-7b70-be24-98e3aa790465","019cfa3a-388e-72ab-ad58-bdeb258f96cd","","564","
                <div class=""stimulus-container"">
                    <img src=""images/causal_sequence/coin_causal/coin_causal_3.png"" class=""exp-image"">
                    <div class=""question-area"">
                        <p style=""font-size: 20px; font-weight: bold; margin: 0;"">Is there a person in this image?</p>
                    </div>
                </div>","0","main_experiment_trial","3","coin_causal","causal_sequence","chronological","","","","","","",""
"","","","","","html-keyboard-response","44","161616","0.0-44.0","39F516D2FE80412BABF4A7A0DE1C4580","019cfa76-b7fa-7b70-be24-98e3aa790465","019cfa3a-388e-72ab-ad58-bdeb258f96cd","","null","
                <div class=""stimulus-container"">
                    <img src=""images/causal_sequence/coin_causal/coin_causal_4.png"" class=""exp-image"">
                    <div class=""question-area""></div> 
                </div>","null","","","","","","","","","","","",""
"","","","","","html-button-response","45","162248","0.0-45.0","39F516D2FE80412BABF4A7A0DE1C4580","019cfa76-b7fa-7b70-be24-98e3aa790465","019cfa3a-388e-72ab-ad58-bdeb258f96cd","","631","
                <div class=""stimulus-container"">
                    <img src=""images/causal_sequence/coin_causal/coin_causal_4.png"" class=""exp-image"">
                    <div class=""question-area"">
                        <p style=""font-size: 20px; font-weight: bold; margin: 0;"">Is there a person in this image?</p>
                    </div>
                </div>","0","main_experiment_trial","4","coin_causal","causal_sequence","chronological","","","","","","",""
"","","","","","html-keyboard-response","46","163251","0.0-46.0","39F516D2FE80412BABF4A7A0DE1C4580","019cfa76-b7fa-7b70-be24-98e3aa790465","019cfa3a-388e-72ab-ad58-bdeb258f96cd","","null","
                <div class=""stimulus-container"">
                    <img src=""images/causal_sequence/coin_causal/coin_causal_5.png"" class=""exp-image"">
                    <div class=""question-area""></div> 
                </div>","null","","","","","","","","","","","",""
"","","","","","html-button-response","47","163731","0.0-47.0","39F516D2FE80412BABF4A7A0DE1C4580","019cfa76-b7fa-7b70-be24-98e3aa790465","019cfa3a-388e-72ab-ad58-bdeb258f96cd","","479","
                <div class=""stimulus-container"">
                    <img src=""images/causal_sequence/coin_causal/coin_causal_5.png"" class=""exp-image"">
                    <div class=""question-area"">
                        <p style=""font-size: 20px; font-weight: bold; margin: 0;"">Is there a person in this image?</p>
                    </div>
                </div>","0","main_experiment_trial","5","coin_causal","causal_sequence","chronological","","","","","","",""
"","","","","","html-keyboard-response","48","164732","0.0-48.0","39F516D2FE80412BABF4A7A0DE1C4580","019cfa76-b7fa-7b70-be24-98e3aa790465","019cfa3a-388e-72ab-ad58-bdeb258f96cd","","null","
                <div class=""stimulus-container"">
                    <img src=""images/causal_sequence/coin_causal/coin_causal_6.png"" class=""exp-image"">
                    <div class=""question-area""></div> 
                </div>","null","","","","","","","","","","","",""
"","","","","","html-button-response","49","165616","0.0-49.0","39F516D2FE80412BABF4A7A0DE1C4580","019cfa76-b7fa-7b70-be24-98e3aa790465","019cfa3a-388e-72ab-ad58-bdeb258f96cd","","883","
                <div class=""stimulus-container"">
                    <img src=""images/causal_sequence/coin_causal/coin_causal_6.png"" class=""exp-image"">
                    <div class=""question-area"">
                        <p style=""font-size: 20px; font-weight: bold; margin: 0;"">Is there a person in this image?</p>
                    </div>
                </div>","0","main_experiment_trial","6","coin_causal","causal_sequence","chronological","","","","","","",""
"","","","","","html-keyboard-response","50","166618","0.0-50.0","39F516D2FE80412BABF4A7A0DE1C4580","019cfa76-b7fa-7b70-be24-98e3aa790465","019cfa3a-388e-72ab-ad58-bdeb258f96cd","","null","
                <div class=""stimulus-container"">
                    <img src=""images/causal_sequence/coin_causal/coin_causal_7.png"" class=""exp-image"">
                    <div class=""question-area""></div> 
                </div>","null","","","","","","","","","","","",""
"","","","","","html-button-response","51","167616","0.0-51.0","39F516D2FE80412BABF4A7A0DE1C4580","019cfa76-b7fa-7b70-be24-98e3aa790465","019cfa3a-388e-72ab-ad58-bdeb258f96cd","","997","
                <div class=""stimulus-container"">
                    <img src=""images/causal_sequence/coin_causal/coin_causal_7.png"" class=""exp-image"">
                    <div class=""question-area"">
                        <p style=""font-size: 20px; font-weight: bold; margin: 0;"">Is there a person in this image?</p>
                    </div>
                </div>","1","main_experiment_trial","7","coin_causal","causal_sequence","chronological","","","","","","",""
"","","","","","html-keyboard-response","52","168618","0.0-52.0","39F516D2FE80412BABF4A7A0DE1C4580","019cfa76-b7fa-7b70-be24-98e3aa790465","019cfa3a-388e-72ab-ad58-bdeb258f96cd","","null","
                <div class=""stimulus-container"">
                    <img src=""images/causal_sequence/coin_causal/coin_causal_8.png"" class=""exp-image"">
                    <div class=""question-area""></div> 
                </div>","null","","","","","","","","","","","",""
"","","","","","html-button-response","53","169183","0.0-53.0","39F516D2FE80412BABF4A7A0DE1C4580","019cfa76-b7fa-7b70-be24-98e3aa790465","019cfa3a-388e-72ab-ad58-bdeb258f96cd","","563","
                <div class=""stimulus-container"">
                    <img src=""images/causal_sequence/coin_causal/coin_causal_8.png"" class=""exp-image"">
                    <div class=""question-area"">
                        <p style=""font-size: 20px; font-weight: bold; margin: 0;"">Is there a person in this image?</p>
                    </div>
                </div>","0","main_experiment_trial","8","coin_causal","causal_sequence","chronological","","","","","","",""
"","","","","","html-keyboard-response","54","170185","0.0-54.0","39F516D2FE80412BABF4A7A0DE1C4580","019cfa76-b7fa-7b70-be24-98e3aa790465","019cfa3a-388e-72ab-ad58-bdeb258f96cd","","null","
                <div class=""stimulus-container"">
                    <img src=""images/causal_sequence/coin_causal/coin_causal_9.png"" class=""exp-image"">
                    <div class=""question-area""></div> 
                </div>","null","","","","","","","","","","","",""
"","","","","","html-button-response","55","170649","0.0-55.0","39F516D2FE80412BABF4A7A0DE1C4580","019cfa76-b7fa-7b70-be24-98e3aa790465","019cfa3a-388e-72ab-ad58-bdeb258f96cd","","464","
                <div class=""stimulus-container"">
                    <img src=""images/causal_sequence/coin_causal/coin_causal_9.png"" class=""exp-image"">
                    <div class=""question-area"">
                        <p style=""font-size: 20px; font-weight: bold; margin: 0;"">Is there a person in this image?</p>
                    </div>
                </div>","0","main_experiment_trial","9","coin_causal","causal_sequence","chronological","","","","","","",""
"","","","","","html-keyboard-response","56","171651","0.0-56.0","39F516D2FE80412BABF4A7A0DE1C4580","019cfa76-b7fa-7b70-be24-98e3aa790465","019cfa3a-388e-72ab-ad58-bdeb258f96cd","","null","
                <div class=""stimulus-container"">
                    <img src=""images/causal_sequence/coin_causal/coin_causal_ten.png"" class=""exp-image"">
                    <div class=""question-area""></div> 
                </div>","null","","","","","","","","","","","",""
"","","","","","html-button-response","57","172116","0.0-57.0","39F516D2FE80412BABF4A7A0DE1C4580","019cfa76-b7fa-7b70-be24-98e3aa790465","019cfa3a-388e-72ab-ad58-bdeb258f96cd","","464","
                <div class=""stimulus-container"">
                    <img src=""images/causal_sequence/coin_causal/coin_causal_ten.png"" class=""exp-image"">
                    <div class=""question-area"">
                        <p style=""font-size: 20px; font-weight: bold; margin: 0;"">Is there a person in this image?</p>
                    </div>
                </div>","0","main_experiment_trial","ten","coin_causal","causal_sequence","chronological","","","","","","",""
"","","","","","html-keyboard-response","58","177118","0.0-58.0","39F516D2FE80412BABF4A7A0DE1C4580","019cfa76-b7fa-7b70-be24-98e3aa790465","019cfa3a-388e-72ab-ad58-bdeb258f96cd","","null","<div style=""background-color: white; width: 100vw; height: 100vh;""></div>","null","","","","","","","","","","","",""
"","","","","","html-keyboard-response","59","178120","0.0-59.0","39F516D2FE80412BABF4A7A0DE1C4580","019cfa76-b7fa-7b70-be24-98e3aa790465","019cfa3a-388e-72ab-ad58-bdeb258f96cd","","null","
                <div class=""stimulus-container"">
                    <img src=""images/semantic_sequence/maintaining_a_car_semantic/maintaining_a_car_semantic_1.png"" class=""exp-image"">
                    <div class=""question-area""></div> 
                </div>","null","","","","","","","","","","","",""
"","","","","","html-button-response","60","179134","0.0-60.0","39F516D2FE80412BABF4A7A0DE1C4580","019cfa76-b7fa-7b70-be24-98e3aa790465","019cfa3a-388e-72ab-ad58-bdeb258f96cd","","1013","
                <div class=""stimulus-container"">
                    <img src=""images/semantic_sequence/maintaining_a_car_semantic/maintaining_a_car_semantic_1.png"" class=""exp-image"">
                    <div class=""question-area"">
                        <p style=""font-size: 20px; font-weight: bold; margin: 0;"">Is there a person in this image?</p>
                    </div>
                </div>","0","main_experiment_trial","1","maintaining_a_car_semantic","semantic_sequence","chronological","","","","","","",""
"","","","","","html-keyboard-response","61","180137","0.0-61.0","39F516D2FE80412BABF4A7A0DE1C4580","019cfa76-b7fa-7b70-be24-98e3aa790465","019cfa3a-388e-72ab-ad58-bdeb258f96cd","","null","
                <div class=""stimulus-container"">
                    <img src=""images/semantic_sequence/maintaining_a_car_semantic/maintaining_a_car_semantic_2.png"" class=""exp-image"">
                    <div class=""question-area""></div> 
                </div>","null","","","","","","","","","","","",""
"","","","","","html-button-response","62","180667","0.0-62.0","39F516D2FE80412BABF4A7A0DE1C4580","019cfa76-b7fa-7b70-be24-98e3aa790465","019cfa3a-388e-72ab-ad58-bdeb258f96cd","","529","
                <div class=""stimulus-container"">
                    <img src=""images/semantic_sequence/maintaining_a_car_semantic/maintaining_a_car_semantic_2.png"" class=""exp-image"">
                    <div class=""question-area"">
                        <p style=""font-size: 20px; font-weight: bold; margin: 0;"">Is there a person in this image?</p>
                    </div>
                </div>","0","main_experiment_trial","2","maintaining_a_car_semantic","semantic_sequence","chronological","","","","","","",""
"","","","","","html-keyboard-response","63","181670","0.0-63.0","39F516D2FE80412BABF4A7A0DE1C4580","019cfa76-b7fa-7b70-be24-98e3aa790465","019cfa3a-388e-72ab-ad58-bdeb258f96cd","","null","
                <div class=""stimulus-container"">
                    <img src=""images/semantic_sequence/maintaining_a_car_semantic/maintaining_a_car_semantic_3.png"" class=""exp-image"">
                    <div class=""question-area""></div> 
                </div>","null","","","","","","","","","","","",""
"","","","","","html-button-response","64","182217","0.0-64.0","39F516D2FE80412BABF4A7A0DE1C4580","019cfa76-b7fa-7b70-be24-98e3aa790465","019cfa3a-388e-72ab-ad58-bdeb258f96cd","","546","
                <div class=""stimulus-container"">
                    <img src=""images/semantic_sequence/maintaining_a_car_semantic/maintaining_a_car_semantic_3.png"" class=""exp-image"">
                    <div class=""question-area"">
                        <p style=""font-size: 20px; font-weight: bold; margin: 0;"">Is there a person in this image?</p>
                    </div>
                </div>","0","main_experiment_trial","3","maintaining_a_car_semantic","semantic_sequence","chronological","","","","","","",""
"","","","","","html-keyboard-response","65","183219","0.0-65.0","39F516D2FE80412BABF4A7A0DE1C4580","019cfa76-b7fa-7b70-be24-98e3aa790465","019cfa3a-388e-72ab-ad58-bdeb258f96cd","","null","
                <div class=""stimulus-container"">
                    <img src=""images/semantic_sequence/maintaining_a_car_semantic/maintaining_a_car_semantic_4.png"" class=""exp-image"">
                    <div class=""question-area""></div> 
                </div>","null","","","","","","","","","","","",""
"","","","","","html-button-response","66","183601","0.0-66.0","39F516D2FE80412BABF4A7A0DE1C4580","019cfa76-b7fa-7b70-be24-98e3aa790465","019cfa3a-388e-72ab-ad58-bdeb258f96cd","","381","
                <div class=""stimulus-container"">
                    <img src=""images/semantic_sequence/maintaining_a_car_semantic/maintaining_a_car_semantic_4.png"" class=""exp-image"">
                    <div class=""question-area"">
                        <p style=""font-size: 20px; font-weight: bold; margin: 0;"">Is there a person in this image?</p>
                    </div>
                </div>","0","main_experiment_trial","4","maintaining_a_car_semantic","semantic_sequence","chronological","","","","","","",""
"","","","","","html-keyboard-response","67","184603","0.0-67.0","39F516D2FE80412BABF4A7A0DE1C4580","019cfa76-b7fa-7b70-be24-98e3aa790465","019cfa3a-388e-72ab-ad58-bdeb258f96cd","","null","
                <div class=""stimulus-container"">
                    <img src=""images/semantic_sequence/maintaining_a_car_semantic/maintaining_a_car_semantic_5.png"" class=""exp-image"">
                    <div class=""question-area""></div> 
                </div>","null","","","","","","","","","","","",""
"","","","","","html-button-response","68","185066","0.0-68.0","39F516D2FE80412BABF4A7A0DE1C4580","019cfa76-b7fa-7b70-be24-98e3aa790465","019cfa3a-388e-72ab-ad58-bdeb258f96cd","","463","
                <div class=""stimulus-container"">
                    <img src=""images/semantic_sequence/maintaining_a_car_semantic/maintaining_a_car_semantic_5.png"" class=""exp-image"">
                    <div class=""question-area"">
                        <p style=""font-size: 20px; font-weight: bold; margin: 0;"">Is there a person in this image?</p>
                    </div>
                </div>","0","main_experiment_trial","5","maintaining_a_car_semantic","semantic_sequence","chronological","","","","","","",""
"","","","","","html-keyboard-response","69","186069","0.0-69.0","39F516D2FE80412BABF4A7A0DE1C4580","019cfa76-b7fa-7b70-be24-98e3aa790465","019cfa3a-388e-72ab-ad58-bdeb258f96cd","","null","
                <div class=""stimulus-container"">
                    <img src=""images/semantic_sequence/maintaining_a_car_semantic/maintaining_a_car_semantic_6.png"" class=""exp-image"">
                    <div class=""question-area""></div> 
                </div>","null","","","","","","","","","","","",""
"","","","","","html-button-response","70","186734","0.0-70.0","39F516D2FE80412BABF4A7A0DE1C4580","019cfa76-b7fa-7b70-be24-98e3aa790465","019cfa3a-388e-72ab-ad58-bdeb258f96cd","","664","
                <div class=""stimulus-container"">
                    <img src=""images/semantic_sequence/maintaining_a_car_semantic/maintaining_a_car_semantic_6.png"" class=""exp-image"">
                    <div class=""question-area"">
                        <p style=""font-size: 20px; font-weight: bold; margin: 0;"">Is there a person in this image?</p>
                    </div>
                </div>","0","main_experiment_trial","6","maintaining_a_car_semantic","semantic_sequence","chronological","","","","","","",""
"","","","","","html-keyboard-response","71","187736","0.0-71.0","39F516D2FE80412BABF4A7A0DE1C4580","019cfa76-b7fa-7b70-be24-98e3aa790465","019cfa3a-388e-72ab-ad58-bdeb258f96cd","","null","
                <div class=""stimulus-container"">
                    <img src=""images/semantic_sequence/maintaining_a_car_semantic/maintaining_a_car_semantic_7.png"" class=""exp-image"">
                    <div class=""question-area""></div> 
                </div>","null","","","","","","","","","","","",""
"","","","","","html-button-response","72","188118","0.0-72.0","39F516D2FE80412BABF4A7A0DE1C4580","019cfa76-b7fa-7b70-be24-98e3aa790465","019cfa3a-388e-72ab-ad58-bdeb258f96cd","","380","
                <div class=""stimulus-container"">
                    <img src=""images/semantic_sequence/maintaining_a_car_semantic/maintaining_a_car_semantic_7.png"" class=""exp-image"">
                    <div class=""question-area"">
                        <p style=""font-size: 20px; font-weight: bold; margin: 0;"">Is there a person in this image?</p>
                    </div>
                </div>","0","main_experiment_trial","7","maintaining_a_car_semantic","semantic_sequence","chronological","","","","","","",""
"","","","","","html-keyboard-response","73","189120","0.0-73.0","39F516D2FE80412BABF4A7A0DE1C4580","019cfa76-b7fa-7b70-be24-98e3aa790465","019cfa3a-388e-72ab-ad58-bdeb258f96cd","","null","
                <div class=""stimulus-container"">
                    <img src=""images/semantic_sequence/maintaining_a_car_semantic/maintaining_a_car_semantic_8.png"" class=""exp-image"">
                    <div class=""question-area""></div> 
                </div>","null","","","","","","","","","","","",""
"","","","","","html-button-response","74","189602","0.0-74.0","39F516D2FE80412BABF4A7A0DE1C4580","019cfa76-b7fa-7b70-be24-98e3aa790465","019cfa3a-388e-72ab-ad58-bdeb258f96cd","","481","
                <div class=""stimulus-container"">
                    <img src=""images/semantic_sequence/maintaining_a_car_semantic/maintaining_a_car_semantic_8.png"" class=""exp-image"">
                    <div class=""question-area"">
                        <p style=""font-size: 20px; font-weight: bold; margin: 0;"">Is there a person in this image?</p>
                    </div>
                </div>","0","main_experiment_trial","8","maintaining_a_car_semantic","semantic_sequence","chronological","","","","","","",""
"","","","","","html-keyboard-response","75","190604","0.0-75.0","39F516D2FE80412BABF4A7A0DE1C4580","019cfa76-b7fa-7b70-be24-98e3aa790465","019cfa3a-388e-72ab-ad58-bdeb258f96cd","","null","
                <div class=""stimulus-container"">
                    <img src=""images/semantic_sequence/maintaining_a_car_semantic/maintaining_a_car_semantic_9.png"" class=""exp-image"">
                    <div class=""question-area""></div> 
                </div>","null","","","","","","","","","","","",""
"","","","","","html-button-response","76","191068","0.0-76.0","39F516D2FE80412BABF4A7A0DE1C4580","019cfa76-b7fa-7b70-be24-98e3aa790465","019cfa3a-388e-72ab-ad58-bdeb258f96cd","","463","
                <div class=""stimulus-container"">
                    <img src=""images/semantic_sequence/maintaining_a_car_semantic/maintaining_a_car_semantic_9.png"" class=""exp-image"">
                    <div class=""question-area"">
                        <p style=""font-size: 20px; font-weight: bold; margin: 0;"">Is there a person in this image?</p>
                    </div>
                </div>","0","main_experiment_trial","9","maintaining_a_car_semantic","semantic_sequence","chronological","","","","","","",""
"","","","","","html-keyboard-response","77","192070","0.0-77.0","39F516D2FE80412BABF4A7A0DE1C4580","019cfa76-b7fa-7b70-be24-98e3aa790465","019cfa3a-388e-72ab-ad58-bdeb258f96cd","","null","
                <div class=""stimulus-container"">
                    <img src=""images/semantic_sequence/maintaining_a_car_semantic/maintaining_a_car_semantic_ten.png"" class=""exp-image"">
                    <div class=""question-area""></div> 
                </div>","null","","","","","","","","","","","",""
"","","","","","html-button-response","78","192568","0.0-78.0","39F516D2FE80412BABF4A7A0DE1C4580","019cfa76-b7fa-7b70-be24-98e3aa790465","019cfa3a-388e-72ab-ad58-bdeb258f96cd","","497","
                <div class=""stimulus-container"">
                    <img src=""images/semantic_sequence/maintaining_a_car_semantic/maintaining_a_car_semantic_ten.png"" class=""exp-image"">
                    <div class=""question-area"">
                        <p style=""font-size: 20px; font-weight: bold; margin: 0;"">Is there a person in this image?</p>
                    </div>
                </div>","0","main_experiment_trial","ten","maintaining_a_car_semantic","semantic_sequence","chronological","","","","","","",""
"","","","","","html-keyboard-response","79","197571","0.0-79.0","39F516D2FE80412BABF4A7A0DE1C4580","019cfa76-b7fa-7b70-be24-98e3aa790465","019cfa3a-388e-72ab-ad58-bdeb258f96cd","","null","<div style=""background-color: white; width: 100vw; height: 100vh;""></div>","null","","","","","","","","","","","",""
"","","","","","html-keyboard-response","80","198573","0.0-80.0","39F516D2FE80412BABF4A7A0DE1C4580","019cfa76-b7fa-7b70-be24-98e3aa790465","019cfa3a-388e-72ab-ad58-bdeb258f96cd","","null","
                <div class=""stimulus-container"">
                    <img src=""images/causal_sequence/museum_causal/museum_causal_1.png"" class=""exp-image"">
                    <div class=""question-area""></div> 
                </div>","null","","","","","","","","","","","",""
"","","","","","html-button-response","81","199902","0.0-81.0","39F516D2FE80412BABF4A7A0DE1C4580","019cfa76-b7fa-7b70-be24-98e3aa790465","019cfa3a-388e-72ab-ad58-bdeb258f96cd","","1328","
                <div class=""stimulus-container"">
                    <img src=""images/causal_sequence/museum_causal/museum_causal_1.png"" class=""exp-image"">
                    <div class=""question-area"">
                        <p style=""font-size: 20px; font-weight: bold; margin: 0;"">Is there a person in this image?</p>
                    </div>
                </div>","0","main_experiment_trial","1","museum_causal","causal_sequence","chronological","","","","","","",""
"","","","","","html-keyboard-response","82","200905","0.0-82.0","39F516D2FE80412BABF4A7A0DE1C4580","019cfa76-b7fa-7b70-be24-98e3aa790465","019cfa3a-388e-72ab-ad58-bdeb258f96cd","","null","
                <div class=""stimulus-container"">
                    <img src=""images/causal_sequence/museum_causal/museum_causal_2.png"" class=""exp-image"">
                    <div class=""question-area""></div> 
                </div>","null","","","","","","","","","","","",""
"","","","","","html-button-response","83","201802","0.0-83.0","39F516D2FE80412BABF4A7A0DE1C4580","019cfa76-b7fa-7b70-be24-98e3aa790465","019cfa3a-388e-72ab-ad58-bdeb258f96cd","","896","
                <div class=""stimulus-container"">
                    <img src=""images/causal_sequence/museum_causal/museum_causal_2.png"" class=""exp-image"">
                    <div class=""question-area"">
                        <p style=""font-size: 20px; font-weight: bold; margin: 0;"">Is there a person in this image?</p>
                    </div>
                </div>","1","main_experiment_trial","2","museum_causal","causal_sequence","chronological","","","","","","",""
"","","","","","html-keyboard-response","84","202805","0.0-84.0","39F516D2FE80412BABF4A7A0DE1C4580","019cfa76-b7fa-7b70-be24-98e3aa790465","019cfa3a-388e-72ab-ad58-bdeb258f96cd","","null","
                <div class=""stimulus-container"">
                    <img src=""images/causal_sequence/museum_causal/museum_causal_3.png"" class=""exp-image"">
                    <div class=""question-area""></div> 
                </div>","null","","","","","","","","","","","",""
"","","","","","html-button-response","85","203551","0.0-85.0","39F516D2FE80412BABF4A7A0DE1C4580","019cfa76-b7fa-7b70-be24-98e3aa790465","019cfa3a-388e-72ab-ad58-bdeb258f96cd","","746","
                <div class=""stimulus-container"">
                    <img src=""images/causal_sequence/museum_causal/museum_causal_3.png"" class=""exp-image"">
                    <div class=""question-area"">
                        <p style=""font-size: 20px; font-weight: bold; margin: 0;"">Is there a person in this image?</p>
                    </div>
                </div>","1","main_experiment_trial","3","museum_causal","causal_sequence","chronological","","","","","","",""
"","","","","","html-keyboard-response","86","204554","0.0-86.0","39F516D2FE80412BABF4A7A0DE1C4580","019cfa76-b7fa-7b70-be24-98e3aa790465","019cfa3a-388e-72ab-ad58-bdeb258f96cd","","null","
                <div class=""stimulus-container"">
                    <img src=""images/causal_sequence/museum_causal/museum_causal_4.png"" class=""exp-image"">
                    <div class=""question-area""></div> 
                </div>","null","","","","","","","","","","","",""
"","","","","","html-button-response","87","205435","0.0-87.0","39F516D2FE80412BABF4A7A0DE1C4580","019cfa76-b7fa-7b70-be24-98e3aa790465","019cfa3a-388e-72ab-ad58-bdeb258f96cd","","880","
                <div class=""stimulus-container"">
                    <img src=""images/causal_sequence/museum_causal/museum_causal_4.png"" class=""exp-image"">
                    <div class=""question-area"">
                        <p style=""font-size: 20px; font-weight: bold; margin: 0;"">Is there a person in this image?</p>
                    </div>
                </div>","1","main_experiment_trial","4","museum_causal","causal_sequence","chronological","","","","","","",""
"","","","","","html-keyboard-response","88","206437","0.0-88.0","39F516D2FE80412BABF4A7A0DE1C4580","019cfa76-b7fa-7b70-be24-98e3aa790465","019cfa3a-388e-72ab-ad58-bdeb258f96cd","","null","
                <div class=""stimulus-container"">
                    <img src=""images/causal_sequence/museum_causal/museum_causal_5.png"" class=""exp-image"">
                    <div class=""question-area""></div> 
                </div>","null","","","","","","","","","","","",""
"","","","","","html-button-response","89","208170","0.0-89.0","39F516D2FE80412BABF4A7A0DE1C4580","019cfa76-b7fa-7b70-be24-98e3aa790465","019cfa3a-388e-72ab-ad58-bdeb258f96cd","","1732","
                <div class=""stimulus-container"">
                    <img src=""images/causal_sequence/museum_causal/museum_causal_5.png"" class=""exp-image"">
                    <div class=""question-area"">
                        <p style=""font-size: 20px; font-weight: bold; margin: 0;"">Is there a person in this image?</p>
                    </div>
                </div>","1","main_experiment_trial","5","museum_causal","causal_sequence","chronological","","","","","","",""
"","","","","","html-keyboard-response","90","209172","0.0-90.0","39F516D2FE80412BABF4A7A0DE1C4580","019cfa76-b7fa-7b70-be24-98e3aa790465","019cfa3a-388e-72ab-ad58-bdeb258f96cd","","null","
                <div class=""stimulus-container"">
                    <img src=""images/causal_sequence/museum_causal/museum_causal_6.png"" class=""exp-image"">
                    <div class=""question-area""></div> 
                </div>","null","","","","","","","","","","","",""
"","","","","","html-button-response","91","210003","0.0-91.0","39F516D2FE80412BABF4A7A0DE1C4580","019cfa76-b7fa-7b70-be24-98e3aa790465","019cfa3a-388e-72ab-ad58-bdeb258f96cd","","830","
                <div class=""stimulus-container"">
                    <img src=""images/causal_sequence/museum_causal/museum_causal_6.png"" class=""exp-image"">
                    <div class=""question-area"">
                        <p style=""font-size: 20px; font-weight: bold; margin: 0;"">Is there a person in this image?</p>
                    </div>
                </div>","0","main_experiment_trial","6","museum_causal","causal_sequence","chronological","","","","","","",""
"","","","","","html-keyboard-response","92","211005","0.0-92.0","39F516D2FE80412BABF4A7A0DE1C4580","019cfa76-b7fa-7b70-be24-98e3aa790465","019cfa3a-388e-72ab-ad58-bdeb258f96cd","","null","
                <div class=""stimulus-container"">
                    <img src=""images/causal_sequence/museum_causal/museum_causal_7.png"" class=""exp-image"">
                    <div class=""question-area""></div> 
                </div>","null","","","","","","","","","","","",""
"","","","","","html-button-response","93","211520","0.0-93.0","39F516D2FE80412BABF4A7A0DE1C4580","019cfa76-b7fa-7b70-be24-98e3aa790465","019cfa3a-388e-72ab-ad58-bdeb258f96cd","","513","
                <div class=""stimulus-container"">
                    <img src=""images/causal_sequence/museum_causal/museum_causal_7.png"" class=""exp-image"">
                    <div class=""question-area"">
                        <p style=""font-size: 20px; font-weight: bold; margin: 0;"">Is there a person in this image?</p>
                    </div>
                </div>","1","main_experiment_trial","7","museum_causal","causal_sequence","chronological","","","","","","",""
"","","","","","html-keyboard-response","94","212521","0.0-94.0","39F516D2FE80412BABF4A7A0DE1C4580","019cfa76-b7fa-7b70-be24-98e3aa790465","019cfa3a-388e-72ab-ad58-bdeb258f96cd","","null","
                <div class=""stimulus-container"">
                    <img src=""images/causal_sequence/museum_causal/museum_causal_8.png"" class=""exp-image"">
                    <div class=""question-area""></div> 
                </div>","null","","","","","","","","","","","",""
"","","","","","html-button-response","95","214170","0.0-95.0","39F516D2FE80412BABF4A7A0DE1C4580","019cfa76-b7fa-7b70-be24-98e3aa790465","019cfa3a-388e-72ab-ad58-bdeb258f96cd","","1648","
                <div class=""stimulus-container"">
                    <img src=""images/causal_sequence/museum_causal/museum_causal_8.png"" class=""exp-image"">
                    <div class=""question-area"">
                        <p style=""font-size: 20px; font-weight: bold; margin: 0;"">Is there a person in this image?</p>
                    </div>
                </div>","0","main_experiment_trial","8","museum_causal","causal_sequence","chronological","","","","","","",""
"","","","","","html-keyboard-response","96","215172","0.0-96.0","39F516D2FE80412BABF4A7A0DE1C4580","019cfa76-b7fa-7b70-be24-98e3aa790465","019cfa3a-388e-72ab-ad58-bdeb258f96cd","","null","
                <div class=""stimulus-container"">
                    <img src=""images/causal_sequence/museum_causal/museum_causal_9.png"" class=""exp-image"">
                    <div class=""question-area""></div> 
                </div>","null","","","","","","","","","","","",""
"","","","","","html-button-response","97","215704","0.0-97.0","39F516D2FE80412BABF4A7A0DE1C4580","019cfa76-b7fa-7b70-be24-98e3aa790465","019cfa3a-388e-72ab-ad58-bdeb258f96cd","","531","
                <div class=""stimulus-container"">
                    <img src=""images/causal_sequence/museum_causal/museum_causal_9.png"" class=""exp-image"">
                    <div class=""question-area"">
                        <p style=""font-size: 20px; font-weight: bold; margin: 0;"">Is there a person in this image?</p>
                    </div>
                </div>","1","main_experiment_trial","9","museum_causal","causal_sequence","chronological","","","","","","",""
"","","","","","html-keyboard-response","98","216706","0.0-98.0","39F516D2FE80412BABF4A7A0DE1C4580","019cfa76-b7fa-7b70-be24-98e3aa790465","019cfa3a-388e-72ab-ad58-bdeb258f96cd","","null","
                <div class=""stimulus-container"">
                    <img src=""images/causal_sequence/museum_causal/museum_causal_ten.png"" class=""exp-image"">
                    <div class=""question-area""></div> 
                </div>","null","","","","","","","","","","","",""
"","","","","","html-button-response","99","217204","0.0-99.0","39F516D2FE80412BABF4A7A0DE1C4580","019cfa76-b7fa-7b70-be24-98e3aa790465","019cfa3a-388e-72ab-ad58-bdeb258f96cd","","496","
                <div class=""stimulus-container"">
                    <img src=""images/causal_sequence/museum_causal/museum_causal_ten.png"" class=""exp-image"">
                    <div class=""question-area"">
                        <p style=""font-size: 20px; font-weight: bold; margin: 0;"">Is there a person in this image?</p>
                    </div>
                </div>","0","main_experiment_trial","ten","museum_causal","causal_sequence","chronological","","","","","","",""
"","","","","","html-keyboard-response","100","222207","0.0-100.0","39F516D2FE80412BABF4A7A0DE1C4580","019cfa76-b7fa-7b70-be24-98e3aa790465","019cfa3a-388e-72ab-ad58-bdeb258f96cd","","null","<div style=""background-color: white; width: 100vw; height: 100vh;""></div>","null","","","","","","","","","","","",""
"","","","","","html-keyboard-response","101","223209","0.0-101.0","39F516D2FE80412BABF4A7A0DE1C4580","019cfa76-b7fa-7b70-be24-98e3aa790465","019cfa3a-388e-72ab-ad58-bdeb258f96cd","","null","
                <div class=""stimulus-container"">
                    <img src=""images/semantic_sequence/creative_activities_semantic/creative_activities_semantic_1.png"" class=""exp-image"">
                    <div class=""question-area""></div> 
                </div>","null","","","","","","","","","","","",""
"","","","","","html-button-response","102","224321","0.0-102.0","39F516D2FE80412BABF4A7A0DE1C4580","019cfa76-b7fa-7b70-be24-98e3aa790465","019cfa3a-388e-72ab-ad58-bdeb258f96cd","","1112","
                <div class=""stimulus-container"">
                    <img src=""images/semantic_sequence/creative_activities_semantic/creative_activities_semantic_1.png"" class=""exp-image"">
                    <div class=""question-area"">
                        <p style=""font-size: 20px; font-weight: bold; margin: 0;"">Is there a person in this image?</p>
                    </div>
                </div>","0","main_experiment_trial","1","creative_activities_semantic","semantic_sequence","chronological","","","","","","",""
"","","","","","html-keyboard-response","103","225324","0.0-103.0","39F516D2FE80412BABF4A7A0DE1C4580","019cfa76-b7fa-7b70-be24-98e3aa790465","019cfa3a-388e-72ab-ad58-bdeb258f96cd","","null","
                <div class=""stimulus-container"">
                    <img src=""images/semantic_sequence/creative_activities_semantic/creative_activities_semantic_2.png"" class=""exp-image"">
                    <div class=""question-area""></div> 
                </div>","null","","","","","","","","","","","",""
"","","","","","html-button-response","104","225737","0.0-104.0","39F516D2FE80412BABF4A7A0DE1C4580","019cfa76-b7fa-7b70-be24-98e3aa790465","019cfa3a-388e-72ab-ad58-bdeb258f96cd","","412","
                <div class=""stimulus-container"">
                    <img src=""images/semantic_sequence/creative_activities_semantic/creative_activities_semantic_2.png"" class=""exp-image"">
                    <div class=""question-area"">
                        <p style=""font-size: 20px; font-weight: bold; margin: 0;"">Is there a person in this image?</p>
                    </div>
                </div>","0","main_experiment_trial","2","creative_activities_semantic","semantic_sequence","chronological","","","","","","",""
"","","","","","html-keyboard-response","105","226739","0.0-105.0","39F516D2FE80412BABF4A7A0DE1C4580","019cfa76-b7fa-7b70-be24-98e3aa790465","019cfa3a-388e-72ab-ad58-bdeb258f96cd","","null","
                <div class=""stimulus-container"">
                    <img src=""images/semantic_sequence/creative_activities_semantic/creative_activities_semantic_3.png"" class=""exp-image"">
                    <div class=""question-area""></div> 
                </div>","null","","","","","","","","","","","",""
"","","","","","html-button-response","106","227188","0.0-106.0","39F516D2FE80412BABF4A7A0DE1C4580","019cfa76-b7fa-7b70-be24-98e3aa790465","019cfa3a-388e-72ab-ad58-bdeb258f96cd","","448","
                <div class=""stimulus-container"">
                    <img src=""images/semantic_sequence/creative_activities_semantic/creative_activities_semantic_3.png"" class=""exp-image"">
                    <div class=""question-area"">
                        <p style=""font-size: 20px; font-weight: bold; margin: 0;"">Is there a person in this image?</p>
                    </div>
                </div>","0","main_experiment_trial","3","creative_activities_semantic","semantic_sequence","chronological","","","","","","",""
"","","","","","html-keyboard-response","107","228191","0.0-107.0","39F516D2FE80412BABF4A7A0DE1C4580","019cfa76-b7fa-7b70-be24-98e3aa790465","019cfa3a-388e-72ab-ad58-bdeb258f96cd","","null","
                <div class=""stimulus-container"">
                    <img src=""images/semantic_sequence/creative_activities_semantic/creative_activities_semantic_4.png"" class=""exp-image"">
                    <div class=""question-area""></div> 
                </div>","null","","","","","","","","","","","",""
"","","","","","html-button-response","108","228639","0.0-108.0","39F516D2FE80412BABF4A7A0DE1C4580","019cfa76-b7fa-7b70-be24-98e3aa790465","019cfa3a-388e-72ab-ad58-bdeb258f96cd","","447","
                <div class=""stimulus-container"">
                    <img src=""images/semantic_sequence/creative_activities_semantic/creative_activities_semantic_4.png"" class=""exp-image"">
                    <div class=""question-area"">
                        <p style=""font-size: 20px; font-weight: bold; margin: 0;"">Is there a person in this image?</p>
                    </div>
                </div>","0","main_experiment_trial","4","creative_activities_semantic","semantic_sequence","chronological","","","","","","",""
"","","","","","html-keyboard-response","109","229641","0.0-109.0","39F516D2FE80412BABF4A7A0DE1C4580","019cfa76-b7fa-7b70-be24-98e3aa790465","019cfa3a-388e-72ab-ad58-bdeb258f96cd","","null","
                <div class=""stimulus-container"">
                    <img src=""images/semantic_sequence/creative_activities_semantic/creative_activities_semantic_5.png"" class=""exp-image"">
                    <div class=""question-area""></div> 
                </div>","null","","","","","","","","","","","",""
"","","","","","html-button-response","110","230089","0.0-110.0","39F516D2FE80412BABF4A7A0DE1C4580","019cfa76-b7fa-7b70-be24-98e3aa790465","019cfa3a-388e-72ab-ad58-bdeb258f96cd","","446","
                <div class=""stimulus-container"">
                    <img src=""images/semantic_sequence/creative_activities_semantic/creative_activities_semantic_5.png"" class=""exp-image"">
                    <div class=""question-area"">
                        <p style=""font-size: 20px; font-weight: bold; margin: 0;"">Is there a person in this image?</p>
                    </div>
                </div>","0","main_experiment_trial","5","creative_activities_semantic","semantic_sequence","chronological","","","","","","",""
"","","","","","html-keyboard-response","111","231091","0.0-111.0","39F516D2FE80412BABF4A7A0DE1C4580","019cfa76-b7fa-7b70-be24-98e3aa790465","019cfa3a-388e-72ab-ad58-bdeb258f96cd","","null","
                <div class=""stimulus-container"">
                    <img src=""images/semantic_sequence/creative_activities_semantic/creative_activities_semantic_6.png"" class=""exp-image"">
                    <div class=""question-area""></div> 
                </div>","null","","","","","","","","","","","",""
"","","","","","html-button-response","112","231689","0.0-112.0","39F516D2FE80412BABF4A7A0DE1C4580","019cfa76-b7fa-7b70-be24-98e3aa790465","019cfa3a-388e-72ab-ad58-bdeb258f96cd","","596","
                <div class=""stimulus-container"">
                    <img src=""images/semantic_sequence/creative_activities_semantic/creative_activities_semantic_6.png"" class=""exp-image"">
                    <div class=""question-area"">
                        <p style=""font-size: 20px; font-weight: bold; margin: 0;"">Is there a person in this image?</p>
                    </div>
                </div>","0","main_experiment_trial","6","creative_activities_semantic","semantic_sequence","chronological","","","","","","",""
"","","","","","html-keyboard-response","113","232692","0.0-113.0","39F516D2FE80412BABF4A7A0DE1C4580","019cfa76-b7fa-7b70-be24-98e3aa790465","019cfa3a-388e-72ab-ad58-bdeb258f96cd","","null","
                <div class=""stimulus-container"">
                    <img src=""images/semantic_sequence/creative_activities_semantic/creative_activities_semantic_7.png"" class=""exp-image"">
                    <div class=""question-area""></div> 
                </div>","null","","","","","","","","","","","",""
"","","","","","html-button-response","114","233138","0.0-114.0","39F516D2FE80412BABF4A7A0DE1C4580","019cfa76-b7fa-7b70-be24-98e3aa790465","019cfa3a-388e-72ab-ad58-bdeb258f96cd","","446","
                <div class=""stimulus-container"">
                    <img src=""images/semantic_sequence/creative_activities_semantic/creative_activities_semantic_7.png"" class=""exp-image"">
                    <div class=""question-area"">
                        <p style=""font-size: 20px; font-weight: bold; margin: 0;"">Is there a person in this image?</p>
                    </div>
                </div>","0","main_experiment_trial","7","creative_activities_semantic","semantic_sequence","chronological","","","","","","",""
"","","","","","html-keyboard-response","115","234141","0.0-115.0","39F516D2FE80412BABF4A7A0DE1C4580","019cfa76-b7fa-7b70-be24-98e3aa790465","019cfa3a-388e-72ab-ad58-bdeb258f96cd","","null","
                <div class=""stimulus-container"">
                    <img src=""images/semantic_sequence/creative_activities_semantic/creative_activities_semantic_8.png"" class=""exp-image"">
                    <div class=""question-area""></div> 
                </div>","null","","","","","","","","","","","",""
"","","","","","html-button-response","116","234706","0.0-116.0","39F516D2FE80412BABF4A7A0DE1C4580","019cfa76-b7fa-7b70-be24-98e3aa790465","019cfa3a-388e-72ab-ad58-bdeb258f96cd","","564","
                <div class=""stimulus-container"">
                    <img src=""images/semantic_sequence/creative_activities_semantic/creative_activities_semantic_8.png"" class=""exp-image"">
                    <div class=""question-area"">
                        <p style=""font-size: 20px; font-weight: bold; margin: 0;"">Is there a person in this image?</p>
                    </div>
                </div>","0","main_experiment_trial","8","creative_activities_semantic","semantic_sequence","chronological","","","","","","",""
"","","","","","html-keyboard-response","117","235707","0.0-117.0","39F516D2FE80412BABF4A7A0DE1C4580","019cfa76-b7fa-7b70-be24-98e3aa790465","019cfa3a-388e-72ab-ad58-bdeb258f96cd","","null","
                <div class=""stimulus-container"">
                    <img src=""images/semantic_sequence/creative_activities_semantic/creative_activities_semantic_9.png"" class=""exp-image"">
                    <div class=""question-area""></div> 
                </div>","null","","","","","","","","","","","",""
"","","","","","html-button-response","118","236623","0.0-118.0","39F516D2FE80412BABF4A7A0DE1C4580","019cfa76-b7fa-7b70-be24-98e3aa790465","019cfa3a-388e-72ab-ad58-bdeb258f96cd","","915","
                <div class=""stimulus-container"">
                    <img src=""images/semantic_sequence/creative_activities_semantic/creative_activities_semantic_9.png"" class=""exp-image"">
                    <div class=""question-area"">
                        <p style=""font-size: 20px; font-weight: bold; margin: 0;"">Is there a person in this image?</p>
                    </div>
                </div>","1","main_experiment_trial","9","creative_activities_semantic","semantic_sequence","chronological","","","","","","",""
"","","","","","html-keyboard-response","119","237624","0.0-119.0","39F516D2FE80412BABF4A7A0DE1C4580","019cfa76-b7fa-7b70-be24-98e3aa790465","019cfa3a-388e-72ab-ad58-bdeb258f96cd","","null","
                <div class=""stimulus-container"">
                    <img src=""images/semantic_sequence/creative_activities_semantic/creative_activities_semantic_ten.png"" class=""exp-image"">
                    <div class=""question-area""></div> 
                </div>","null","","","","","","","","","","","",""
"","","","","","html-button-response","120","238189","0.0-120.0","39F516D2FE80412BABF4A7A0DE1C4580","019cfa76-b7fa-7b70-be24-98e3aa790465","019cfa3a-388e-72ab-ad58-bdeb258f96cd","","564","
                <div class=""stimulus-container"">
                    <img src=""images/semantic_sequence/creative_activities_semantic/creative_activities_semantic_ten.png"" class=""exp-image"">
                    <div class=""question-area"">
                        <p style=""font-size: 20px; font-weight: bold; margin: 0;"">Is there a person in this image?</p>
                    </div>
                </div>","0","main_experiment_trial","ten","creative_activities_semantic","semantic_sequence","chronological","","","","","","",""
"","","","","","html-keyboard-response","121","243191","0.0-121.0","39F516D2FE80412BABF4A7A0DE1C4580","019cfa76-b7fa-7b70-be24-98e3aa790465","019cfa3a-388e-72ab-ad58-bdeb258f96cd","","null","<div style=""background-color: white; width: 100vw; height: 100vh;""></div>","null","","","","","","","","","","","",""
"","","","","","html-keyboard-response","122","244192","0.0-122.0","39F516D2FE80412BABF4A7A0DE1C4580","019cfa76-b7fa-7b70-be24-98e3aa790465","019cfa3a-388e-72ab-ad58-bdeb258f96cd","","null","
                <div class=""stimulus-container"">
                    <img src=""images/causal_sequence/saving_a_cat_causal/saving_a_cat_causal_1.png"" class=""exp-image"">
                    <div class=""question-area""></div> 
                </div>","null","","","","","","","","","","","",""
"","","","","","html-button-response","123","244823","0.0-123.0","39F516D2FE80412BABF4A7A0DE1C4580","019cfa76-b7fa-7b70-be24-98e3aa790465","019cfa3a-388e-72ab-ad58-bdeb258f96cd","","630","
                <div class=""stimulus-container"">
                    <img src=""images/causal_sequence/saving_a_cat_causal/saving_a_cat_causal_1.png"" class=""exp-image"">
                    <div class=""question-area"">
                        <p style=""font-size: 20px; font-weight: bold; margin: 0;"">Is there a person in this image?</p>
                    </div>
                </div>","0","main_experiment_trial","1","saving_a_cat_causal","causal_sequence","chronological","","","","","","",""
"","","","","","html-keyboard-response","124","245825","0.0-124.0","39F516D2FE80412BABF4A7A0DE1C4580","019cfa76-b7fa-7b70-be24-98e3aa790465","019cfa3a-388e-72ab-ad58-bdeb258f96cd","","null","
                <div class=""stimulus-container"">
                    <img src=""images/causal_sequence/saving_a_cat_causal/saving_a_cat_causal_2.png"" class=""exp-image"">
                    <div class=""question-area""></div> 
                </div>","null","","","","","","","","","","","",""
"","","","","","html-button-response","125","246924","0.0-125.0","39F516D2FE80412BABF4A7A0DE1C4580","019cfa76-b7fa-7b70-be24-98e3aa790465","019cfa3a-388e-72ab-ad58-bdeb258f96cd","","1098","
                <div class=""stimulus-container"">
                    <img src=""images/causal_sequence/saving_a_cat_causal/saving_a_cat_causal_2.png"" class=""exp-image"">
                    <div class=""question-area"">
                        <p style=""font-size: 20px; font-weight: bold; margin: 0;"">Is there a person in this image?</p>
                    </div>
                </div>","1","main_experiment_trial","2","saving_a_cat_causal","causal_sequence","chronological","","","","","","",""
"","","","","","html-keyboard-response","126","247927","0.0-126.0","39F516D2FE80412BABF4A7A0DE1C4580","019cfa76-b7fa-7b70-be24-98e3aa790465","019cfa3a-388e-72ab-ad58-bdeb258f96cd","","null","
                <div class=""stimulus-container"">
                    <img src=""images/causal_sequence/saving_a_cat_causal/saving_a_cat_causal_3.png"" class=""exp-image"">
                    <div class=""question-area""></div> 
                </div>","null","","","","","","","","","","","",""
"","","","","","html-button-response","127","248374","0.0-127.0","39F516D2FE80412BABF4A7A0DE1C4580","019cfa76-b7fa-7b70-be24-98e3aa790465","019cfa3a-388e-72ab-ad58-bdeb258f96cd","","446","
                <div class=""stimulus-container"">
                    <img src=""images/causal_sequence/saving_a_cat_causal/saving_a_cat_causal_3.png"" class=""exp-image"">
                    <div class=""question-area"">
                        <p style=""font-size: 20px; font-weight: bold; margin: 0;"">Is there a person in this image?</p>
                    </div>
                </div>","1","main_experiment_trial","3","saving_a_cat_causal","causal_sequence","chronological","","","","","","",""
"","","","","","html-keyboard-response","128","249377","0.0-128.0","39F516D2FE80412BABF4A7A0DE1C4580","019cfa76-b7fa-7b70-be24-98e3aa790465","019cfa3a-388e-72ab-ad58-bdeb258f96cd","","null","
                <div class=""stimulus-container"">
                    <img src=""images/causal_sequence/saving_a_cat_causal/saving_a_cat_causal_4.png"" class=""exp-image"">
                    <div class=""question-area""></div> 
                </div>","null","","","","","","","","","","","",""
"","","","","","html-button-response","129","250041","0.0-129.0","39F516D2FE80412BABF4A7A0DE1C4580","019cfa76-b7fa-7b70-be24-98e3aa790465","019cfa3a-388e-72ab-ad58-bdeb258f96cd","","663","
                <div class=""stimulus-container"">
                    <img src=""images/causal_sequence/saving_a_cat_causal/saving_a_cat_causal_4.png"" class=""exp-image"">
                    <div class=""question-area"">
                        <p style=""font-size: 20px; font-weight: bold; margin: 0;"">Is there a person in this image?</p>
                    </div>
                </div>","0","main_experiment_trial","4","saving_a_cat_causal","causal_sequence","chronological","","","","","","",""
"","","","","","html-keyboard-response","130","251044","0.0-130.0","39F516D2FE80412BABF4A7A0DE1C4580","019cfa76-b7fa-7b70-be24-98e3aa790465","019cfa3a-388e-72ab-ad58-bdeb258f96cd","","null","
                <div class=""stimulus-container"">
                    <img src=""images/causal_sequence/saving_a_cat_causal/saving_a_cat_causal_5.png"" class=""exp-image"">
                    <div class=""question-area""></div> 
                </div>","null","","","","","","","","","","","",""
"","","","","","html-button-response","131","251557","0.0-131.0","39F516D2FE80412BABF4A7A0DE1C4580","019cfa76-b7fa-7b70-be24-98e3aa790465","019cfa3a-388e-72ab-ad58-bdeb258f96cd","","513","
                <div class=""stimulus-container"">
                    <img src=""images/causal_sequence/saving_a_cat_causal/saving_a_cat_causal_5.png"" class=""exp-image"">
                    <div class=""question-area"">
                        <p style=""font-size: 20px; font-weight: bold; margin: 0;"">Is there a person in this image?</p>
                    </div>
                </div>","0","main_experiment_trial","5","saving_a_cat_causal","causal_sequence","chronological","","","","","","",""
"","","","","","html-keyboard-response","132","252560","0.0-132.0","39F516D2FE80412BABF4A7A0DE1C4580","019cfa76-b7fa-7b70-be24-98e3aa790465","019cfa3a-388e-72ab-ad58-bdeb258f96cd","","null","
                <div class=""stimulus-container"">
                    <img src=""images/causal_sequence/saving_a_cat_causal/saving_a_cat_causal_6.png"" class=""exp-image"">
                    <div class=""question-area""></div> 
                </div>","null","","","","","","","","","","","",""
"","","","","","html-button-response","133","253557","0.0-133.0","39F516D2FE80412BABF4A7A0DE1C4580","019cfa76-b7fa-7b70-be24-98e3aa790465","019cfa3a-388e-72ab-ad58-bdeb258f96cd","","996","
                <div class=""stimulus-container"">
                    <img src=""images/causal_sequence/saving_a_cat_causal/saving_a_cat_causal_6.png"" class=""exp-image"">
                    <div class=""question-area"">
                        <p style=""font-size: 20px; font-weight: bold; margin: 0;"">Is there a person in this image?</p>
                    </div>
                </div>","0","main_experiment_trial","6","saving_a_cat_causal","causal_sequence","chronological","","","","","","",""
"","","","","","html-keyboard-response","134","254560","0.0-134.0","39F516D2FE80412BABF4A7A0DE1C4580","019cfa76-b7fa-7b70-be24-98e3aa790465","019cfa3a-388e-72ab-ad58-bdeb258f96cd","","null","
                <div class=""stimulus-container"">
                    <img src=""images/causal_sequence/saving_a_cat_causal/saving_a_cat_causal_7.png"" class=""exp-image"">
                    <div class=""question-area""></div> 
                </div>","null","","","","","","","","","","","",""
"","","","","","html-button-response","135","255158","0.0-135.0","39F516D2FE80412BABF4A7A0DE1C4580","019cfa76-b7fa-7b70-be24-98e3aa790465","019cfa3a-388e-72ab-ad58-bdeb258f96cd","","597","
                <div class=""stimulus-container"">
                    <img src=""images/causal_sequence/saving_a_cat_causal/saving_a_cat_causal_7.png"" class=""exp-image"">
                    <div class=""question-area"">
                        <p style=""font-size: 20px; font-weight: bold; margin: 0;"">Is there a person in this image?</p>
                    </div>
                </div>","0","main_experiment_trial","7","saving_a_cat_causal","causal_sequence","chronological","","","","","","",""
"","","","","","html-keyboard-response","136","256160","0.0-136.0","39F516D2FE80412BABF4A7A0DE1C4580","019cfa76-b7fa-7b70-be24-98e3aa790465","019cfa3a-388e-72ab-ad58-bdeb258f96cd","","null","
                <div class=""stimulus-container"">
                    <img src=""images/causal_sequence/saving_a_cat_causal/saving_a_cat_causal_8.png"" class=""exp-image"">
                    <div class=""question-area""></div> 
                </div>","null","","","","","","","","","","","",""
"","","","","","html-button-response","137","256657","0.0-137.0","39F516D2FE80412BABF4A7A0DE1C4580","019cfa76-b7fa-7b70-be24-98e3aa790465","019cfa3a-388e-72ab-ad58-bdeb258f96cd","","497","
                <div class=""stimulus-container"">
                    <img src=""images/causal_sequence/saving_a_cat_causal/saving_a_cat_causal_8.png"" class=""exp-image"">
                    <div class=""question-area"">
                        <p style=""font-size: 20px; font-weight: bold; margin: 0;"">Is there a person in this image?</p>
                    </div>
                </div>","0","main_experiment_trial","8","saving_a_cat_causal","causal_sequence","chronological","","","","","","",""
"","","","","","html-keyboard-response","138","257659","0.0-138.0","39F516D2FE80412BABF4A7A0DE1C4580","019cfa76-b7fa-7b70-be24-98e3aa790465","019cfa3a-388e-72ab-ad58-bdeb258f96cd","","null","
                <div class=""stimulus-container"">
                    <img src=""images/causal_sequence/saving_a_cat_causal/saving_a_cat_causal_9.png"" class=""exp-image"">
                    <div class=""question-area""></div> 
                </div>","null","","","","","","","","","","","",""
"","","","","","html-button-response","139","258158","0.0-139.0","39F516D2FE80412BABF4A7A0DE1C4580","019cfa76-b7fa-7b70-be24-98e3aa790465","019cfa3a-388e-72ab-ad58-bdeb258f96cd","","498","
                <div class=""stimulus-container"">
                    <img src=""images/causal_sequence/saving_a_cat_causal/saving_a_cat_causal_9.png"" class=""exp-image"">
                    <div class=""question-area"">
                        <p style=""font-size: 20px; font-weight: bold; margin: 0;"">Is there a person in this image?</p>
                    </div>
                </div>","0","main_experiment_trial","9","saving_a_cat_causal","causal_sequence","chronological","","","","","","",""
"","","","","","html-keyboard-response","140","259160","0.0-140.0","39F516D2FE80412BABF4A7A0DE1C4580","019cfa76-b7fa-7b70-be24-98e3aa790465","019cfa3a-388e-72ab-ad58-bdeb258f96cd","","null","
                <div class=""stimulus-container"">
                    <img src=""images/causal_sequence/saving_a_cat_causal/saving_a_cat_causal_ten.png"" class=""exp-image"">
                    <div class=""question-area""></div> 
                </div>","null","","","","","","","","","","","",""
"","","","","","html-button-response","141","259591","0.0-141.0","39F516D2FE80412BABF4A7A0DE1C4580","019cfa76-b7fa-7b70-be24-98e3aa790465","019cfa3a-388e-72ab-ad58-bdeb258f96cd","","430","
                <div class=""stimulus-container"">
                    <img src=""images/causal_sequence/saving_a_cat_causal/saving_a_cat_causal_ten.png"" class=""exp-image"">
                    <div class=""question-area"">
                        <p style=""font-size: 20px; font-weight: bold; margin: 0;"">Is there a person in this image?</p>
                    </div>
                </div>","0","main_experiment_trial","ten","saving_a_cat_causal","causal_sequence","chronological","","","","","","",""
"","","","","","html-keyboard-response","142","264594","0.0-142.0","39F516D2FE80412BABF4A7A0DE1C4580","019cfa76-b7fa-7b70-be24-98e3aa790465","019cfa3a-388e-72ab-ad58-bdeb258f96cd","","null","<div style=""background-color: white; width: 100vw; height: 100vh;""></div>","null","","","","","","","","","","","",""
"","","","","","html-keyboard-response","143","265595","0.0-143.0","39F516D2FE80412BABF4A7A0DE1C4580","019cfa76-b7fa-7b70-be24-98e3aa790465","019cfa3a-388e-72ab-ad58-bdeb258f96cd","","null","
                <div class=""stimulus-container"">
                    <img src=""images/semantic_sequence/market_semantic/market_semantic_1.png"" class=""exp-image"">
                    <div class=""question-area""></div> 
                </div>","null","","","","","","","","","","","",""
"","","","","","html-button-response","144","267742","0.0-144.0","39F516D2FE80412BABF4A7A0DE1C4580","019cfa76-b7fa-7b70-be24-98e3aa790465","019cfa3a-388e-72ab-ad58-bdeb258f96cd","","2146","
                <div class=""stimulus-container"">
                    <img src=""images/semantic_sequence/market_semantic/market_semantic_1.png"" class=""exp-image"">
                    <div class=""question-area"">
                        <p style=""font-size: 20px; font-weight: bold; margin: 0;"">Is there a person in this image?</p>
                    </div>
                </div>","1","main_experiment_trial","1","market_semantic","semantic_sequence","chronological","","","","","","",""
"","","","","","html-keyboard-response","145","268745","0.0-145.0","39F516D2FE80412BABF4A7A0DE1C4580","019cfa76-b7fa-7b70-be24-98e3aa790465","019cfa3a-388e-72ab-ad58-bdeb258f96cd","","null","
                <div class=""stimulus-container"">
                    <img src=""images/semantic_sequence/market_semantic/market_semantic_2.png"" class=""exp-image"">
                    <div class=""question-area""></div> 
                </div>","null","","","","","","","","","","","",""
"","","","","","html-button-response","146","269276","0.0-146.0","39F516D2FE80412BABF4A7A0DE1C4580","019cfa76-b7fa-7b70-be24-98e3aa790465","019cfa3a-388e-72ab-ad58-bdeb258f96cd","","530","
                <div class=""stimulus-container"">
                    <img src=""images/semantic_sequence/market_semantic/market_semantic_2.png"" class=""exp-image"">
                    <div class=""question-area"">
                        <p style=""font-size: 20px; font-weight: bold; margin: 0;"">Is there a person in this image?</p>
                    </div>
                </div>","1","main_experiment_trial","2","market_semantic","semantic_sequence","chronological","","","","","","",""
"","","","","","html-keyboard-response","147","270278","0.0-147.0","39F516D2FE80412BABF4A7A0DE1C4580","019cfa76-b7fa-7b70-be24-98e3aa790465","019cfa3a-388e-72ab-ad58-bdeb258f96cd","","null","
                <div class=""stimulus-container"">
                    <img src=""images/semantic_sequence/market_semantic/market_semantic_3.png"" class=""exp-image"">
                    <div class=""question-area""></div> 
                </div>","null","","","","","","","","","","","",""
"","","","","","html-button-response","148","271476","0.0-148.0","39F516D2FE80412BABF4A7A0DE1C4580","019cfa76-b7fa-7b70-be24-98e3aa790465","019cfa3a-388e-72ab-ad58-bdeb258f96cd","","1196","
                <div class=""stimulus-container"">
                    <img src=""images/semantic_sequence/market_semantic/market_semantic_3.png"" class=""exp-image"">
                    <div class=""question-area"">
                        <p style=""font-size: 20px; font-weight: bold; margin: 0;"">Is there a person in this image?</p>
                    </div>
                </div>","1","main_experiment_trial","3","market_semantic","semantic_sequence","chronological","","","","","","",""
"","","","","","html-keyboard-response","149","272477","0.0-149.0","39F516D2FE80412BABF4A7A0DE1C4580","019cfa76-b7fa-7b70-be24-98e3aa790465","019cfa3a-388e-72ab-ad58-bdeb258f96cd","","null","
                <div class=""stimulus-container"">
                    <img src=""images/semantic_sequence/market_semantic/market_semantic_4.png"" class=""exp-image"">
                    <div class=""question-area""></div> 
                </div>","null","","","","","","","","","","","",""
"","","","","","html-button-response","150","273093","0.0-150.0","39F516D2FE80412BABF4A7A0DE1C4580","019cfa76-b7fa-7b70-be24-98e3aa790465","019cfa3a-388e-72ab-ad58-bdeb258f96cd","","616","
                <div class=""stimulus-container"">
                    <img src=""images/semantic_sequence/market_semantic/market_semantic_4.png"" class=""exp-image"">
                    <div class=""question-area"">
                        <p style=""font-size: 20px; font-weight: bold; margin: 0;"">Is there a person in this image?</p>
                    </div>
                </div>","0","main_experiment_trial","4","market_semantic","semantic_sequence","chronological","","","","","","",""
"","","","","","html-keyboard-response","151","274096","0.0-151.0","39F516D2FE80412BABF4A7A0DE1C4580","019cfa76-b7fa-7b70-be24-98e3aa790465","019cfa3a-388e-72ab-ad58-bdeb258f96cd","","null","
                <div class=""stimulus-container"">
                    <img src=""images/semantic_sequence/market_semantic/market_semantic_5.png"" class=""exp-image"">
                    <div class=""question-area""></div> 
                </div>","null","","","","","","","","","","","",""
"","","","","","html-button-response","152","275543","0.0-152.0","39F516D2FE80412BABF4A7A0DE1C4580","019cfa76-b7fa-7b70-be24-98e3aa790465","019cfa3a-388e-72ab-ad58-bdeb258f96cd","","1446","
                <div class=""stimulus-container"">
                    <img src=""images/semantic_sequence/market_semantic/market_semantic_5.png"" class=""exp-image"">
                    <div class=""question-area"">
                        <p style=""font-size: 20px; font-weight: bold; margin: 0;"">Is there a person in this image?</p>
                    </div>
                </div>","1","main_experiment_trial","5","market_semantic","semantic_sequence","chronological","","","","","","",""
"","","","","","html-keyboard-response","153","276545","0.0-153.0","39F516D2FE80412BABF4A7A0DE1C4580","019cfa76-b7fa-7b70-be24-98e3aa790465","019cfa3a-388e-72ab-ad58-bdeb258f96cd","","null","
                <div class=""stimulus-container"">
                    <img src=""images/semantic_sequence/market_semantic/market_semantic_6.png"" class=""exp-image"">
                    <div class=""question-area""></div> 
                </div>","null","","","","","","","","","","","",""
"","","","","","html-button-response","154","277144","0.0-154.0","39F516D2FE80412BABF4A7A0DE1C4580","019cfa76-b7fa-7b70-be24-98e3aa790465","019cfa3a-388e-72ab-ad58-bdeb258f96cd","","597","
                <div class=""stimulus-container"">
                    <img src=""images/semantic_sequence/market_semantic/market_semantic_6.png"" class=""exp-image"">
                    <div class=""question-area"">
                        <p style=""font-size: 20px; font-weight: bold; margin: 0;"">Is there a person in this image?</p>
                    </div>
                </div>","1","main_experiment_trial","6","market_semantic","semantic_sequence","chronological","","","","","","",""
"","","","","","html-keyboard-response","155","278145","0.0-155.0","39F516D2FE80412BABF4A7A0DE1C4580","019cfa76-b7fa-7b70-be24-98e3aa790465","019cfa3a-388e-72ab-ad58-bdeb258f96cd","","null","
                <div class=""stimulus-container"">
                    <img src=""images/semantic_sequence/market_semantic/market_semantic_7.png"" class=""exp-image"">
                    <div class=""question-area""></div> 
                </div>","null","","","","","","","","","","","",""
"","","","","","html-button-response","156","278660","0.0-156.0","39F516D2FE80412BABF4A7A0DE1C4580","019cfa76-b7fa-7b70-be24-98e3aa790465","019cfa3a-388e-72ab-ad58-bdeb258f96cd","","514","
                <div class=""stimulus-container"">
                    <img src=""images/semantic_sequence/market_semantic/market_semantic_7.png"" class=""exp-image"">
                    <div class=""question-area"">
                        <p style=""font-size: 20px; font-weight: bold; margin: 0;"">Is there a person in this image?</p>
                    </div>
                </div>","0","main_experiment_trial","7","market_semantic","semantic_sequence","chronological","","","","","","",""
"","","","","","html-keyboard-response","157","279663","0.0-157.0","39F516D2FE80412BABF4A7A0DE1C4580","019cfa76-b7fa-7b70-be24-98e3aa790465","019cfa3a-388e-72ab-ad58-bdeb258f96cd","","null","
                <div class=""stimulus-container"">
                    <img src=""images/semantic_sequence/market_semantic/market_semantic_8.png"" class=""exp-image"">
                    <div class=""question-area""></div> 
                </div>","null","","","","","","","","","","","",""
"","","","","","html-button-response","158","280893","0.0-158.0","39F516D2FE80412BABF4A7A0DE1C4580","019cfa76-b7fa-7b70-be24-98e3aa790465","019cfa3a-388e-72ab-ad58-bdeb258f96cd","","1229","
                <div class=""stimulus-container"">
                    <img src=""images/semantic_sequence/market_semantic/market_semantic_8.png"" class=""exp-image"">
                    <div class=""question-area"">
                        <p style=""font-size: 20px; font-weight: bold; margin: 0;"">Is there a person in this image?</p>
                    </div>
                </div>","1","main_experiment_trial","8","market_semantic","semantic_sequence","chronological","","","","","","",""
"","","","","","html-keyboard-response","159","281896","0.0-159.0","39F516D2FE80412BABF4A7A0DE1C4580","019cfa76-b7fa-7b70-be24-98e3aa790465","019cfa3a-388e-72ab-ad58-bdeb258f96cd","","null","
                <div class=""stimulus-container"">
                    <img src=""images/semantic_sequence/market_semantic/market_semantic_9.png"" class=""exp-image"">
                    <div class=""question-area""></div> 
                </div>","null","","","","","","","","","","","",""
"","","","","","html-button-response","160","282327","0.0-160.0","39F516D2FE80412BABF4A7A0DE1C4580","019cfa76-b7fa-7b70-be24-98e3aa790465","019cfa3a-388e-72ab-ad58-bdeb258f96cd","","430","
                <div class=""stimulus-container"">
                    <img src=""images/semantic_sequence/market_semantic/market_semantic_9.png"" class=""exp-image"">
                    <div class=""question-area"">
                        <p style=""font-size: 20px; font-weight: bold; margin: 0;"">Is there a person in this image?</p>
                    </div>
                </div>","1","main_experiment_trial","9","market_semantic","semantic_sequence","chronological","","","","","","",""
"","","","","","html-keyboard-response","161","283329","0.0-161.0","39F516D2FE80412BABF4A7A0DE1C4580","019cfa76-b7fa-7b70-be24-98e3aa790465","019cfa3a-388e-72ab-ad58-bdeb258f96cd","","null","
                <div class=""stimulus-container"">
                    <img src=""images/semantic_sequence/market_semantic/market_semantic_ten.png"" class=""exp-image"">
                    <div class=""question-area""></div> 
                </div>","null","","","","","","","","","","","",""
"","","","","","html-button-response","162","283811","0.0-162.0","39F516D2FE80412BABF4A7A0DE1C4580","019cfa76-b7fa-7b70-be24-98e3aa790465","019cfa3a-388e-72ab-ad58-bdeb258f96cd","","481","
                <div class=""stimulus-container"">
                    <img src=""images/semantic_sequence/market_semantic/market_semantic_ten.png"" class=""exp-image"">
                    <div class=""question-area"">
                        <p style=""font-size: 20px; font-weight: bold; margin: 0;"">Is there a person in this image?</p>
                    </div>
                </div>","1","main_experiment_trial","ten","market_semantic","semantic_sequence","chronological","","","","","","",""
"","","","","","html-keyboard-response","163","288813","0.0-163.0","39F516D2FE80412BABF4A7A0DE1C4580","019cfa76-b7fa-7b70-be24-98e3aa790465","019cfa3a-388e-72ab-ad58-bdeb258f96cd","","null","<div style=""background-color: white; width: 100vw; height: 100vh;""></div>","null","","","","","","","","","","","",""
"","","","","","html-keyboard-response","164","289816","0.0-164.0","39F516D2FE80412BABF4A7A0DE1C4580","019cfa76-b7fa-7b70-be24-98e3aa790465","019cfa3a-388e-72ab-ad58-bdeb258f96cd","","null","
                <div class=""stimulus-container"">
                    <img src=""images/semantic_sequence/exploring_nature_semantic/exploring_nature_semantic_1.png"" class=""exp-image"">
                    <div class=""question-area""></div> 
                </div>","null","","","","","","","","","","","",""
"","","","","","html-button-response","165","291545","0.0-165.0","39F516D2FE80412BABF4A7A0DE1C4580","019cfa76-b7fa-7b70-be24-98e3aa790465","019cfa3a-388e-72ab-ad58-bdeb258f96cd","","1728","
                <div class=""stimulus-container"">
                    <img src=""images/semantic_sequence/exploring_nature_semantic/exploring_nature_semantic_1.png"" class=""exp-image"">
                    <div class=""question-area"">
                        <p style=""font-size: 20px; font-weight: bold; margin: 0;"">Is there a person in this image?</p>
                    </div>
                </div>","0","main_experiment_trial","1","exploring_nature_semantic","semantic_sequence","chronological","","","","","","",""
"","","","","","html-keyboard-response","166","292546","0.0-166.0","39F516D2FE80412BABF4A7A0DE1C4580","019cfa76-b7fa-7b70-be24-98e3aa790465","019cfa3a-388e-72ab-ad58-bdeb258f96cd","","null","
                <div class=""stimulus-container"">
                    <img src=""images/semantic_sequence/exploring_nature_semantic/exploring_nature_semantic_2.png"" class=""exp-image"">
                    <div class=""question-area""></div> 
                </div>","null","","","","","","","","","","","",""
"","","","","","html-button-response","167","292995","0.0-167.0","39F516D2FE80412BABF4A7A0DE1C4580","019cfa76-b7fa-7b70-be24-98e3aa790465","019cfa3a-388e-72ab-ad58-bdeb258f96cd","","447","
                <div class=""stimulus-container"">
                    <img src=""images/semantic_sequence/exploring_nature_semantic/exploring_nature_semantic_2.png"" class=""exp-image"">
                    <div class=""question-area"">
                        <p style=""font-size: 20px; font-weight: bold; margin: 0;"">Is there a person in this image?</p>
                    </div>
                </div>","0","main_experiment_trial","2","exploring_nature_semantic","semantic_sequence","chronological","","","","","","",""
"","","","","","html-keyboard-response","168","293998","0.0-168.0","39F516D2FE80412BABF4A7A0DE1C4580","019cfa76-b7fa-7b70-be24-98e3aa790465","019cfa3a-388e-72ab-ad58-bdeb258f96cd","","null","
                <div class=""stimulus-container"">
                    <img src=""images/semantic_sequence/exploring_nature_semantic/exploring_nature_semantic_3.png"" class=""exp-image"">
                    <div class=""question-area""></div> 
                </div>","null","","","","","","","","","","","",""
"","","","","","html-button-response","169","294562","0.0-169.0","39F516D2FE80412BABF4A7A0DE1C4580","019cfa76-b7fa-7b70-be24-98e3aa790465","019cfa3a-388e-72ab-ad58-bdeb258f96cd","","563","
                <div class=""stimulus-container"">
                    <img src=""images/semantic_sequence/exploring_nature_semantic/exploring_nature_semantic_3.png"" class=""exp-image"">
                    <div class=""question-area"">
                        <p style=""font-size: 20px; font-weight: bold; margin: 0;"">Is there a person in this image?</p>
                    </div>
                </div>","0","main_experiment_trial","3","exploring_nature_semantic","semantic_sequence","chronological","","","","","","",""
"","","","","","html-keyboard-response","170","295563","0.0-170.0","39F516D2FE80412BABF4A7A0DE1C4580","019cfa76-b7fa-7b70-be24-98e3aa790465","019cfa3a-388e-72ab-ad58-bdeb258f96cd","","null","
                <div class=""stimulus-container"">
                    <img src=""images/semantic_sequence/exploring_nature_semantic/exploring_nature_semantic_4.png"" class=""exp-image"">
                    <div class=""question-area""></div> 
                </div>","null","","","","","","","","","","","",""
"","","","","","html-button-response","171","295978","0.0-171.0","39F516D2FE80412BABF4A7A0DE1C4580","019cfa76-b7fa-7b70-be24-98e3aa790465","019cfa3a-388e-72ab-ad58-bdeb258f96cd","","414","
                <div class=""stimulus-container"">
                    <img src=""images/semantic_sequence/exploring_nature_semantic/exploring_nature_semantic_4.png"" class=""exp-image"">
                    <div class=""question-area"">
                        <p style=""font-size: 20px; font-weight: bold; margin: 0;"">Is there a person in this image?</p>
                    </div>
                </div>","0","main_experiment_trial","4","exploring_nature_semantic","semantic_sequence","chronological","","","","","","",""
"","","","","","html-keyboard-response","172","296981","0.0-172.0","39F516D2FE80412BABF4A7A0DE1C4580","019cfa76-b7fa-7b70-be24-98e3aa790465","019cfa3a-388e-72ab-ad58-bdeb258f96cd","","null","
                <div class=""stimulus-container"">
                    <img src=""images/semantic_sequence/exploring_nature_semantic/exploring_nature_semantic_5.png"" class=""exp-image"">
                    <div class=""question-area""></div> 
                </div>","null","","","","","","","","","","","",""
"","","","","","html-button-response","173","297362","0.0-173.0","39F516D2FE80412BABF4A7A0DE1C4580","019cfa76-b7fa-7b70-be24-98e3aa790465","019cfa3a-388e-72ab-ad58-bdeb258f96cd","","380","
                <div class=""stimulus-container"">
                    <img src=""images/semantic_sequence/exploring_nature_semantic/exploring_nature_semantic_5.png"" class=""exp-image"">
                    <div class=""question-area"">
                        <p style=""font-size: 20px; font-weight: bold; margin: 0;"">Is there a person in this image?</p>
                    </div>
                </div>","0","main_experiment_trial","5","exploring_nature_semantic","semantic_sequence","chronological","","","","","","",""
"","","","","","html-keyboard-response","174","298365","0.0-174.0","39F516D2FE80412BABF4A7A0DE1C4580","019cfa76-b7fa-7b70-be24-98e3aa790465","019cfa3a-388e-72ab-ad58-bdeb258f96cd","","null","
                <div class=""stimulus-container"">
                    <img src=""images/semantic_sequence/exploring_nature_semantic/exploring_nature_semantic_6.png"" class=""exp-image"">
                    <div class=""question-area""></div> 
                </div>","null","","","","","","","","","","","",""
"","","","","","html-button-response","175","298795","0.0-175.0","39F516D2FE80412BABF4A7A0DE1C4580","019cfa76-b7fa-7b70-be24-98e3aa790465","019cfa3a-388e-72ab-ad58-bdeb258f96cd","","430","
                <div class=""stimulus-container"">
                    <img src=""images/semantic_sequence/exploring_nature_semantic/exploring_nature_semantic_6.png"" class=""exp-image"">
                    <div class=""question-area"">
                        <p style=""font-size: 20px; font-weight: bold; margin: 0;"">Is there a person in this image?</p>
                    </div>
                </div>","0","main_experiment_trial","6","exploring_nature_semantic","semantic_sequence","chronological","","","","","","",""
"","","","","","html-keyboard-response","176","299797","0.0-176.0","39F516D2FE80412BABF4A7A0DE1C4580","019cfa76-b7fa-7b70-be24-98e3aa790465","019cfa3a-388e-72ab-ad58-bdeb258f96cd","","null","
                <div class=""stimulus-container"">
                    <img src=""images/semantic_sequence/exploring_nature_semantic/exploring_nature_semantic_7.png"" class=""exp-image"">
                    <div class=""question-area""></div> 
                </div>","null","","","","","","","","","","","",""
