"success","timeout","failed_images","failed_audio","failed_video","trial_type","trial_index","time_elapsed","internal_node_id","subject_id","study_id","session_id","view_history","rt","stimulus","response","task","image_index","folder","sequence_type","valuable_image_index","reward_type","correct_choice","chosen_image_index","target_X"
"true","false","[]","[]","[]","preload","0","8859","0.0-0.0","5485609410874C71B6E44AF064680575","019cf528-4c68-7482-896b-56f679152c4a","019cf509-e3f1-72d9-bf6b-e2f1118fdaab","","","","","","","","","","","","",""
"","","","","","instructions","1","12259","0.0-1.0","5485609410874C71B6E44AF064680575","019cf528-4c68-7482-896b-56f679152c4a","019cf509-e3f1-72d9-bf6b-e2f1118fdaab","[{""page_index"":0,""viewing_time"":3398}]","3399","","","","","","","","","","",""
"","","","","","instructions","2","20842","0.0-2.0","5485609410874C71B6E44AF064680575","019cf528-4c68-7482-896b-56f679152c4a","019cf509-e3f1-72d9-bf6b-e2f1118fdaab","[{""page_index"":0,""viewing_time"":8582}]","8582","","","","","","","","","","",""
"true","","","","","fullscreen","3","23861","0.0-3.0","5485609410874C71B6E44AF064680575","019cf528-4c68-7482-896b-56f679152c4a","019cf509-e3f1-72d9-bf6b-e2f1118fdaab","","2014","","","","","","","","","","",""
"","","","","","instructions","4","35175","0.0-4.0","5485609410874C71B6E44AF064680575","019cf528-4c68-7482-896b-56f679152c4a","019cf509-e3f1-72d9-bf6b-e2f1118fdaab","[{""page_index"":0,""viewing_time"":11313}]","11314","","","","","","","","","","",""
"","","","","","instructions","5","49008","0.0-5.0","5485609410874C71B6E44AF064680575","019cf528-4c68-7482-896b-56f679152c4a","019cf509-e3f1-72d9-bf6b-e2f1118fdaab","[{""page_index"":0,""viewing_time"":13833}]","13833","","","","","","","","","","",""
"","","","","","html-keyboard-response","6","53012","0.0-6.0","5485609410874C71B6E44AF064680575","019cf528-4c68-7482-896b-56f679152c4a","019cf509-e3f1-72d9-bf6b-e2f1118fdaab","","null","
                <div class=""stimulus-container"">
                    <img src=""images/instructions/movie_1.png"" class=""exp-image"">
                    <div class=""question-area""></div> 
                </div>","null","","","","","","","","",""
"","","","","","html-button-response","7","55043","0.0-7.0","5485609410874C71B6E44AF064680575","019cf528-4c68-7482-896b-56f679152c4a","019cf509-e3f1-72d9-bf6b-e2f1118fdaab","","2029","
                <div class=""stimulus-container"">
                    <img src=""images/instructions/movie_1.png"" class=""exp-image"">
                    <div class=""question-area"">
                        <p style=""font-size: 20px; font-weight: bold; margin: 0;"">Was there a person in this image?</p>
                    </div>
                </div>","0","example_question","1","","","","","","",""
"","","","","","html-keyboard-response","8","59046","0.0-8.0","5485609410874C71B6E44AF064680575","019cf528-4c68-7482-896b-56f679152c4a","019cf509-e3f1-72d9-bf6b-e2f1118fdaab","","null","
                <div class=""stimulus-container"">
                    <img src=""images/instructions/movie_2.png"" class=""exp-image"">
                    <div class=""question-area""></div> 
                </div>","null","","","","","","","","",""
"","","","","","html-button-response","9","60042","0.0-9.0","5485609410874C71B6E44AF064680575","019cf528-4c68-7482-896b-56f679152c4a","019cf509-e3f1-72d9-bf6b-e2f1118fdaab","","994","
                <div class=""stimulus-container"">
                    <img src=""images/instructions/movie_2.png"" class=""exp-image"">
                    <div class=""question-area"">
                        <p style=""font-size: 20px; font-weight: bold; margin: 0;"">Was there a person in this image?</p>
                    </div>
                </div>","0","example_question","2","","","","","","",""
"","","","","","html-keyboard-response","10","64045","0.0-10.0","5485609410874C71B6E44AF064680575","019cf528-4c68-7482-896b-56f679152c4a","019cf509-e3f1-72d9-bf6b-e2f1118fdaab","","null","
                <div class=""stimulus-container"">
                    <img src=""images/instructions/movie_3.png"" class=""exp-image"">
                    <div class=""question-area""></div> 
                </div>","null","","","","","","","","",""
"","","","","","html-button-response","11","64975","0.0-11.0","5485609410874C71B6E44AF064680575","019cf528-4c68-7482-896b-56f679152c4a","019cf509-e3f1-72d9-bf6b-e2f1118fdaab","","928","
                <div class=""stimulus-container"">
                    <img src=""images/instructions/movie_3.png"" class=""exp-image"">
                    <div class=""question-area"">
                        <p style=""font-size: 20px; font-weight: bold; margin: 0;"">Was there a person in this image?</p>
                    </div>
                </div>","0","example_question","3","","","","","","",""
"","","","","","html-keyboard-response","12","68977","0.0-12.0","5485609410874C71B6E44AF064680575","019cf528-4c68-7482-896b-56f679152c4a","019cf509-e3f1-72d9-bf6b-e2f1118fdaab","","null","
                <div class=""stimulus-container"">
                    <img src=""images/instructions/movie_4.png"" class=""exp-image"">
                    <div class=""question-area""></div> 
                </div>","null","","","","","","","","",""
"","","","","","html-button-response","13","70375","0.0-13.0","5485609410874C71B6E44AF064680575","019cf528-4c68-7482-896b-56f679152c4a","019cf509-e3f1-72d9-bf6b-e2f1118fdaab","","1396","
                <div class=""stimulus-container"">
                    <img src=""images/instructions/movie_4.png"" class=""exp-image"">
                    <div class=""question-area"">
                        <p style=""font-size: 20px; font-weight: bold; margin: 0;"">Was there a person in this image?</p>
                    </div>
                </div>","0","example_question","4","","","","","","",""
"","","","","","instructions","14","72975","0.0-14.0","5485609410874C71B6E44AF064680575","019cf528-4c68-7482-896b-56f679152c4a","019cf509-e3f1-72d9-bf6b-e2f1118fdaab","[{""page_index"":0,""viewing_time"":2599}]","2599","","","","","","","","","","",""
"","","","","","instructions","15","82775","0.0-15.0","5485609410874C71B6E44AF064680575","019cf528-4c68-7482-896b-56f679152c4a","019cf509-e3f1-72d9-bf6b-e2f1118fdaab","[{""page_index"":0,""viewing_time"":9799}]","9800","","","","","","","","","","",""
"","","","","","html-keyboard-response","16","83778","0.0-16.0","5485609410874C71B6E44AF064680575","019cf528-4c68-7482-896b-56f679152c4a","019cf509-e3f1-72d9-bf6b-e2f1118fdaab","","null","<div style=""background-color: white; width: 100vw; height: 100vh;""></div>","null","","","","","","","","",""
"","","","","","html-keyboard-response","17","88781","0.0-17.0","5485609410874C71B6E44AF064680575","019cf528-4c68-7482-896b-56f679152c4a","019cf509-e3f1-72d9-bf6b-e2f1118fdaab","","null","
                <div class=""stimulus-container"">
                    <img src=""images/causal_sequence/package_causal/package_causal_1.png"" class=""exp-image"">
                    <div class=""question-area""></div> 
                </div>","null","","","","","","","","",""
"","","","","","html-button-response","18","90241","0.0-18.0","5485609410874C71B6E44AF064680575","019cf528-4c68-7482-896b-56f679152c4a","019cf509-e3f1-72d9-bf6b-e2f1118fdaab","","1458","
                <div class=""stimulus-container"">
                    <img src=""images/causal_sequence/package_causal/package_causal_1.png"" class=""exp-image"">
                    <div class=""question-area"">
                        <p style=""font-size: 20px; font-weight: bold; margin: 0;"">Is there a person in this image?</p>
                    </div>
                </div>","0","main_experiment_trial","1","package_causal","causal_sequence","","","","",""
"","","","","","html-keyboard-response","19","95245","0.0-19.0","5485609410874C71B6E44AF064680575","019cf528-4c68-7482-896b-56f679152c4a","019cf509-e3f1-72d9-bf6b-e2f1118fdaab","","null","
                <div class=""stimulus-container"">
                    <img src=""images/causal_sequence/package_causal/package_causal_2.png"" class=""exp-image"">
                    <div class=""question-area""></div> 
                </div>","null","","","","","","","","",""
"","","","","","html-button-response","20","96292","0.0-20.0","5485609410874C71B6E44AF064680575","019cf528-4c68-7482-896b-56f679152c4a","019cf509-e3f1-72d9-bf6b-e2f1118fdaab","","1045","
                <div class=""stimulus-container"">
                    <img src=""images/causal_sequence/package_causal/package_causal_2.png"" class=""exp-image"">
                    <div class=""question-area"">
                        <p style=""font-size: 20px; font-weight: bold; margin: 0;"">Is there a person in this image?</p>
                    </div>
                </div>","0","main_experiment_trial","2","package_causal","causal_sequence","","","","",""
"","","","","","html-keyboard-response","21","101294","0.0-21.0","5485609410874C71B6E44AF064680575","019cf528-4c68-7482-896b-56f679152c4a","019cf509-e3f1-72d9-bf6b-e2f1118fdaab","","null","
                <div class=""stimulus-container"">
                    <img src=""images/causal_sequence/package_causal/package_causal_3.png"" class=""exp-image"">
                    <div class=""question-area""></div> 
                </div>","null","","","","","","","","",""
"","","","","","html-button-response","22","102392","0.0-22.0","5485609410874C71B6E44AF064680575","019cf528-4c68-7482-896b-56f679152c4a","019cf509-e3f1-72d9-bf6b-e2f1118fdaab","","1095","
                <div class=""stimulus-container"">
                    <img src=""images/causal_sequence/package_causal/package_causal_3.png"" class=""exp-image"">
                    <div class=""question-area"">
                        <p style=""font-size: 20px; font-weight: bold; margin: 0;"">Is there a person in this image?</p>
                    </div>
                </div>","0","main_experiment_trial","3","package_causal","causal_sequence","","","","",""
"","","","","","html-keyboard-response","23","107395","0.0-23.0","5485609410874C71B6E44AF064680575","019cf528-4c68-7482-896b-56f679152c4a","019cf509-e3f1-72d9-bf6b-e2f1118fdaab","","null","
                <div class=""stimulus-container"">
                    <img src=""images/causal_sequence/package_causal/package_causal_4.png"" class=""exp-image"">
                    <div class=""question-area""></div> 
                </div>","null","","","","","","","","",""
"","","","","","html-button-response","24","108642","0.0-24.0","5485609410874C71B6E44AF064680575","019cf528-4c68-7482-896b-56f679152c4a","019cf509-e3f1-72d9-bf6b-e2f1118fdaab","","1245","
                <div class=""stimulus-container"">
                    <img src=""images/causal_sequence/package_causal/package_causal_4.png"" class=""exp-image"">
                    <div class=""question-area"">
                        <p style=""font-size: 20px; font-weight: bold; margin: 0;"">Is there a person in this image?</p>
                    </div>
                </div>","1","main_experiment_trial","4","package_causal","causal_sequence","","","","",""
"","","","","","html-keyboard-response","25","113645","0.0-25.0","5485609410874C71B6E44AF064680575","019cf528-4c68-7482-896b-56f679152c4a","019cf509-e3f1-72d9-bf6b-e2f1118fdaab","","null","
                <div class=""stimulus-container"">
                    <img src=""images/causal_sequence/package_causal/package_causal_5.png"" class=""exp-image"">
                    <div class=""question-area""></div> 
                </div>","null","","","","","","","","",""
"","","","","","html-button-response","26","114908","0.0-26.0","5485609410874C71B6E44AF064680575","019cf528-4c68-7482-896b-56f679152c4a","019cf509-e3f1-72d9-bf6b-e2f1118fdaab","","1262","
                <div class=""stimulus-container"">
                    <img src=""images/causal_sequence/package_causal/package_causal_5.png"" class=""exp-image"">
                    <div class=""question-area"">
                        <p style=""font-size: 20px; font-weight: bold; margin: 0;"">Is there a person in this image?</p>
                    </div>
                </div>","0","main_experiment_trial","5","package_causal","causal_sequence","","","","",""
"","","","","","html-keyboard-response","27","119911","0.0-27.0","5485609410874C71B6E44AF064680575","019cf528-4c68-7482-896b-56f679152c4a","019cf509-e3f1-72d9-bf6b-e2f1118fdaab","","null","
                <div class=""stimulus-container"">
                    <img src=""images/causal_sequence/package_causal/package_causal_6.png"" class=""exp-image"">
                    <div class=""question-area""></div> 
                </div>","null","","","","","","","","",""
"","","","","","html-button-response","28","120808","0.0-28.0","5485609410874C71B6E44AF064680575","019cf528-4c68-7482-896b-56f679152c4a","019cf509-e3f1-72d9-bf6b-e2f1118fdaab","","896","
                <div class=""stimulus-container"">
                    <img src=""images/causal_sequence/package_causal/package_causal_6.png"" class=""exp-image"">
                    <div class=""question-area"">
                        <p style=""font-size: 20px; font-weight: bold; margin: 0;"">Is there a person in this image?</p>
                    </div>
                </div>","0","main_experiment_trial","6","package_causal","causal_sequence","","","","",""
"","","","","","html-keyboard-response","29","125812","0.0-29.0","5485609410874C71B6E44AF064680575","019cf528-4c68-7482-896b-56f679152c4a","019cf509-e3f1-72d9-bf6b-e2f1118fdaab","","null","
                <div class=""stimulus-container"">
                    <img src=""images/causal_sequence/package_causal/package_causal_7.png"" class=""exp-image"">
                    <div class=""question-area""></div> 
                </div>","null","","","","","","","","",""
"","","","","","html-button-response","30","126774","0.0-30.0","5485609410874C71B6E44AF064680575","019cf528-4c68-7482-896b-56f679152c4a","019cf509-e3f1-72d9-bf6b-e2f1118fdaab","","961","
                <div class=""stimulus-container"">
                    <img src=""images/causal_sequence/package_causal/package_causal_7.png"" class=""exp-image"">
                    <div class=""question-area"">
                        <p style=""font-size: 20px; font-weight: bold; margin: 0;"">Is there a person in this image?</p>
                    </div>
                </div>","0","main_experiment_trial","7","package_causal","causal_sequence","","","","",""
"","","","","","html-keyboard-response","31","131776","0.0-31.0","5485609410874C71B6E44AF064680575","019cf528-4c68-7482-896b-56f679152c4a","019cf509-e3f1-72d9-bf6b-e2f1118fdaab","","null","
                <div class=""stimulus-container"">
                    <img src=""images/causal_sequence/package_causal/package_causal_8.png"" class=""exp-image"">
                    <div class=""question-area""></div> 
                </div>","null","","","","","","","","",""
"","","","","","html-button-response","32","133142","0.0-32.0","5485609410874C71B6E44AF064680575","019cf528-4c68-7482-896b-56f679152c4a","019cf509-e3f1-72d9-bf6b-e2f1118fdaab","","1364","
                <div class=""stimulus-container"">
                    <img src=""images/causal_sequence/package_causal/package_causal_8.png"" class=""exp-image"">
                    <div class=""question-area"">
                        <p style=""font-size: 20px; font-weight: bold; margin: 0;"">Is there a person in this image?</p>
                    </div>
                </div>","0","main_experiment_trial","8","package_causal","causal_sequence","","","","",""
"","","","","","html-keyboard-response","33","138144","0.0-33.0","5485609410874C71B6E44AF064680575","019cf528-4c68-7482-896b-56f679152c4a","019cf509-e3f1-72d9-bf6b-e2f1118fdaab","","null","
                <div class=""stimulus-container"">
                    <img src=""images/causal_sequence/package_causal/package_causal_9.png"" class=""exp-image"">
                    <div class=""question-area""></div> 
                </div>","null","","","","","","","","",""
"","","","","","html-button-response","34","138908","0.0-34.0","5485609410874C71B6E44AF064680575","019cf528-4c68-7482-896b-56f679152c4a","019cf509-e3f1-72d9-bf6b-e2f1118fdaab","","762","
                <div class=""stimulus-container"">
                    <img src=""images/causal_sequence/package_causal/package_causal_9.png"" class=""exp-image"">
                    <div class=""question-area"">
                        <p style=""font-size: 20px; font-weight: bold; margin: 0;"">Is there a person in this image?</p>
                    </div>
                </div>","0","main_experiment_trial","9","package_causal","causal_sequence","","","","",""
"","","","","","html-keyboard-response","35","143911","0.0-35.0","5485609410874C71B6E44AF064680575","019cf528-4c68-7482-896b-56f679152c4a","019cf509-e3f1-72d9-bf6b-e2f1118fdaab","","null","
                <div class=""stimulus-container"">
                    <img src=""images/causal_sequence/package_causal/package_causal_ten.png"" class=""exp-image"">
                    <div class=""question-area""></div> 
                </div>","null","","","","","","","","",""
"","","","","","html-button-response","36","144841","0.0-36.0","5485609410874C71B6E44AF064680575","019cf528-4c68-7482-896b-56f679152c4a","019cf509-e3f1-72d9-bf6b-e2f1118fdaab","","929","
                <div class=""stimulus-container"">
                    <img src=""images/causal_sequence/package_causal/package_causal_ten.png"" class=""exp-image"">
                    <div class=""question-area"">
                        <p style=""font-size: 20px; font-weight: bold; margin: 0;"">Is there a person in this image?</p>
                    </div>
                </div>","0","main_experiment_trial","ten","package_causal","causal_sequence","","","","",""
"","","","","","html-keyboard-response","37","145844","0.0-37.0","5485609410874C71B6E44AF064680575","019cf528-4c68-7482-896b-56f679152c4a","019cf509-e3f1-72d9-bf6b-e2f1118fdaab","","null","<div style=""background-color: white; width: 100vw; height: 100vh;""></div>","null","","","","","","","","",""
"","","","","","html-keyboard-response","38","150847","0.0-38.0","5485609410874C71B6E44AF064680575","019cf528-4c68-7482-896b-56f679152c4a","019cf509-e3f1-72d9-bf6b-e2f1118fdaab","","null","
                <div class=""stimulus-container"">
                    <img src=""images/schematic_sequence/supermarket_scheme/supermarket_scheme_1.png"" class=""exp-image"">
                    <div class=""question-area""></div> 
                </div>","null","","","","","","","","",""
"","","","","","html-button-response","39","152241","0.0-39.0","5485609410874C71B6E44AF064680575","019cf528-4c68-7482-896b-56f679152c4a","019cf509-e3f1-72d9-bf6b-e2f1118fdaab","","1393","
                <div class=""stimulus-container"">
                    <img src=""images/schematic_sequence/supermarket_scheme/supermarket_scheme_1.png"" class=""exp-image"">
                    <div class=""question-area"">
                        <p style=""font-size: 20px; font-weight: bold; margin: 0;"">Is there a person in this image?</p>
                    </div>
                </div>","1","main_experiment_trial","1","supermarket_scheme","schematic_sequence","","","","",""
"","","","","","html-keyboard-response","40","157244","0.0-40.0","5485609410874C71B6E44AF064680575","019cf528-4c68-7482-896b-56f679152c4a","019cf509-e3f1-72d9-bf6b-e2f1118fdaab","","null","
                <div class=""stimulus-container"">
                    <img src=""images/schematic_sequence/supermarket_scheme/supermarket_scheme_2.png"" class=""exp-image"">
                    <div class=""question-area""></div> 
                </div>","null","","","","","","","","",""
"","","","","","html-button-response","41","158225","0.0-41.0","5485609410874C71B6E44AF064680575","019cf528-4c68-7482-896b-56f679152c4a","019cf509-e3f1-72d9-bf6b-e2f1118fdaab","","979","
                <div class=""stimulus-container"">
                    <img src=""images/schematic_sequence/supermarket_scheme/supermarket_scheme_2.png"" class=""exp-image"">
                    <div class=""question-area"">
                        <p style=""font-size: 20px; font-weight: bold; margin: 0;"">Is there a person in this image?</p>
                    </div>
                </div>","1","main_experiment_trial","2","supermarket_scheme","schematic_sequence","","","","",""
"","","","","","html-keyboard-response","42","163228","0.0-42.0","5485609410874C71B6E44AF064680575","019cf528-4c68-7482-896b-56f679152c4a","019cf509-e3f1-72d9-bf6b-e2f1118fdaab","","null","
                <div class=""stimulus-container"">
                    <img src=""images/schematic_sequence/supermarket_scheme/supermarket_scheme_3.png"" class=""exp-image"">
                    <div class=""question-area""></div> 
                </div>","null","","","","","","","","",""
"","","","","","html-button-response","43","163991","0.0-43.0","5485609410874C71B6E44AF064680575","019cf528-4c68-7482-896b-56f679152c4a","019cf509-e3f1-72d9-bf6b-e2f1118fdaab","","762","
                <div class=""stimulus-container"">
                    <img src=""images/schematic_sequence/supermarket_scheme/supermarket_scheme_3.png"" class=""exp-image"">
                    <div class=""question-area"">
                        <p style=""font-size: 20px; font-weight: bold; margin: 0;"">Is there a person in this image?</p>
                    </div>
                </div>","1","main_experiment_trial","3","supermarket_scheme","schematic_sequence","","","","",""
"","","","","","html-keyboard-response","44","168994","0.0-44.0","5485609410874C71B6E44AF064680575","019cf528-4c68-7482-896b-56f679152c4a","019cf509-e3f1-72d9-bf6b-e2f1118fdaab","","null","
                <div class=""stimulus-container"">
                    <img src=""images/schematic_sequence/supermarket_scheme/supermarket_scheme_4.png"" class=""exp-image"">
                    <div class=""question-area""></div> 
                </div>","null","","","","","","","","",""
"","","","","","html-button-response","45","170525","0.0-45.0","5485609410874C71B6E44AF064680575","019cf528-4c68-7482-896b-56f679152c4a","019cf509-e3f1-72d9-bf6b-e2f1118fdaab","","1529","
                <div class=""stimulus-container"">
                    <img src=""images/schematic_sequence/supermarket_scheme/supermarket_scheme_4.png"" class=""exp-image"">
                    <div class=""question-area"">
                        <p style=""font-size: 20px; font-weight: bold; margin: 0;"">Is there a person in this image?</p>
                    </div>
                </div>","0","main_experiment_trial","4","supermarket_scheme","schematic_sequence","","","","",""
"","","","","","html-keyboard-response","46","175527","0.0-46.0","5485609410874C71B6E44AF064680575","019cf528-4c68-7482-896b-56f679152c4a","019cf509-e3f1-72d9-bf6b-e2f1118fdaab","","null","
                <div class=""stimulus-container"">
                    <img src=""images/schematic_sequence/supermarket_scheme/supermarket_scheme_5.png"" class=""exp-image"">
                    <div class=""question-area""></div> 
                </div>","null","","","","","","","","",""
"","","","","","html-button-response","47","176808","0.0-47.0","5485609410874C71B6E44AF064680575","019cf528-4c68-7482-896b-56f679152c4a","019cf509-e3f1-72d9-bf6b-e2f1118fdaab","","1279","
                <div class=""stimulus-container"">
                    <img src=""images/schematic_sequence/supermarket_scheme/supermarket_scheme_5.png"" class=""exp-image"">
                    <div class=""question-area"">
                        <p style=""font-size: 20px; font-weight: bold; margin: 0;"">Is there a person in this image?</p>
                    </div>
                </div>","1","main_experiment_trial","5","supermarket_scheme","schematic_sequence","","","","",""
"","","","","","html-keyboard-response","48","181811","0.0-48.0","5485609410874C71B6E44AF064680575","019cf528-4c68-7482-896b-56f679152c4a","019cf509-e3f1-72d9-bf6b-e2f1118fdaab","","null","
                <div class=""stimulus-container"">
                    <img src=""images/schematic_sequence/supermarket_scheme/supermarket_scheme_6.png"" class=""exp-image"">
                    <div class=""question-area""></div> 
                </div>","null","","","","","","","","",""
"","","","","","html-button-response","49","183075","0.0-49.0","5485609410874C71B6E44AF064680575","019cf528-4c68-7482-896b-56f679152c4a","019cf509-e3f1-72d9-bf6b-e2f1118fdaab","","1262","
                <div class=""stimulus-container"">
                    <img src=""images/schematic_sequence/supermarket_scheme/supermarket_scheme_6.png"" class=""exp-image"">
                    <div class=""question-area"">
                        <p style=""font-size: 20px; font-weight: bold; margin: 0;"">Is there a person in this image?</p>
                    </div>
                </div>","0","main_experiment_trial","6","supermarket_scheme","schematic_sequence","","","","",""
"","","","","","html-keyboard-response","50","188077","0.0-50.0","5485609410874C71B6E44AF064680575","019cf528-4c68-7482-896b-56f679152c4a","019cf509-e3f1-72d9-bf6b-e2f1118fdaab","","null","
                <div class=""stimulus-container"">
                    <img src=""images/schematic_sequence/supermarket_scheme/supermarket_scheme_7.png"" class=""exp-image"">
                    <div class=""question-area""></div> 
                </div>","null","","","","","","","","",""
"","","","","","html-button-response","51","189858","0.0-51.0","5485609410874C71B6E44AF064680575","019cf528-4c68-7482-896b-56f679152c4a","019cf509-e3f1-72d9-bf6b-e2f1118fdaab","","1779","
                <div class=""stimulus-container"">
                    <img src=""images/schematic_sequence/supermarket_scheme/supermarket_scheme_7.png"" class=""exp-image"">
                    <div class=""question-area"">
                        <p style=""font-size: 20px; font-weight: bold; margin: 0;"">Is there a person in this image?</p>
                    </div>
                </div>","0","main_experiment_trial","7","supermarket_scheme","schematic_sequence","","","","",""
"","","","","","html-keyboard-response","52","194861","0.0-52.0","5485609410874C71B6E44AF064680575","019cf528-4c68-7482-896b-56f679152c4a","019cf509-e3f1-72d9-bf6b-e2f1118fdaab","","null","
                <div class=""stimulus-container"">
                    <img src=""images/schematic_sequence/supermarket_scheme/supermarket_scheme_8.png"" class=""exp-image"">
                    <div class=""question-area""></div> 
                </div>","null","","","","","","","","",""
"","","","","","html-button-response","53","195724","0.0-53.0","5485609410874C71B6E44AF064680575","019cf528-4c68-7482-896b-56f679152c4a","019cf509-e3f1-72d9-bf6b-e2f1118fdaab","","862","
                <div class=""stimulus-container"">
                    <img src=""images/schematic_sequence/supermarket_scheme/supermarket_scheme_8.png"" class=""exp-image"">
                    <div class=""question-area"">
                        <p style=""font-size: 20px; font-weight: bold; margin: 0;"">Is there a person in this image?</p>
                    </div>
                </div>","0","main_experiment_trial","8","supermarket_scheme","schematic_sequence","","","","",""
"","","","","","html-keyboard-response","54","200727","0.0-54.0","5485609410874C71B6E44AF064680575","019cf528-4c68-7482-896b-56f679152c4a","019cf509-e3f1-72d9-bf6b-e2f1118fdaab","","null","
                <div class=""stimulus-container"">
                    <img src=""images/schematic_sequence/supermarket_scheme/supermarket_scheme_9.png"" class=""exp-image"">
                    <div class=""question-area""></div> 
                </div>","null","","","","","","","","",""
"","","","","","html-button-response","55","201425","0.0-55.0","5485609410874C71B6E44AF064680575","019cf528-4c68-7482-896b-56f679152c4a","019cf509-e3f1-72d9-bf6b-e2f1118fdaab","","696","
                <div class=""stimulus-container"">
                    <img src=""images/schematic_sequence/supermarket_scheme/supermarket_scheme_9.png"" class=""exp-image"">
                    <div class=""question-area"">
                        <p style=""font-size: 20px; font-weight: bold; margin: 0;"">Is there a person in this image?</p>
                    </div>
                </div>","0","main_experiment_trial","9","supermarket_scheme","schematic_sequence","","","","",""
"","","","","","html-keyboard-response","56","206428","0.0-56.0","5485609410874C71B6E44AF064680575","019cf528-4c68-7482-896b-56f679152c4a","019cf509-e3f1-72d9-bf6b-e2f1118fdaab","","null","
                <div class=""stimulus-container"">
                    <img src=""images/schematic_sequence/supermarket_scheme/supermarket_scheme_ten.png"" class=""exp-image"">
                    <div class=""question-area""></div> 
                </div>","null","","","","","","","","",""
"","","","","","html-button-response","57","207341","0.0-57.0","5485609410874C71B6E44AF064680575","019cf528-4c68-7482-896b-56f679152c4a","019cf509-e3f1-72d9-bf6b-e2f1118fdaab","","912","
                <div class=""stimulus-container"">
                    <img src=""images/schematic_sequence/supermarket_scheme/supermarket_scheme_ten.png"" class=""exp-image"">
                    <div class=""question-area"">
                        <p style=""font-size: 20px; font-weight: bold; margin: 0;"">Is there a person in this image?</p>
                    </div>
                </div>","1","main_experiment_trial","ten","supermarket_scheme","schematic_sequence","","","","",""
"","","","","","html-keyboard-response","58","208344","0.0-58.0","5485609410874C71B6E44AF064680575","019cf528-4c68-7482-896b-56f679152c4a","019cf509-e3f1-72d9-bf6b-e2f1118fdaab","","null","<div style=""background-color: white; width: 100vw; height: 100vh;""></div>","null","","","","","","","","",""
"","","","","","html-keyboard-response","59","213347","0.0-59.0","5485609410874C71B6E44AF064680575","019cf528-4c68-7482-896b-56f679152c4a","019cf509-e3f1-72d9-bf6b-e2f1118fdaab","","null","
                <div class=""stimulus-container"">
                    <img src=""images/causal_sequence/the_performance_causal/the_performance_causal_1.png"" class=""exp-image"">
                    <div class=""question-area""></div> 
                </div>","null","","","","","","","","",""
"","","","","","html-button-response","60","214274","0.0-60.0","5485609410874C71B6E44AF064680575","019cf528-4c68-7482-896b-56f679152c4a","019cf509-e3f1-72d9-bf6b-e2f1118fdaab","","926","
                <div class=""stimulus-container"">
                    <img src=""images/causal_sequence/the_performance_causal/the_performance_causal_1.png"" class=""exp-image"">
                    <div class=""question-area"">
                        <p style=""font-size: 20px; font-weight: bold; margin: 0;"">Is there a person in this image?</p>
                    </div>
                </div>","0","main_experiment_trial","1","the_performance_causal","causal_sequence","","","","",""
"","","","","","html-keyboard-response","61","219277","0.0-61.0","5485609410874C71B6E44AF064680575","019cf528-4c68-7482-896b-56f679152c4a","019cf509-e3f1-72d9-bf6b-e2f1118fdaab","","null","
                <div class=""stimulus-container"">
                    <img src=""images/causal_sequence/the_performance_causal/the_performance_causal_2.png"" class=""exp-image"">
                    <div class=""question-area""></div> 
                </div>","null","","","","","","","","",""
"","","","","","html-button-response","62","220325","0.0-62.0","5485609410874C71B6E44AF064680575","019cf528-4c68-7482-896b-56f679152c4a","019cf509-e3f1-72d9-bf6b-e2f1118fdaab","","1046","
                <div class=""stimulus-container"">
                    <img src=""images/causal_sequence/the_performance_causal/the_performance_causal_2.png"" class=""exp-image"">
                    <div class=""question-area"">
                        <p style=""font-size: 20px; font-weight: bold; margin: 0;"">Is there a person in this image?</p>
                    </div>
                </div>","0","main_experiment_trial","2","the_performance_causal","causal_sequence","","","","",""
"","","","","","html-keyboard-response","63","225328","0.0-63.0","5485609410874C71B6E44AF064680575","019cf528-4c68-7482-896b-56f679152c4a","019cf509-e3f1-72d9-bf6b-e2f1118fdaab","","null","
                <div class=""stimulus-container"">
                    <img src=""images/causal_sequence/the_performance_causal/the_performance_causal_3.png"" class=""exp-image"">
                    <div class=""question-area""></div> 
                </div>","null","","","","","","","","",""
"","","","","","html-button-response","64","226242","0.0-64.0","5485609410874C71B6E44AF064680575","019cf528-4c68-7482-896b-56f679152c4a","019cf509-e3f1-72d9-bf6b-e2f1118fdaab","","912","
                <div class=""stimulus-container"">
                    <img src=""images/causal_sequence/the_performance_causal/the_performance_causal_3.png"" class=""exp-image"">
                    <div class=""question-area"">
                        <p style=""font-size: 20px; font-weight: bold; margin: 0;"">Is there a person in this image?</p>
                    </div>
                </div>","0","main_experiment_trial","3","the_performance_causal","causal_sequence","","","","",""
"","","","","","html-keyboard-response","65","231245","0.0-65.0","5485609410874C71B6E44AF064680575","019cf528-4c68-7482-896b-56f679152c4a","019cf509-e3f1-72d9-bf6b-e2f1118fdaab","","null","
                <div class=""stimulus-container"">
                    <img src=""images/causal_sequence/the_performance_causal/the_performance_causal_4.png"" class=""exp-image"">
                    <div class=""question-area""></div> 
                </div>","null","","","","","","","","",""
"","","","","","html-button-response","66","232075","0.0-66.0","5485609410874C71B6E44AF064680575","019cf528-4c68-7482-896b-56f679152c4a","019cf509-e3f1-72d9-bf6b-e2f1118fdaab","","828","
                <div class=""stimulus-container"">
                    <img src=""images/causal_sequence/the_performance_causal/the_performance_causal_4.png"" class=""exp-image"">
                    <div class=""question-area"">
                        <p style=""font-size: 20px; font-weight: bold; margin: 0;"">Is there a person in this image?</p>
                    </div>
                </div>","0","main_experiment_trial","4","the_performance_causal","causal_sequence","","","","",""
"","","","","","html-keyboard-response","67","237077","0.0-67.0","5485609410874C71B6E44AF064680575","019cf528-4c68-7482-896b-56f679152c4a","019cf509-e3f1-72d9-bf6b-e2f1118fdaab","","null","
                <div class=""stimulus-container"">
                    <img src=""images/causal_sequence/the_performance_causal/the_performance_causal_5.png"" class=""exp-image"">
                    <div class=""question-area""></div> 
                </div>","null","","","","","","","","",""
"","","","","","html-button-response","68","238108","0.0-68.0","5485609410874C71B6E44AF064680575","019cf528-4c68-7482-896b-56f679152c4a","019cf509-e3f1-72d9-bf6b-e2f1118fdaab","","1030","
                <div class=""stimulus-container"">
                    <img src=""images/causal_sequence/the_performance_causal/the_performance_causal_5.png"" class=""exp-image"">
                    <div class=""question-area"">
                        <p style=""font-size: 20px; font-weight: bold; margin: 0;"">Is there a person in this image?</p>
                    </div>
                </div>","0","main_experiment_trial","5","the_performance_causal","causal_sequence","","","","",""
"","","","","","html-keyboard-response","69","243111","0.0-69.0","5485609410874C71B6E44AF064680575","019cf528-4c68-7482-896b-56f679152c4a","019cf509-e3f1-72d9-bf6b-e2f1118fdaab","","null","
                <div class=""stimulus-container"">
                    <img src=""images/causal_sequence/the_performance_causal/the_performance_causal_6.png"" class=""exp-image"">
                    <div class=""question-area""></div> 
                </div>","null","","","","","","","","",""
"","","","","","html-button-response","70","244225","0.0-70.0","5485609410874C71B6E44AF064680575","019cf528-4c68-7482-896b-56f679152c4a","019cf509-e3f1-72d9-bf6b-e2f1118fdaab","","1112","
                <div class=""stimulus-container"">
                    <img src=""images/causal_sequence/the_performance_causal/the_performance_causal_6.png"" class=""exp-image"">
                    <div class=""question-area"">
                        <p style=""font-size: 20px; font-weight: bold; margin: 0;"">Is there a person in this image?</p>
                    </div>
                </div>","0","main_experiment_trial","6","the_performance_causal","causal_sequence","","","","",""
"","","","","","html-keyboard-response","71","249227","0.0-71.0","5485609410874C71B6E44AF064680575","019cf528-4c68-7482-896b-56f679152c4a","019cf509-e3f1-72d9-bf6b-e2f1118fdaab","","null","
                <div class=""stimulus-container"">
                    <img src=""images/causal_sequence/the_performance_causal/the_performance_causal_7.png"" class=""exp-image"">
                    <div class=""question-area""></div> 
                </div>","null","","","","","","","","",""
"","","","","","html-button-response","72","250141","0.0-72.0","5485609410874C71B6E44AF064680575","019cf528-4c68-7482-896b-56f679152c4a","019cf509-e3f1-72d9-bf6b-e2f1118fdaab","","912","
                <div class=""stimulus-container"">
                    <img src=""images/causal_sequence/the_performance_causal/the_performance_causal_7.png"" class=""exp-image"">
                    <div class=""question-area"">
                        <p style=""font-size: 20px; font-weight: bold; margin: 0;"">Is there a person in this image?</p>
                    </div>
                </div>","0","main_experiment_trial","7","the_performance_causal","causal_sequence","","","","",""
"","","","","","html-keyboard-response","73","255144","0.0-73.0","5485609410874C71B6E44AF064680575","019cf528-4c68-7482-896b-56f679152c4a","019cf509-e3f1-72d9-bf6b-e2f1118fdaab","","null","
                <div class=""stimulus-container"">
                    <img src=""images/causal_sequence/the_performance_causal/the_performance_causal_8.png"" class=""exp-image"">
                    <div class=""question-area""></div> 
                </div>","null","","","","","","","","",""
"","","","","","html-button-response","74","256425","0.0-74.0","5485609410874C71B6E44AF064680575","019cf528-4c68-7482-896b-56f679152c4a","019cf509-e3f1-72d9-bf6b-e2f1118fdaab","","1279","
                <div class=""stimulus-container"">
                    <img src=""images/causal_sequence/the_performance_causal/the_performance_causal_8.png"" class=""exp-image"">
                    <div class=""question-area"">
                        <p style=""font-size: 20px; font-weight: bold; margin: 0;"">Is there a person in this image?</p>
                    </div>
                </div>","0","main_experiment_trial","8","the_performance_causal","causal_sequence","","","","",""
"","","","","","html-keyboard-response","75","261427","0.0-75.0","5485609410874C71B6E44AF064680575","019cf528-4c68-7482-896b-56f679152c4a","019cf509-e3f1-72d9-bf6b-e2f1118fdaab","","null","
                <div class=""stimulus-container"">
                    <img src=""images/causal_sequence/the_performance_causal/the_performance_causal_9.png"" class=""exp-image"">
                    <div class=""question-area""></div> 
                </div>","null","","","","","","","","",""
"","","","","","html-button-response","76","262375","0.0-76.0","5485609410874C71B6E44AF064680575","019cf528-4c68-7482-896b-56f679152c4a","019cf509-e3f1-72d9-bf6b-e2f1118fdaab","","947","
                <div class=""stimulus-container"">
                    <img src=""images/causal_sequence/the_performance_causal/the_performance_causal_9.png"" class=""exp-image"">
                    <div class=""question-area"">
                        <p style=""font-size: 20px; font-weight: bold; margin: 0;"">Is there a person in this image?</p>
                    </div>
                </div>","0","main_experiment_trial","9","the_performance_causal","causal_sequence","","","","",""
"","","","","","html-keyboard-response","77","267377","0.0-77.0","5485609410874C71B6E44AF064680575","019cf528-4c68-7482-896b-56f679152c4a","019cf509-e3f1-72d9-bf6b-e2f1118fdaab","","null","
                <div class=""stimulus-container"">
                    <img src=""images/causal_sequence/the_performance_causal/the_performance_causal_ten.png"" class=""exp-image"">
                    <div class=""question-area""></div> 
                </div>","null","","","","","","","","",""
"","","","","","html-button-response","78","268625","0.0-78.0","5485609410874C71B6E44AF064680575","019cf528-4c68-7482-896b-56f679152c4a","019cf509-e3f1-72d9-bf6b-e2f1118fdaab","","1246","
                <div class=""stimulus-container"">
                    <img src=""images/causal_sequence/the_performance_causal/the_performance_causal_ten.png"" class=""exp-image"">
                    <div class=""question-area"">
                        <p style=""font-size: 20px; font-weight: bold; margin: 0;"">Is there a person in this image?</p>
                    </div>
                </div>","0","main_experiment_trial","ten","the_performance_causal","causal_sequence","","","","",""
"","","","","","html-keyboard-response","79","269628","0.0-79.0","5485609410874C71B6E44AF064680575","019cf528-4c68-7482-896b-56f679152c4a","019cf509-e3f1-72d9-bf6b-e2f1118fdaab","","null","<div style=""background-color: white; width: 100vw; height: 100vh;""></div>","null","","","","","","","","",""
"","","","","","html-keyboard-response","80","274629","0.0-80.0","5485609410874C71B6E44AF064680575","019cf528-4c68-7482-896b-56f679152c4a","019cf509-e3f1-72d9-bf6b-e2f1118fdaab","","null","
                <div class=""stimulus-container"">
                    <img src=""images/schematic_sequence/hotel_scheme/hotel_scheme_1.png"" class=""exp-image"">
                    <div class=""question-area""></div> 
                </div>","null","","","","","","","","",""
"","","","","","html-button-response","81","275791","0.0-81.0","5485609410874C71B6E44AF064680575","019cf528-4c68-7482-896b-56f679152c4a","019cf509-e3f1-72d9-bf6b-e2f1118fdaab","","1161","
                <div class=""stimulus-container"">
                    <img src=""images/schematic_sequence/hotel_scheme/hotel_scheme_1.png"" class=""exp-image"">
                    <div class=""question-area"">
                        <p style=""font-size: 20px; font-weight: bold; margin: 0;"">Is there a person in this image?</p>
                    </div>
                </div>","1","main_experiment_trial","1","hotel_scheme","schematic_sequence","","","","",""
"","","","","","html-keyboard-response","82","280794","0.0-82.0","5485609410874C71B6E44AF064680575","019cf528-4c68-7482-896b-56f679152c4a","019cf509-e3f1-72d9-bf6b-e2f1118fdaab","","null","
                <div class=""stimulus-container"">
                    <img src=""images/schematic_sequence/hotel_scheme/hotel_scheme_2.png"" class=""exp-image"">
                    <div class=""question-area""></div> 
                </div>","null","","","","","","","","",""
"","","","","","html-button-response","83","282574","0.0-83.0","5485609410874C71B6E44AF064680575","019cf528-4c68-7482-896b-56f679152c4a","019cf509-e3f1-72d9-bf6b-e2f1118fdaab","","1779","
                <div class=""stimulus-container"">
                    <img src=""images/schematic_sequence/hotel_scheme/hotel_scheme_2.png"" class=""exp-image"">
                    <div class=""question-area"">
                        <p style=""font-size: 20px; font-weight: bold; margin: 0;"">Is there a person in this image?</p>
                    </div>
                </div>","0","main_experiment_trial","2","hotel_scheme","schematic_sequence","","","","",""
"","","","","","html-keyboard-response","84","287577","0.0-84.0","5485609410874C71B6E44AF064680575","019cf528-4c68-7482-896b-56f679152c4a","019cf509-e3f1-72d9-bf6b-e2f1118fdaab","","null","
                <div class=""stimulus-container"">
                    <img src=""images/schematic_sequence/hotel_scheme/hotel_scheme_3.png"" class=""exp-image"">
                    <div class=""question-area""></div> 
                </div>","null","","","","","","","","",""
"","","","","","html-button-response","85","289075","0.0-85.0","5485609410874C71B6E44AF064680575","019cf528-4c68-7482-896b-56f679152c4a","019cf509-e3f1-72d9-bf6b-e2f1118fdaab","","1496","
                <div class=""stimulus-container"">
                    <img src=""images/schematic_sequence/hotel_scheme/hotel_scheme_3.png"" class=""exp-image"">
                    <div class=""question-area"">
                        <p style=""font-size: 20px; font-weight: bold; margin: 0;"">Is there a person in this image?</p>
                    </div>
                </div>","0","main_experiment_trial","3","hotel_scheme","schematic_sequence","","","","",""
"","","","","","html-keyboard-response","86","294077","0.0-86.0","5485609410874C71B6E44AF064680575","019cf528-4c68-7482-896b-56f679152c4a","019cf509-e3f1-72d9-bf6b-e2f1118fdaab","","null","
                <div class=""stimulus-container"">
                    <img src=""images/schematic_sequence/hotel_scheme/hotel_scheme_4.png"" class=""exp-image"">
                    <div class=""question-area""></div> 
                </div>","null","","","","","","","","",""
"","","","","","html-button-response","87","295375","0.0-87.0","5485609410874C71B6E44AF064680575","019cf528-4c68-7482-896b-56f679152c4a","019cf509-e3f1-72d9-bf6b-e2f1118fdaab","","1296","
                <div class=""stimulus-container"">
                    <img src=""images/schematic_sequence/hotel_scheme/hotel_scheme_4.png"" class=""exp-image"">
                    <div class=""question-area"">
                        <p style=""font-size: 20px; font-weight: bold; margin: 0;"">Is there a person in this image?</p>
                    </div>
                </div>","1","main_experiment_trial","4","hotel_scheme","schematic_sequence","","","","",""
"","","","","","html-keyboard-response","88","300377","0.0-88.0","5485609410874C71B6E44AF064680575","019cf528-4c68-7482-896b-56f679152c4a","019cf509-e3f1-72d9-bf6b-e2f1118fdaab","","null","
                <div class=""stimulus-container"">
                    <img src=""images/schematic_sequence/hotel_scheme/hotel_scheme_5.png"" class=""exp-image"">
                    <div class=""question-area""></div> 
                </div>","null","","","","","","","","",""
"","","","","","html-button-response","89","301624","0.0-89.0","5485609410874C71B6E44AF064680575","019cf528-4c68-7482-896b-56f679152c4a","019cf509-e3f1-72d9-bf6b-e2f1118fdaab","","1245","
                <div class=""stimulus-container"">
                    <img src=""images/schematic_sequence/hotel_scheme/hotel_scheme_5.png"" class=""exp-image"">
                    <div class=""question-area"">
                        <p style=""font-size: 20px; font-weight: bold; margin: 0;"">Is there a person in this image?</p>
                    </div>
                </div>","0","main_experiment_trial","5","hotel_scheme","schematic_sequence","","","","",""
"","","","","","html-keyboard-response","90","306626","0.0-90.0","5485609410874C71B6E44AF064680575","019cf528-4c68-7482-896b-56f679152c4a","019cf509-e3f1-72d9-bf6b-e2f1118fdaab","","null","
                <div class=""stimulus-container"">
                    <img src=""images/schematic_sequence/hotel_scheme/hotel_scheme_6.png"" class=""exp-image"">
                    <div class=""question-area""></div> 
                </div>","null","","","","","","","","",""
"","","","","","html-button-response","91","308058","0.0-91.0","5485609410874C71B6E44AF064680575","019cf528-4c68-7482-896b-56f679152c4a","019cf509-e3f1-72d9-bf6b-e2f1118fdaab","","1430","
                <div class=""stimulus-container"">
                    <img src=""images/schematic_sequence/hotel_scheme/hotel_scheme_6.png"" class=""exp-image"">
                    <div class=""question-area"">
                        <p style=""font-size: 20px; font-weight: bold; margin: 0;"">Is there a person in this image?</p>
                    </div>
                </div>","0","main_experiment_trial","6","hotel_scheme","schematic_sequence","","","","",""
"","","","","","html-keyboard-response","92","313060","0.0-92.0","5485609410874C71B6E44AF064680575","019cf528-4c68-7482-896b-56f679152c4a","019cf509-e3f1-72d9-bf6b-e2f1118fdaab","","null","
                <div class=""stimulus-container"">
                    <img src=""images/schematic_sequence/hotel_scheme/hotel_scheme_7.png"" class=""exp-image"">
                    <div class=""question-area""></div> 
                </div>","null","","","","","","","","",""
"","","","","","html-button-response","93","314124","0.0-93.0","5485609410874C71B6E44AF064680575","019cf528-4c68-7482-896b-56f679152c4a","019cf509-e3f1-72d9-bf6b-e2f1118fdaab","","1062","
                <div class=""stimulus-container"">
                    <img src=""images/schematic_sequence/hotel_scheme/hotel_scheme_7.png"" class=""exp-image"">
                    <div class=""question-area"">
                        <p style=""font-size: 20px; font-weight: bold; margin: 0;"">Is there a person in this image?</p>
                    </div>
                </div>","0","main_experiment_trial","7","hotel_scheme","schematic_sequence","","","","",""
"","","","","","html-keyboard-response","94","319127","0.0-94.0","5485609410874C71B6E44AF064680575","019cf528-4c68-7482-896b-56f679152c4a","019cf509-e3f1-72d9-bf6b-e2f1118fdaab","","null","
                <div class=""stimulus-container"">
                    <img src=""images/schematic_sequence/hotel_scheme/hotel_scheme_8.png"" class=""exp-image"">
                    <div class=""question-area""></div> 
                </div>","null","","","","","","","","",""
"","","","","","html-button-response","95","320492","0.0-95.0","5485609410874C71B6E44AF064680575","019cf528-4c68-7482-896b-56f679152c4a","019cf509-e3f1-72d9-bf6b-e2f1118fdaab","","1363","
                <div class=""stimulus-container"">
                    <img src=""images/schematic_sequence/hotel_scheme/hotel_scheme_8.png"" class=""exp-image"">
                    <div class=""question-area"">
                        <p style=""font-size: 20px; font-weight: bold; margin: 0;"">Is there a person in this image?</p>
                    </div>
                </div>","0","main_experiment_trial","8","hotel_scheme","schematic_sequence","","","","",""
"","","","","","html-keyboard-response","96","325495","0.0-96.0","5485609410874C71B6E44AF064680575","019cf528-4c68-7482-896b-56f679152c4a","019cf509-e3f1-72d9-bf6b-e2f1118fdaab","","null","
                <div class=""stimulus-container"">
                    <img src=""images/schematic_sequence/hotel_scheme/hotel_scheme_9.png"" class=""exp-image"">
                    <div class=""question-area""></div> 
                </div>","null","","","","","","","","",""
"","","","","","html-button-response","97","326241","0.0-97.0","5485609410874C71B6E44AF064680575","019cf528-4c68-7482-896b-56f679152c4a","019cf509-e3f1-72d9-bf6b-e2f1118fdaab","","745","
                <div class=""stimulus-container"">
                    <img src=""images/schematic_sequence/hotel_scheme/hotel_scheme_9.png"" class=""exp-image"">
                    <div class=""question-area"">
                        <p style=""font-size: 20px; font-weight: bold; margin: 0;"">Is there a person in this image?</p>
                    </div>
                </div>","0","main_experiment_trial","9","hotel_scheme","schematic_sequence","","","","",""
"","","","","","html-keyboard-response","98","331244","0.0-98.0","5485609410874C71B6E44AF064680575","019cf528-4c68-7482-896b-56f679152c4a","019cf509-e3f1-72d9-bf6b-e2f1118fdaab","","null","
                <div class=""stimulus-container"">
                    <img src=""images/schematic_sequence/hotel_scheme/hotel_scheme_ten.png"" class=""exp-image"">
                    <div class=""question-area""></div> 
                </div>","null","","","","","","","","",""
"","","","","","html-button-response","99","332175","0.0-99.0","5485609410874C71B6E44AF064680575","019cf528-4c68-7482-896b-56f679152c4a","019cf509-e3f1-72d9-bf6b-e2f1118fdaab","","929","
                <div class=""stimulus-container"">
                    <img src=""images/schematic_sequence/hotel_scheme/hotel_scheme_ten.png"" class=""exp-image"">
                    <div class=""question-area"">
                        <p style=""font-size: 20px; font-weight: bold; margin: 0;"">Is there a person in this image?</p>
                    </div>
                </div>","0","main_experiment_trial","ten","hotel_scheme","schematic_sequence","","","","",""
"","","","","","html-keyboard-response","100","333177","0.0-100.0","5485609410874C71B6E44AF064680575","019cf528-4c68-7482-896b-56f679152c4a","019cf509-e3f1-72d9-bf6b-e2f1118fdaab","","null","<div style=""background-color: white; width: 100vw; height: 100vh;""></div>","null","","","","","","","","",""
"","","","","","html-keyboard-response","101","338180","0.0-101.0","5485609410874C71B6E44AF064680575","019cf528-4c68-7482-896b-56f679152c4a","019cf509-e3f1-72d9-bf6b-e2f1118fdaab","","null","
                <div class=""stimulus-container"">
                    <img src=""images/causal_sequence/coin_causal/coin_causal_1.png"" class=""exp-image"">
                    <div class=""question-area""></div> 
                </div>","null","","","","","","","","",""
"","","","","","html-button-response","102","340508","0.0-102.0","5485609410874C71B6E44AF064680575","019cf528-4c68-7482-896b-56f679152c4a","019cf509-e3f1-72d9-bf6b-e2f1118fdaab","","2327","
                <div class=""stimulus-container"">
                    <img src=""images/causal_sequence/coin_causal/coin_causal_1.png"" class=""exp-image"">
                    <div class=""question-area"">
                        <p style=""font-size: 20px; font-weight: bold; margin: 0;"">Is there a person in this image?</p>
                    </div>
                </div>","0","main_experiment_trial","1","coin_causal","causal_sequence","","","","",""
"","","","","","html-keyboard-response","103","345510","0.0-103.0","5485609410874C71B6E44AF064680575","019cf528-4c68-7482-896b-56f679152c4a","019cf509-e3f1-72d9-bf6b-e2f1118fdaab","","null","
                <div class=""stimulus-container"">
                    <img src=""images/causal_sequence/coin_causal/coin_causal_2.png"" class=""exp-image"">
                    <div class=""question-area""></div> 
                </div>","null","","","","","","","","",""
"","","","","","html-button-response","104","347242","0.0-104.0","5485609410874C71B6E44AF064680575","019cf528-4c68-7482-896b-56f679152c4a","019cf509-e3f1-72d9-bf6b-e2f1118fdaab","","1730","
                <div class=""stimulus-container"">
                    <img src=""images/causal_sequence/coin_causal/coin_causal_2.png"" class=""exp-image"">
                    <div class=""question-area"">
                        <p style=""font-size: 20px; font-weight: bold; margin: 0;"">Is there a person in this image?</p>
                    </div>
                </div>","0","main_experiment_trial","2","coin_causal","causal_sequence","","","","",""
"","","","","","html-keyboard-response","105","352244","0.0-105.0","5485609410874C71B6E44AF064680575","019cf528-4c68-7482-896b-56f679152c4a","019cf509-e3f1-72d9-bf6b-e2f1118fdaab","","null","
                <div class=""stimulus-container"">
                    <img src=""images/causal_sequence/coin_causal/coin_causal_3.png"" class=""exp-image"">
                    <div class=""question-area""></div> 
                </div>","null","","","","","","","","",""
"","","","","","html-button-response","106","353475","0.0-106.0","5485609410874C71B6E44AF064680575","019cf528-4c68-7482-896b-56f679152c4a","019cf509-e3f1-72d9-bf6b-e2f1118fdaab","","1229","
                <div class=""stimulus-container"">
                    <img src=""images/causal_sequence/coin_causal/coin_causal_3.png"" class=""exp-image"">
                    <div class=""question-area"">
                        <p style=""font-size: 20px; font-weight: bold; margin: 0;"">Is there a person in this image?</p>
                    </div>
                </div>","0","main_experiment_trial","3","coin_causal","causal_sequence","","","","",""
"","","","","","html-keyboard-response","107","358478","0.0-107.0","5485609410874C71B6E44AF064680575","019cf528-4c68-7482-896b-56f679152c4a","019cf509-e3f1-72d9-bf6b-e2f1118fdaab","","null","
                <div class=""stimulus-container"">
                    <img src=""images/causal_sequence/coin_causal/coin_causal_4.png"" class=""exp-image"">
                    <div class=""question-area""></div> 
                </div>","null","","","","","","","","",""
"","","","","","html-button-response","108","359458","0.0-108.0","5485609410874C71B6E44AF064680575","019cf528-4c68-7482-896b-56f679152c4a","019cf509-e3f1-72d9-bf6b-e2f1118fdaab","","979","
                <div class=""stimulus-container"">
                    <img src=""images/causal_sequence/coin_causal/coin_causal_4.png"" class=""exp-image"">
                    <div class=""question-area"">
                        <p style=""font-size: 20px; font-weight: bold; margin: 0;"">Is there a person in this image?</p>
                    </div>
                </div>","0","main_experiment_trial","4","coin_causal","causal_sequence","","","","",""
"","","","","","html-keyboard-response","109","364461","0.0-109.0","5485609410874C71B6E44AF064680575","019cf528-4c68-7482-896b-56f679152c4a","019cf509-e3f1-72d9-bf6b-e2f1118fdaab","","null","
                <div class=""stimulus-container"">
                    <img src=""images/causal_sequence/coin_causal/coin_causal_5.png"" class=""exp-image"">
                    <div class=""question-area""></div> 
                </div>","null","","","","","","","","",""
"","","","","","html-button-response","110","365475","0.0-110.0","5485609410874C71B6E44AF064680575","019cf528-4c68-7482-896b-56f679152c4a","019cf509-e3f1-72d9-bf6b-e2f1118fdaab","","1013","
                <div class=""stimulus-container"">
                    <img src=""images/causal_sequence/coin_causal/coin_causal_5.png"" class=""exp-image"">
                    <div class=""question-area"">
                        <p style=""font-size: 20px; font-weight: bold; margin: 0;"">Is there a person in this image?</p>
                    </div>
                </div>","0","main_experiment_trial","5","coin_causal","causal_sequence","","","","",""
"","","","","","html-keyboard-response","111","370478","0.0-111.0","5485609410874C71B6E44AF064680575","019cf528-4c68-7482-896b-56f679152c4a","019cf509-e3f1-72d9-bf6b-e2f1118fdaab","","null","
                <div class=""stimulus-container"">
                    <img src=""images/causal_sequence/coin_causal/coin_causal_6.png"" class=""exp-image"">
                    <div class=""question-area""></div> 
                </div>","null","","","","","","","","",""
"","","","","","html-button-response","112","371258","0.0-112.0","5485609410874C71B6E44AF064680575","019cf528-4c68-7482-896b-56f679152c4a","019cf509-e3f1-72d9-bf6b-e2f1118fdaab","","779","
                <div class=""stimulus-container"">
                    <img src=""images/causal_sequence/coin_causal/coin_causal_6.png"" class=""exp-image"">
                    <div class=""question-area"">
                        <p style=""font-size: 20px; font-weight: bold; margin: 0;"">Is there a person in this image?</p>
                    </div>
                </div>","0","main_experiment_trial","6","coin_causal","causal_sequence","","","","",""
"","","","","","html-keyboard-response","113","376260","0.0-113.0","5485609410874C71B6E44AF064680575","019cf528-4c68-7482-896b-56f679152c4a","019cf509-e3f1-72d9-bf6b-e2f1118fdaab","","null","
                <div class=""stimulus-container"">
                    <img src=""images/causal_sequence/coin_causal/coin_causal_7.png"" class=""exp-image"">
                    <div class=""question-area""></div> 
                </div>","null","","","","","","","","",""
"","","","","","html-button-response","114","378024","0.0-114.0","5485609410874C71B6E44AF064680575","019cf528-4c68-7482-896b-56f679152c4a","019cf509-e3f1-72d9-bf6b-e2f1118fdaab","","1762","
                <div class=""stimulus-container"">
                    <img src=""images/causal_sequence/coin_causal/coin_causal_7.png"" class=""exp-image"">
                    <div class=""question-area"">
                        <p style=""font-size: 20px; font-weight: bold; margin: 0;"">Is there a person in this image?</p>
                    </div>
                </div>","1","main_experiment_trial","7","coin_causal","causal_sequence","","","","",""
"","","","","","html-keyboard-response","115","383026","0.0-115.0","5485609410874C71B6E44AF064680575","019cf528-4c68-7482-896b-56f679152c4a","019cf509-e3f1-72d9-bf6b-e2f1118fdaab","","null","
                <div class=""stimulus-container"">
                    <img src=""images/causal_sequence/coin_causal/coin_causal_8.png"" class=""exp-image"">
                    <div class=""question-area""></div> 
                </div>","null","","","","","","","","",""
"","","","","","html-button-response","116","384174","0.0-116.0","5485609410874C71B6E44AF064680575","019cf528-4c68-7482-896b-56f679152c4a","019cf509-e3f1-72d9-bf6b-e2f1118fdaab","","1147","
                <div class=""stimulus-container"">
                    <img src=""images/causal_sequence/coin_causal/coin_causal_8.png"" class=""exp-image"">
                    <div class=""question-area"">
                        <p style=""font-size: 20px; font-weight: bold; margin: 0;"">Is there a person in this image?</p>
                    </div>
                </div>","0","main_experiment_trial","8","coin_causal","causal_sequence","","","","",""
"","","","","","html-keyboard-response","117","389178","0.0-117.0","5485609410874C71B6E44AF064680575","019cf528-4c68-7482-896b-56f679152c4a","019cf509-e3f1-72d9-bf6b-e2f1118fdaab","","null","
                <div class=""stimulus-container"">
                    <img src=""images/causal_sequence/coin_causal/coin_causal_9.png"" class=""exp-image"">
                    <div class=""question-area""></div> 
                </div>","null","","","","","","","","",""
"","","","","","html-button-response","118","390274","0.0-118.0","5485609410874C71B6E44AF064680575","019cf528-4c68-7482-896b-56f679152c4a","019cf509-e3f1-72d9-bf6b-e2f1118fdaab","","1095","
                <div class=""stimulus-container"">
                    <img src=""images/causal_sequence/coin_causal/coin_causal_9.png"" class=""exp-image"">
                    <div class=""question-area"">
                        <p style=""font-size: 20px; font-weight: bold; margin: 0;"">Is there a person in this image?</p>
                    </div>
                </div>","0","main_experiment_trial","9","coin_causal","causal_sequence","","","","",""
"","","","","","html-keyboard-response","119","395277","0.0-119.0","5485609410874C71B6E44AF064680575","019cf528-4c68-7482-896b-56f679152c4a","019cf509-e3f1-72d9-bf6b-e2f1118fdaab","","null","
                <div class=""stimulus-container"">
                    <img src=""images/causal_sequence/coin_causal/coin_causal_ten.png"" class=""exp-image"">
                    <div class=""question-area""></div> 
                </div>","null","","","","","","","","",""
"","","","","","html-button-response","120","396608","0.0-120.0","5485609410874C71B6E44AF064680575","019cf528-4c68-7482-896b-56f679152c4a","019cf509-e3f1-72d9-bf6b-e2f1118fdaab","","1329","
                <div class=""stimulus-container"">
                    <img src=""images/causal_sequence/coin_causal/coin_causal_ten.png"" class=""exp-image"">
                    <div class=""question-area"">
                        <p style=""font-size: 20px; font-weight: bold; margin: 0;"">Is there a person in this image?</p>
                    </div>
                </div>","0","main_experiment_trial","ten","coin_causal","causal_sequence","","","","",""
"","","","","","html-keyboard-response","121","397610","0.0-121.0","5485609410874C71B6E44AF064680575","019cf528-4c68-7482-896b-56f679152c4a","019cf509-e3f1-72d9-bf6b-e2f1118fdaab","","null","<div style=""background-color: white; width: 100vw; height: 100vh;""></div>","null","","","","","","","","",""
"","","","","","html-keyboard-response","122","402613","0.0-122.0","5485609410874C71B6E44AF064680575","019cf528-4c68-7482-896b-56f679152c4a","019cf509-e3f1-72d9-bf6b-e2f1118fdaab","","null","
                <div class=""stimulus-container"">
                    <img src=""images/schematic_sequence/interview_scheme/interview_scheme_1.png"" class=""exp-image"">
                    <div class=""question-area""></div> 
                </div>","null","","","","","","","","",""
"","","","","","html-button-response","123","403558","0.0-123.0","5485609410874C71B6E44AF064680575","019cf528-4c68-7482-896b-56f679152c4a","019cf509-e3f1-72d9-bf6b-e2f1118fdaab","","943","
                <div class=""stimulus-container"">
                    <img src=""images/schematic_sequence/interview_scheme/interview_scheme_1.png"" class=""exp-image"">
                    <div class=""question-area"">
                        <p style=""font-size: 20px; font-weight: bold; margin: 0;"">Is there a person in this image?</p>
                    </div>
                </div>","1","main_experiment_trial","1","interview_scheme","schematic_sequence","","","","",""
"","","","","","html-keyboard-response","124","408561","0.0-124.0","5485609410874C71B6E44AF064680575","019cf528-4c68-7482-896b-56f679152c4a","019cf509-e3f1-72d9-bf6b-e2f1118fdaab","","null","
                <div class=""stimulus-container"">
                    <img src=""images/schematic_sequence/interview_scheme/interview_scheme_2.png"" class=""exp-image"">
                    <div class=""question-area""></div> 
                </div>","null","","","","","","","","",""
"","","","","","html-button-response","125","410108","0.0-125.0","5485609410874C71B6E44AF064680575","019cf528-4c68-7482-896b-56f679152c4a","019cf509-e3f1-72d9-bf6b-e2f1118fdaab","","1546","
                <div class=""stimulus-container"">
                    <img src=""images/schematic_sequence/interview_scheme/interview_scheme_2.png"" class=""exp-image"">
                    <div class=""question-area"">
                        <p style=""font-size: 20px; font-weight: bold; margin: 0;"">Is there a person in this image?</p>
                    </div>
                </div>","1","main_experiment_trial","2","interview_scheme","schematic_sequence","","","","",""
"","","","","","html-keyboard-response","126","415111","0.0-126.0","5485609410874C71B6E44AF064680575","019cf528-4c68-7482-896b-56f679152c4a","019cf509-e3f1-72d9-bf6b-e2f1118fdaab","","null","
                <div class=""stimulus-container"">
                    <img src=""images/schematic_sequence/interview_scheme/interview_scheme_3.png"" class=""exp-image"">
                    <div class=""question-area""></div> 
                </div>","null","","","","","","","","",""
"","","","","","html-button-response","127","416175","0.0-127.0","5485609410874C71B6E44AF064680575","019cf528-4c68-7482-896b-56f679152c4a","019cf509-e3f1-72d9-bf6b-e2f1118fdaab","","1062","
                <div class=""stimulus-container"">
                    <img src=""images/schematic_sequence/interview_scheme/interview_scheme_3.png"" class=""exp-image"">
                    <div class=""question-area"">
                        <p style=""font-size: 20px; font-weight: bold; margin: 0;"">Is there a person in this image?</p>
                    </div>
                </div>","1","main_experiment_trial","3","interview_scheme","schematic_sequence","","","","",""
"","","","","","html-keyboard-response","128","421178","0.0-128.0","5485609410874C71B6E44AF064680575","019cf528-4c68-7482-896b-56f679152c4a","019cf509-e3f1-72d9-bf6b-e2f1118fdaab","","null","
                <div class=""stimulus-container"">
                    <img src=""images/schematic_sequence/interview_scheme/interview_scheme_4.png"" class=""exp-image"">
                    <div class=""question-area""></div> 
                </div>","null","","","","","","","","",""
"","","","","","html-button-response","129","421958","0.0-129.0","5485609410874C71B6E44AF064680575","019cf528-4c68-7482-896b-56f679152c4a","019cf509-e3f1-72d9-bf6b-e2f1118fdaab","","778","
                <div class=""stimulus-container"">
                    <img src=""images/schematic_sequence/interview_scheme/interview_scheme_4.png"" class=""exp-image"">
                    <div class=""question-area"">
                        <p style=""font-size: 20px; font-weight: bold; margin: 0;"">Is there a person in this image?</p>
                    </div>
                </div>","1","main_experiment_trial","4","interview_scheme","schematic_sequence","","","","",""
"","","","","","html-keyboard-response","130","426959","0.0-130.0","5485609410874C71B6E44AF064680575","019cf528-4c68-7482-896b-56f679152c4a","019cf509-e3f1-72d9-bf6b-e2f1118fdaab","","null","
                <div class=""stimulus-container"">
                    <img src=""images/schematic_sequence/interview_scheme/interview_scheme_5.png"" class=""exp-image"">
                    <div class=""question-area""></div> 
                </div>","null","","","","","","","","",""
"","","","","","html-button-response","131","428141","0.0-131.0","5485609410874C71B6E44AF064680575","019cf528-4c68-7482-896b-56f679152c4a","019cf509-e3f1-72d9-bf6b-e2f1118fdaab","","1180","
                <div class=""stimulus-container"">
                    <img src=""images/schematic_sequence/interview_scheme/interview_scheme_5.png"" class=""exp-image"">
                    <div class=""question-area"">
                        <p style=""font-size: 20px; font-weight: bold; margin: 0;"">Is there a person in this image?</p>
                    </div>
                </div>","0","main_experiment_trial","5","interview_scheme","schematic_sequence","","","","",""
"","","","","","html-keyboard-response","132","433144","0.0-132.0","5485609410874C71B6E44AF064680575","019cf528-4c68-7482-896b-56f679152c4a","019cf509-e3f1-72d9-bf6b-e2f1118fdaab","","null","
                <div class=""stimulus-container"">
                    <img src=""images/schematic_sequence/interview_scheme/interview_scheme_6.png"" class=""exp-image"">
                    <div class=""question-area""></div> 
                </div>","null","","","","","","","","",""
"","","","","","html-button-response","133","434891","0.0-133.0","5485609410874C71B6E44AF064680575","019cf528-4c68-7482-896b-56f679152c4a","019cf509-e3f1-72d9-bf6b-e2f1118fdaab","","1746","
                <div class=""stimulus-container"">
                    <img src=""images/schematic_sequence/interview_scheme/interview_scheme_6.png"" class=""exp-image"">
                    <div class=""question-area"">
                        <p style=""font-size: 20px; font-weight: bold; margin: 0;"">Is there a person in this image?</p>
                    </div>
                </div>","0","main_experiment_trial","6","interview_scheme","schematic_sequence","","","","",""
"","","","","","html-keyboard-response","134","439894","0.0-134.0","5485609410874C71B6E44AF064680575","019cf528-4c68-7482-896b-56f679152c4a","019cf509-e3f1-72d9-bf6b-e2f1118fdaab","","null","
                <div class=""stimulus-container"">
                    <img src=""images/schematic_sequence/interview_scheme/interview_scheme_7.png"" class=""exp-image"">
                    <div class=""question-area""></div> 
                </div>","null","","","","","","","","",""
"","","","","","html-button-response","135","440741","0.0-135.0","5485609410874C71B6E44AF064680575","019cf528-4c68-7482-896b-56f679152c4a","019cf509-e3f1-72d9-bf6b-e2f1118fdaab","","845","
                <div class=""stimulus-container"">
                    <img src=""images/schematic_sequence/interview_scheme/interview_scheme_7.png"" class=""exp-image"">
                    <div class=""question-area"">
                        <p style=""font-size: 20px; font-weight: bold; margin: 0;"">Is there a person in this image?</p>
                    </div>
                </div>","0","main_experiment_trial","7","interview_scheme","schematic_sequence","","","","",""
"","","","","","html-keyboard-response","136","445744","0.0-136.0","5485609410874C71B6E44AF064680575","019cf528-4c68-7482-896b-56f679152c4a","019cf509-e3f1-72d9-bf6b-e2f1118fdaab","","null","
                <div class=""stimulus-container"">
                    <img src=""images/schematic_sequence/interview_scheme/interview_scheme_8.png"" class=""exp-image"">
                    <div class=""question-area""></div> 
                </div>","null","","","","","","","","",""
"","","","","","html-button-response","137","446591","0.0-137.0","5485609410874C71B6E44AF064680575","019cf528-4c68-7482-896b-56f679152c4a","019cf509-e3f1-72d9-bf6b-e2f1118fdaab","","846","
                <div class=""stimulus-container"">
                    <img src=""images/schematic_sequence/interview_scheme/interview_scheme_8.png"" class=""exp-image"">
                    <div class=""question-area"">
                        <p style=""font-size: 20px; font-weight: bold; margin: 0;"">Is there a person in this image?</p>
                    </div>
                </div>","0","main_experiment_trial","8","interview_scheme","schematic_sequence","","","","",""
"","","","","","html-keyboard-response","138","451594","0.0-138.0","5485609410874C71B6E44AF064680575","019cf528-4c68-7482-896b-56f679152c4a","019cf509-e3f1-72d9-bf6b-e2f1118fdaab","","null","
                <div class=""stimulus-container"">
                    <img src=""images/schematic_sequence/interview_scheme/interview_scheme_9.png"" class=""exp-image"">
                    <div class=""question-area""></div> 
                </div>","null","","","","","","","","",""
"","","","","","html-button-response","139","452508","0.0-139.0","5485609410874C71B6E44AF064680575","019cf528-4c68-7482-896b-56f679152c4a","019cf509-e3f1-72d9-bf6b-e2f1118fdaab","","912","
                <div class=""stimulus-container"">
                    <img src=""images/schematic_sequence/interview_scheme/interview_scheme_9.png"" class=""exp-image"">
                    <div class=""question-area"">
                        <p style=""font-size: 20px; font-weight: bold; margin: 0;"">Is there a person in this image?</p>
                    </div>
                </div>","0","main_experiment_trial","9","interview_scheme","schematic_sequence","","","","",""
"","","","","","html-keyboard-response","140","457510","0.0-140.0","5485609410874C71B6E44AF064680575","019cf528-4c68-7482-896b-56f679152c4a","019cf509-e3f1-72d9-bf6b-e2f1118fdaab","","null","
                <div class=""stimulus-container"">
                    <img src=""images/schematic_sequence/interview_scheme/interview_scheme_ten.png"" class=""exp-image"">
                    <div class=""question-area""></div> 
                </div>","null","","","","","","","","",""
"","","","","","html-button-response","141","458441","0.0-141.0","5485609410874C71B6E44AF064680575","019cf528-4c68-7482-896b-56f679152c4a","019cf509-e3f1-72d9-bf6b-e2f1118fdaab","","929","
                <div class=""stimulus-container"">
                    <img src=""images/schematic_sequence/interview_scheme/interview_scheme_ten.png"" class=""exp-image"">
                    <div class=""question-area"">
                        <p style=""font-size: 20px; font-weight: bold; margin: 0;"">Is there a person in this image?</p>
                    </div>
                </div>","0","main_experiment_trial","ten","interview_scheme","schematic_sequence","","","","",""
"","","","","","html-keyboard-response","142","459444","0.0-142.0","5485609410874C71B6E44AF064680575","019cf528-4c68-7482-896b-56f679152c4a","019cf509-e3f1-72d9-bf6b-e2f1118fdaab","","null","<div style=""background-color: white; width: 100vw; height: 100vh;""></div>","null","","","","","","","","",""
"","","","","","html-keyboard-response","143","464447","0.0-143.0","5485609410874C71B6E44AF064680575","019cf528-4c68-7482-896b-56f679152c4a","019cf509-e3f1-72d9-bf6b-e2f1118fdaab","","null","
                <div class=""stimulus-container"">
                    <img src=""images/causal_sequence/dog_causal/dog_causal_1.png"" class=""exp-image"">
                    <div class=""question-area""></div> 
                </div>","null","","","","","","","","",""
"","","","","","html-button-response","144","465625","0.0-144.0","5485609410874C71B6E44AF064680575","019cf528-4c68-7482-896b-56f679152c4a","019cf509-e3f1-72d9-bf6b-e2f1118fdaab","","1177","
                <div class=""stimulus-container"">
                    <img src=""images/causal_sequence/dog_causal/dog_causal_1.png"" class=""exp-image"">
                    <div class=""question-area"">
                        <p style=""font-size: 20px; font-weight: bold; margin: 0;"">Is there a person in this image?</p>
                    </div>
                </div>","0","main_experiment_trial","1","dog_causal","causal_sequence","","","","",""
"","","","","","html-keyboard-response","145","470627","0.0-145.0","5485609410874C71B6E44AF064680575","019cf528-4c68-7482-896b-56f679152c4a","019cf509-e3f1-72d9-bf6b-e2f1118fdaab","","null","
                <div class=""stimulus-container"">
                    <img src=""images/causal_sequence/dog_causal/dog_causal_2.png"" class=""exp-image"">
                    <div class=""question-area""></div> 
                </div>","null","","","","","","","","",""
"","","","","","html-button-response","146","471674","0.0-146.0","5485609410874C71B6E44AF064680575","019cf528-4c68-7482-896b-56f679152c4a","019cf509-e3f1-72d9-bf6b-e2f1118fdaab","","1046","
                <div class=""stimulus-container"">
                    <img src=""images/causal_sequence/dog_causal/dog_causal_2.png"" class=""exp-image"">
                    <div class=""question-area"">
                        <p style=""font-size: 20px; font-weight: bold; margin: 0;"">Is there a person in this image?</p>
                    </div>
                </div>","0","main_experiment_trial","2","dog_causal","causal_sequence","","","","",""
"","","","","","html-keyboard-response","147","476677","0.0-147.0","5485609410874C71B6E44AF064680575","019cf528-4c68-7482-896b-56f679152c4a","019cf509-e3f1-72d9-bf6b-e2f1118fdaab","","null","
                <div class=""stimulus-container"">
                    <img src=""images/causal_sequence/dog_causal/dog_causal_3.png"" class=""exp-image"">
                    <div class=""question-area""></div> 
                </div>","null","","","","","","","","",""
"","","","","","html-button-response","148","477558","0.0-148.0","5485609410874C71B6E44AF064680575","019cf528-4c68-7482-896b-56f679152c4a","019cf509-e3f1-72d9-bf6b-e2f1118fdaab","","879","
                <div class=""stimulus-container"">
                    <img src=""images/causal_sequence/dog_causal/dog_causal_3.png"" class=""exp-image"">
                    <div class=""question-area"">
                        <p style=""font-size: 20px; font-weight: bold; margin: 0;"">Is there a person in this image?</p>
                    </div>
                </div>","0","main_experiment_trial","3","dog_causal","causal_sequence","","","","",""
"","","","","","html-keyboard-response","149","482560","0.0-149.0","5485609410874C71B6E44AF064680575","019cf528-4c68-7482-896b-56f679152c4a","019cf509-e3f1-72d9-bf6b-e2f1118fdaab","","null","
                <div class=""stimulus-container"">
                    <img src=""images/causal_sequence/dog_causal/dog_causal_4.png"" class=""exp-image"">
                    <div class=""question-area""></div> 
                </div>","null","","","","","","","","",""
"","","","","","html-button-response","150","483308","0.0-150.0","5485609410874C71B6E44AF064680575","019cf528-4c68-7482-896b-56f679152c4a","019cf509-e3f1-72d9-bf6b-e2f1118fdaab","","746","
                <div class=""stimulus-container"">
                    <img src=""images/causal_sequence/dog_causal/dog_causal_4.png"" class=""exp-image"">
                    <div class=""question-area"">
                        <p style=""font-size: 20px; font-weight: bold; margin: 0;"">Is there a person in this image?</p>
                    </div>
                </div>","0","main_experiment_trial","4","dog_causal","causal_sequence","","","","",""
"","","","","","html-keyboard-response","151","488310","0.0-151.0","5485609410874C71B6E44AF064680575","019cf528-4c68-7482-896b-56f679152c4a","019cf509-e3f1-72d9-bf6b-e2f1118fdaab","","null","
                <div class=""stimulus-container"">
                    <img src=""images/causal_sequence/dog_causal/dog_causal_5.png"" class=""exp-image"">
                    <div class=""question-area""></div> 
                </div>","null","","","","","","","","",""
"","","","","","html-button-response","152","489724","0.0-152.0","5485609410874C71B6E44AF064680575","019cf528-4c68-7482-896b-56f679152c4a","019cf509-e3f1-72d9-bf6b-e2f1118fdaab","","1412","
                <div class=""stimulus-container"">
                    <img src=""images/causal_sequence/dog_causal/dog_causal_5.png"" class=""exp-image"">
                    <div class=""question-area"">
                        <p style=""font-size: 20px; font-weight: bold; margin: 0;"">Is there a person in this image?</p>
                    </div>
                </div>","0","main_experiment_trial","5","dog_causal","causal_sequence","","","","",""
"","","","","","html-keyboard-response","153","494728","0.0-153.0","5485609410874C71B6E44AF064680575","019cf528-4c68-7482-896b-56f679152c4a","019cf509-e3f1-72d9-bf6b-e2f1118fdaab","","null","
                <div class=""stimulus-container"">
                    <img src=""images/causal_sequence/dog_causal/dog_causal_6.png"" class=""exp-image"">
                    <div class=""question-area""></div> 
                </div>","null","","","","","","","","",""
"","","","","","html-button-response","154","495675","0.0-154.0","5485609410874C71B6E44AF064680575","019cf528-4c68-7482-896b-56f679152c4a","019cf509-e3f1-72d9-bf6b-e2f1118fdaab","","945","
                <div class=""stimulus-container"">
                    <img src=""images/causal_sequence/dog_causal/dog_causal_6.png"" class=""exp-image"">
                    <div class=""question-area"">
                        <p style=""font-size: 20px; font-weight: bold; margin: 0;"">Is there a person in this image?</p>
                    </div>
                </div>","0","main_experiment_trial","6","dog_causal","causal_sequence","","","","",""
"","","","","","html-keyboard-response","155","500677","0.0-155.0","5485609410874C71B6E44AF064680575","019cf528-4c68-7482-896b-56f679152c4a","019cf509-e3f1-72d9-bf6b-e2f1118fdaab","","null","
                <div class=""stimulus-container"">
                    <img src=""images/causal_sequence/dog_causal/dog_causal_7.png"" class=""exp-image"">
                    <div class=""question-area""></div> 
                </div>","null","","","","","","","","",""
"","","","","","html-button-response","156","501741","0.0-156.0","5485609410874C71B6E44AF064680575","019cf528-4c68-7482-896b-56f679152c4a","019cf509-e3f1-72d9-bf6b-e2f1118fdaab","","1063","
                <div class=""stimulus-container"">
                    <img src=""images/causal_sequence/dog_causal/dog_causal_7.png"" class=""exp-image"">
                    <div class=""question-area"">
                        <p style=""font-size: 20px; font-weight: bold; margin: 0;"">Is there a person in this image?</p>
                    </div>
                </div>","0","main_experiment_trial","7","dog_causal","causal_sequence","","","","",""
"","","","","","html-keyboard-response","157","506744","0.0-157.0","5485609410874C71B6E44AF064680575","019cf528-4c68-7482-896b-56f679152c4a","019cf509-e3f1-72d9-bf6b-e2f1118fdaab","","null","
                <div class=""stimulus-container"">
                    <img src=""images/causal_sequence/dog_causal/dog_causal_8.png"" class=""exp-image"">
                    <div class=""question-area""></div> 
                </div>","null","","","","","","","","",""
"","","","","","html-button-response","158","508191","0.0-158.0","5485609410874C71B6E44AF064680575","019cf528-4c68-7482-896b-56f679152c4a","019cf509-e3f1-72d9-bf6b-e2f1118fdaab","","1446","
                <div class=""stimulus-container"">
                    <img src=""images/causal_sequence/dog_causal/dog_causal_8.png"" class=""exp-image"">
                    <div class=""question-area"">
                        <p style=""font-size: 20px; font-weight: bold; margin: 0;"">Is there a person in this image?</p>
                    </div>
                </div>","0","main_experiment_trial","8","dog_causal","causal_sequence","","","","",""
"","","","","","html-keyboard-response","159","513194","0.0-159.0","5485609410874C71B6E44AF064680575","019cf528-4c68-7482-896b-56f679152c4a","019cf509-e3f1-72d9-bf6b-e2f1118fdaab","","null","
                <div class=""stimulus-container"">
                    <img src=""images/causal_sequence/dog_causal/dog_causal_9.png"" class=""exp-image"">
                    <div class=""question-area""></div> 
                </div>","null","","","","","","","","",""
"","","","","","html-button-response","160","514091","0.0-160.0","5485609410874C71B6E44AF064680575","019cf528-4c68-7482-896b-56f679152c4a","019cf509-e3f1-72d9-bf6b-e2f1118fdaab","","895","
                <div class=""stimulus-container"">
                    <img src=""images/causal_sequence/dog_causal/dog_causal_9.png"" class=""exp-image"">
                    <div class=""question-area"">
                        <p style=""font-size: 20px; font-weight: bold; margin: 0;"">Is there a person in this image?</p>
                    </div>
                </div>","0","main_experiment_trial","9","dog_causal","causal_sequence","","","","",""
"","","","","","html-keyboard-response","161","519094","0.0-161.0","5485609410874C71B6E44AF064680575","019cf528-4c68-7482-896b-56f679152c4a","019cf509-e3f1-72d9-bf6b-e2f1118fdaab","","null","
                <div class=""stimulus-container"">
                    <img src=""images/causal_sequence/dog_causal/dog_causal_ten.png"" class=""exp-image"">
                    <div class=""question-area""></div> 
                </div>","null","","","","","","","","",""
"","","","","","html-button-response","162","520058","0.0-162.0","5485609410874C71B6E44AF064680575","019cf528-4c68-7482-896b-56f679152c4a","019cf509-e3f1-72d9-bf6b-e2f1118fdaab","","962","
                <div class=""stimulus-container"">
                    <img src=""images/causal_sequence/dog_causal/dog_causal_ten.png"" class=""exp-image"">
                    <div class=""question-area"">
                        <p style=""font-size: 20px; font-weight: bold; margin: 0;"">Is there a person in this image?</p>
                    </div>
                </div>","0","main_experiment_trial","ten","dog_causal","causal_sequence","","","","",""
"","","","","","html-keyboard-response","163","521060","0.0-163.0","5485609410874C71B6E44AF064680575","019cf528-4c68-7482-896b-56f679152c4a","019cf509-e3f1-72d9-bf6b-e2f1118fdaab","","null","<div style=""background-color: white; width: 100vw; height: 100vh;""></div>","null","","","","","","","","",""
"","","","","","html-keyboard-response","164","526063","0.0-164.0","5485609410874C71B6E44AF064680575","019cf528-4c68-7482-896b-56f679152c4a","019cf509-e3f1-72d9-bf6b-e2f1118fdaab","","null","
                <div class=""stimulus-container"">
                    <img src=""images/schematic_sequence/restaurant_scheme/restaurant_scheme_1.png"" class=""exp-image"">
                    <div class=""question-area""></div> 
                </div>","null","","","","","","","","",""
"","","","","","html-button-response","165","526924","0.0-165.0","5485609410874C71B6E44AF064680575","019cf528-4c68-7482-896b-56f679152c4a","019cf509-e3f1-72d9-bf6b-e2f1118fdaab","","860","
                <div class=""stimulus-container"">
                    <img src=""images/schematic_sequence/restaurant_scheme/restaurant_scheme_1.png"" class=""exp-image"">
                    <div class=""question-area"">
                        <p style=""font-size: 20px; font-weight: bold; margin: 0;"">Is there a person in this image?</p>
                    </div>
                </div>","0","main_experiment_trial","1","restaurant_scheme","schematic_sequence","","","","",""
"","","","","","html-keyboard-response","166","531927","0.0-166.0","5485609410874C71B6E44AF064680575","019cf528-4c68-7482-896b-56f679152c4a","019cf509-e3f1-72d9-bf6b-e2f1118fdaab","","null","
                <div class=""stimulus-container"">
                    <img src=""images/schematic_sequence/restaurant_scheme/restaurant_scheme_2.png"" class=""exp-image"">
                    <div class=""question-area""></div> 
                </div>","null","","","","","","","","",""
"","","","","","html-button-response","167","533374","0.0-167.0","5485609410874C71B6E44AF064680575","019cf528-4c68-7482-896b-56f679152c4a","019cf509-e3f1-72d9-bf6b-e2f1118fdaab","","1446","
                <div class=""stimulus-container"">
                    <img src=""images/schematic_sequence/restaurant_scheme/restaurant_scheme_2.png"" class=""exp-image"">
                    <div class=""question-area"">
                        <p style=""font-size: 20px; font-weight: bold; margin: 0;"">Is there a person in this image?</p>
                    </div>
                </div>","1","main_experiment_trial","2","restaurant_scheme","schematic_sequence","","","","",""
"","","","","","html-keyboard-response","168","538377","0.0-168.0","5485609410874C71B6E44AF064680575","019cf528-4c68-7482-896b-56f679152c4a","019cf509-e3f1-72d9-bf6b-e2f1118fdaab","","null","
                <div class=""stimulus-container"">
                    <img src=""images/schematic_sequence/restaurant_scheme/restaurant_scheme_3.png"" class=""exp-image"">
                    <div class=""question-area""></div> 
                </div>","null","","","","","","","","",""
"","","","","","html-button-response","169","539691","0.0-169.0","5485609410874C71B6E44AF064680575","019cf528-4c68-7482-896b-56f679152c4a","019cf509-e3f1-72d9-bf6b-e2f1118fdaab","","1312","
                <div class=""stimulus-container"">
                    <img src=""images/schematic_sequence/restaurant_scheme/restaurant_scheme_3.png"" class=""exp-image"">
                    <div class=""question-area"">
                        <p style=""font-size: 20px; font-weight: bold; margin: 0;"">Is there a person in this image?</p>
                    </div>
                </div>","1","main_experiment_trial","3","restaurant_scheme","schematic_sequence","","","","",""
"","","","","","html-keyboard-response","170","544693","0.0-170.0","5485609410874C71B6E44AF064680575","019cf528-4c68-7482-896b-56f679152c4a","019cf509-e3f1-72d9-bf6b-e2f1118fdaab","","null","
                <div class=""stimulus-container"">
                    <img src=""images/schematic_sequence/restaurant_scheme/restaurant_scheme_4.png"" class=""exp-image"">
                    <div class=""question-area""></div> 
                </div>","null","","","","","","","","",""
"","","","","","html-button-response","171","545925","0.0-171.0","5485609410874C71B6E44AF064680575","019cf528-4c68-7482-896b-56f679152c4a","019cf509-e3f1-72d9-bf6b-e2f1118fdaab","","1230","
                <div class=""stimulus-container"">
                    <img src=""images/schematic_sequence/restaurant_scheme/restaurant_scheme_4.png"" class=""exp-image"">
                    <div class=""question-area"">
                        <p style=""font-size: 20px; font-weight: bold; margin: 0;"">Is there a person in this image?</p>
                    </div>
                </div>","0","main_experiment_trial","4","restaurant_scheme","schematic_sequence","","","","",""
"","","","","","html-keyboard-response","172","550927","0.0-172.0","5485609410874C71B6E44AF064680575","019cf528-4c68-7482-896b-56f679152c4a","019cf509-e3f1-72d9-bf6b-e2f1118fdaab","","null","
                <div class=""stimulus-container"">
                    <img src=""images/schematic_sequence/restaurant_scheme/restaurant_scheme_5.png"" class=""exp-image"">
                    <div class=""question-area""></div> 
                </div>","null","","","","","","","","",""
"","","","","","html-button-response","173","551791","0.0-173.0","5485609410874C71B6E44AF064680575","019cf528-4c68-7482-896b-56f679152c4a","019cf509-e3f1-72d9-bf6b-e2f1118fdaab","","862","
                <div class=""stimulus-container"">
                    <img src=""images/schematic_sequence/restaurant_scheme/restaurant_scheme_5.png"" class=""exp-image"">
                    <div class=""question-area"">
                        <p style=""font-size: 20px; font-weight: bold; margin: 0;"">Is there a person in this image?</p>
                    </div>
                </div>","0","main_experiment_trial","5","restaurant_scheme","schematic_sequence","","","","",""
"","","","","","html-keyboard-response","174","556794","0.0-174.0","5485609410874C71B6E44AF064680575","019cf528-4c68-7482-896b-56f679152c4a","019cf509-e3f1-72d9-bf6b-e2f1118fdaab","","null","
                <div class=""stimulus-container"">
                    <img src=""images/schematic_sequence/restaurant_scheme/restaurant_scheme_6.png"" class=""exp-image"">
                    <div class=""question-area""></div> 
                </div>","null","","","","","","","","",""
"","","","","","html-button-response","175","558758","0.0-175.0","5485609410874C71B6E44AF064680575","019cf528-4c68-7482-896b-56f679152c4a","019cf509-e3f1-72d9-bf6b-e2f1118fdaab","","1962","
                <div class=""stimulus-container"">
                    <img src=""images/schematic_sequence/restaurant_scheme/restaurant_scheme_6.png"" class=""exp-image"">
                    <div class=""question-area"">
                        <p style=""font-size: 20px; font-weight: bold; margin: 0;"">Is there a person in this image?</p>
                    </div>
                </div>","1","main_experiment_trial","6","restaurant_scheme","schematic_sequence","","","","",""
"","","","","","html-keyboard-response","176","563760","0.0-176.0","5485609410874C71B6E44AF064680575","019cf528-4c68-7482-896b-56f679152c4a","019cf509-e3f1-72d9-bf6b-e2f1118fdaab","","null","
                <div class=""stimulus-container"">
                    <img src=""images/schematic_sequence/restaurant_scheme/restaurant_scheme_7.png"" class=""exp-image"">
                    <div class=""question-area""></div> 
                </div>","null","","","","","","","","",""
"","","","","","html-button-response","177","564791","0.0-177.0","5485609410874C71B6E44AF064680575","019cf528-4c68-7482-896b-56f679152c4a","019cf509-e3f1-72d9-bf6b-e2f1118fdaab","","1029","
                <div class=""stimulus-container"">
                    <img src=""images/schematic_sequence/restaurant_scheme/restaurant_scheme_7.png"" class=""exp-image"">
                    <div class=""question-area"">
                        <p style=""font-size: 20px; font-weight: bold; margin: 0;"">Is there a person in this image?</p>
                    </div>
                </div>","1","main_experiment_trial","7","restaurant_scheme","schematic_sequence","","","","",""
"","","","","","html-keyboard-response","178","569793","0.0-178.0","5485609410874C71B6E44AF064680575","019cf528-4c68-7482-896b-56f679152c4a","019cf509-e3f1-72d9-bf6b-e2f1118fdaab","","null","
                <div class=""stimulus-container"">
                    <img src=""images/schematic_sequence/restaurant_scheme/restaurant_scheme_8.png"" class=""exp-image"">
                    <div class=""question-area""></div> 
                </div>","null","","","","","","","","",""
"","","","","","html-button-response","179","572796","0.0-179.0","5485609410874C71B6E44AF064680575","019cf528-4c68-7482-896b-56f679152c4a","019cf509-e3f1-72d9-bf6b-e2f1118fdaab","","null","
                <div class=""stimulus-container"">
                    <img src=""images/schematic_sequence/restaurant_scheme/restaurant_scheme_8.png"" class=""exp-image"">
                    <div class=""question-area"">
                        <p style=""font-size: 20px; font-weight: bold; margin: 0;"">Is there a person in this image?</p>
                    </div>
                </div>","null","main_experiment_trial","8","restaurant_scheme","schematic_sequence","","","","",""
"","","","","","html-keyboard-response","180","577799","0.0-180.0","5485609410874C71B6E44AF064680575","019cf528-4c68-7482-896b-56f679152c4a","019cf509-e3f1-72d9-bf6b-e2f1118fdaab","","null","
                <div class=""stimulus-container"">
                    <img src=""images/schematic_sequence/restaurant_scheme/restaurant_scheme_9.png"" class=""exp-image"">
                    <div class=""question-area""></div> 
                </div>","null","","","","","","","","",""
"","","","","","html-button-response","181","579074","0.0-181.0","5485609410874C71B6E44AF064680575","019cf528-4c68-7482-896b-56f679152c4a","019cf509-e3f1-72d9-bf6b-e2f1118fdaab","","1274","
                <div class=""stimulus-container"">
                    <img src=""images/schematic_sequence/restaurant_scheme/restaurant_scheme_9.png"" class=""exp-image"">
                    <div class=""question-area"">
                        <p style=""font-size: 20px; font-weight: bold; margin: 0;"">Is there a person in this image?</p>
                    </div>
                </div>","0","main_experiment_trial","9","restaurant_scheme","schematic_sequence","","","","",""
"","","","","","html-keyboard-response","182","584077","0.0-182.0","5485609410874C71B6E44AF064680575","019cf528-4c68-7482-896b-56f679152c4a","019cf509-e3f1-72d9-bf6b-e2f1118fdaab","","null","
                <div class=""stimulus-container"">
                    <img src=""images/schematic_sequence/restaurant_scheme/restaurant_scheme_ten.png"" class=""exp-image"">
                    <div class=""question-area""></div> 
                </div>","null","","","","","","","","",""
"","","","","","html-button-response","183","584858","0.0-183.0","5485609410874C71B6E44AF064680575","019cf528-4c68-7482-896b-56f679152c4a","019cf509-e3f1-72d9-bf6b-e2f1118fdaab","","779","
                <div class=""stimulus-container"">
                    <img src=""images/schematic_sequence/restaurant_scheme/restaurant_scheme_ten.png"" class=""exp-image"">
                    <div class=""question-area"">
                        <p style=""font-size: 20px; font-weight: bold; margin: 0;"">Is there a person in this image?</p>
                    </div>
                </div>","0","main_experiment_trial","ten","restaurant_scheme","schematic_sequence","","","","",""
