"success","timeout","failed_images","failed_audio","failed_video","trial_type","trial_index","time_elapsed","internal_node_id","subject_id","study_id","session_id","view_history","rt","stimulus","response","task","image_index","folder","sequence_type","presentation_order","valuable_image_index","reward_type","distance_from_x","target_X","chosen_image_index","is_x_plus_dist","correct_choice"
"true","false","[]","[]","[]","preload","0","10650","0.0-0.0","C028508629F045738AB56A3BDD4C76C8","019cfc8f-4b72-7d58-9406-1ab2e4dc3718","019cfc7b-6c7b-7b1b-afe7-acad8efc6711","","","","","","","","","","","","","","","",""
"","","","","","instructions","1","38621","0.0-1.0","C028508629F045738AB56A3BDD4C76C8","019cfc8f-4b72-7d58-9406-1ab2e4dc3718","019cfc7b-6c7b-7b1b-afe7-acad8efc6711","[{""page_index"":0,""viewing_time"":27970}]","27970","","","","","","","","","","","","","",""
"","","","","","instructions","2","42636","0.0-2.0","C028508629F045738AB56A3BDD4C76C8","019cfc8f-4b72-7d58-9406-1ab2e4dc3718","019cfc7b-6c7b-7b1b-afe7-acad8efc6711","[{""page_index"":0,""viewing_time"":4013}]","4013","","","","","","","","","","","","","",""
"true","","","","","fullscreen","3","45088","0.0-3.0","C028508629F045738AB56A3BDD4C76C8","019cfc8f-4b72-7d58-9406-1ab2e4dc3718","019cfc7b-6c7b-7b1b-afe7-acad8efc6711","","1448","","","","","","","","","","","","","",""
"","","","","","instructions","4","49853","0.0-4.0","C028508629F045738AB56A3BDD4C76C8","019cfc8f-4b72-7d58-9406-1ab2e4dc3718","019cfc7b-6c7b-7b1b-afe7-acad8efc6711","[{""page_index"":0,""viewing_time"":4764}]","4764","","","","","","","","","","","","","",""
"","","","","","instructions","5","54570","0.0-5.0","C028508629F045738AB56A3BDD4C76C8","019cfc8f-4b72-7d58-9406-1ab2e4dc3718","019cfc7b-6c7b-7b1b-afe7-acad8efc6711","[{""page_index"":0,""viewing_time"":4715}]","4716","","","","","","","","","","","","","",""
"","","","","","html-keyboard-response","6","58577","0.0-6.0","C028508629F045738AB56A3BDD4C76C8","019cfc8f-4b72-7d58-9406-1ab2e4dc3718","019cfc7b-6c7b-7b1b-afe7-acad8efc6711","","null","
                <div class=""stimulus-container"">
                    <img src=""images/instructions/movie_1.png"" class=""exp-image"">
                    <div class=""question-area""></div> 
                </div>","null","","","","","","","","","","","",""
"","","","","","html-button-response","7","60737","0.0-7.0","C028508629F045738AB56A3BDD4C76C8","019cfc8f-4b72-7d58-9406-1ab2e4dc3718","019cfc7b-6c7b-7b1b-afe7-acad8efc6711","","2155","
                <div class=""stimulus-container"">
                    <img src=""images/instructions/movie_1.png"" class=""exp-image"">
                    <div class=""question-area"">
                        <p style=""font-size: 20px; font-weight: bold; margin: 0;"">Was there a person in this image?</p>
                    </div>
                </div>","0","example_question","1","","","","","","","","","",""
"","","","","","html-keyboard-response","8","64739","0.0-8.0","C028508629F045738AB56A3BDD4C76C8","019cfc8f-4b72-7d58-9406-1ab2e4dc3718","019cfc7b-6c7b-7b1b-afe7-acad8efc6711","","null","
                <div class=""stimulus-container"">
                    <img src=""images/instructions/movie_2.png"" class=""exp-image"">
                    <div class=""question-area""></div> 
                </div>","null","","","","","","","","","","","",""
"","","","","","html-button-response","9","65370","0.0-9.0","C028508629F045738AB56A3BDD4C76C8","019cfc8f-4b72-7d58-9406-1ab2e4dc3718","019cfc7b-6c7b-7b1b-afe7-acad8efc6711","","629","
                <div class=""stimulus-container"">
                    <img src=""images/instructions/movie_2.png"" class=""exp-image"">
                    <div class=""question-area"">
                        <p style=""font-size: 20px; font-weight: bold; margin: 0;"">Was there a person in this image?</p>
                    </div>
                </div>","0","example_question","2","","","","","","","","","",""
"","","","","","html-keyboard-response","10","69373","0.0-10.0","C028508629F045738AB56A3BDD4C76C8","019cfc8f-4b72-7d58-9406-1ab2e4dc3718","019cfc7b-6c7b-7b1b-afe7-acad8efc6711","","null","
                <div class=""stimulus-container"">
                    <img src=""images/instructions/movie_3.png"" class=""exp-image"">
                    <div class=""question-area""></div> 
                </div>","null","","","","","","","","","","","",""
"","","","","","html-button-response","11","69919","0.0-11.0","C028508629F045738AB56A3BDD4C76C8","019cfc8f-4b72-7d58-9406-1ab2e4dc3718","019cfc7b-6c7b-7b1b-afe7-acad8efc6711","","545","
                <div class=""stimulus-container"">
                    <img src=""images/instructions/movie_3.png"" class=""exp-image"">
                    <div class=""question-area"">
                        <p style=""font-size: 20px; font-weight: bold; margin: 0;"">Was there a person in this image?</p>
                    </div>
                </div>","0","example_question","3","","","","","","","","","",""
"","","","","","html-keyboard-response","12","73922","0.0-12.0","C028508629F045738AB56A3BDD4C76C8","019cfc8f-4b72-7d58-9406-1ab2e4dc3718","019cfc7b-6c7b-7b1b-afe7-acad8efc6711","","null","
                <div class=""stimulus-container"">
                    <img src=""images/instructions/movie_4.png"" class=""exp-image"">
                    <div class=""question-area""></div> 
                </div>","null","","","","","","","","","","","",""
"","","","","","html-button-response","13","74437","0.0-13.0","C028508629F045738AB56A3BDD4C76C8","019cfc8f-4b72-7d58-9406-1ab2e4dc3718","019cfc7b-6c7b-7b1b-afe7-acad8efc6711","","512","
                <div class=""stimulus-container"">
                    <img src=""images/instructions/movie_4.png"" class=""exp-image"">
                    <div class=""question-area"">
                        <p style=""font-size: 20px; font-weight: bold; margin: 0;"">Was there a person in this image?</p>
                    </div>
                </div>","0","example_question","4","","","","","","","","","",""
"","","","","","instructions","14","76001","0.0-14.0","C028508629F045738AB56A3BDD4C76C8","019cfc8f-4b72-7d58-9406-1ab2e4dc3718","019cfc7b-6c7b-7b1b-afe7-acad8efc6711","[{""page_index"":0,""viewing_time"":1564}]","1564","","","","","","","","","","","","","",""
"","","","","","instructions","15","79019","0.0-15.0","C028508629F045738AB56A3BDD4C76C8","019cfc8f-4b72-7d58-9406-1ab2e4dc3718","019cfc7b-6c7b-7b1b-afe7-acad8efc6711","[{""page_index"":0,""viewing_time"":3017}]","3017","","","","","","","","","","","","","",""
"","","","","","html-keyboard-response","16","84022","0.0-16.0","C028508629F045738AB56A3BDD4C76C8","019cfc8f-4b72-7d58-9406-1ab2e4dc3718","019cfc7b-6c7b-7b1b-afe7-acad8efc6711","","null","<div style=""background-color: white; width: 100vw; height: 100vh;""></div>","null","","","","","","","","","","","",""
"","","","","","html-keyboard-response","17","89024","0.0-17.0","C028508629F045738AB56A3BDD4C76C8","019cfc8f-4b72-7d58-9406-1ab2e4dc3718","019cfc7b-6c7b-7b1b-afe7-acad8efc6711","","null","
                <div class=""stimulus-container"">
                    <img src=""images/schematic_sequence/interview_scheme/interview_scheme_1.png"" class=""exp-image"">
                    <div class=""question-area""></div> 
                </div>","null","","","","","","","","","","","",""
"","","","","","html-button-response","18","90420","0.0-18.0","C028508629F045738AB56A3BDD4C76C8","019cfc8f-4b72-7d58-9406-1ab2e4dc3718","019cfc7b-6c7b-7b1b-afe7-acad8efc6711","","1394","
                <div class=""stimulus-container"">
                    <img src=""images/schematic_sequence/interview_scheme/interview_scheme_1.png"" class=""exp-image"">
                    <div class=""question-area"">
                        <p style=""font-size: 20px; font-weight: bold; margin: 0;"">Is there a person in this image?</p>
                    </div>
                </div>","1","main_experiment_trial","1","interview_scheme","schematic_sequence","chronological","","","","","","",""
"","","","","","html-keyboard-response","19","95424","0.0-19.0","C028508629F045738AB56A3BDD4C76C8","019cfc8f-4b72-7d58-9406-1ab2e4dc3718","019cfc7b-6c7b-7b1b-afe7-acad8efc6711","","null","
                <div class=""stimulus-container"">
                    <img src=""images/schematic_sequence/interview_scheme/interview_scheme_2.png"" class=""exp-image"">
                    <div class=""question-area""></div> 
                </div>","null","","","","","","","","","","","",""
"","","","","","html-button-response","20","96036","0.0-20.0","C028508629F045738AB56A3BDD4C76C8","019cfc8f-4b72-7d58-9406-1ab2e4dc3718","019cfc7b-6c7b-7b1b-afe7-acad8efc6711","","610","
                <div class=""stimulus-container"">
                    <img src=""images/schematic_sequence/interview_scheme/interview_scheme_2.png"" class=""exp-image"">
                    <div class=""question-area"">
                        <p style=""font-size: 20px; font-weight: bold; margin: 0;"">Is there a person in this image?</p>
                    </div>
                </div>","1","main_experiment_trial","2","interview_scheme","schematic_sequence","chronological","","","","","","",""
"","","","","","html-keyboard-response","21","101038","0.0-21.0","C028508629F045738AB56A3BDD4C76C8","019cfc8f-4b72-7d58-9406-1ab2e4dc3718","019cfc7b-6c7b-7b1b-afe7-acad8efc6711","","null","
                <div class=""stimulus-container"">
                    <img src=""images/schematic_sequence/interview_scheme/interview_scheme_3.png"" class=""exp-image"">
                    <div class=""question-area""></div> 
                </div>","null","","","","","","","","","","","",""
"","","","","","html-button-response","22","101554","0.0-22.0","C028508629F045738AB56A3BDD4C76C8","019cfc8f-4b72-7d58-9406-1ab2e4dc3718","019cfc7b-6c7b-7b1b-afe7-acad8efc6711","","514","
                <div class=""stimulus-container"">
                    <img src=""images/schematic_sequence/interview_scheme/interview_scheme_3.png"" class=""exp-image"">
                    <div class=""question-area"">
                        <p style=""font-size: 20px; font-weight: bold; margin: 0;"">Is there a person in this image?</p>
                    </div>
                </div>","1","main_experiment_trial","3","interview_scheme","schematic_sequence","chronological","","","","","","",""
"","","","","","html-keyboard-response","23","106557","0.0-23.0","C028508629F045738AB56A3BDD4C76C8","019cfc8f-4b72-7d58-9406-1ab2e4dc3718","019cfc7b-6c7b-7b1b-afe7-acad8efc6711","","null","
                <div class=""stimulus-container"">
                    <img src=""images/schematic_sequence/interview_scheme/interview_scheme_4.png"" class=""exp-image"">
                    <div class=""question-area""></div> 
                </div>","null","","","","","","","","","","","",""
"","","","","","html-button-response","24","107020","0.0-24.0","C028508629F045738AB56A3BDD4C76C8","019cfc8f-4b72-7d58-9406-1ab2e4dc3718","019cfc7b-6c7b-7b1b-afe7-acad8efc6711","","461","
                <div class=""stimulus-container"">
                    <img src=""images/schematic_sequence/interview_scheme/interview_scheme_4.png"" class=""exp-image"">
                    <div class=""question-area"">
                        <p style=""font-size: 20px; font-weight: bold; margin: 0;"">Is there a person in this image?</p>
                    </div>
                </div>","1","main_experiment_trial","4","interview_scheme","schematic_sequence","chronological","","","","","","",""
"","","","","","html-keyboard-response","25","112023","0.0-25.0","C028508629F045738AB56A3BDD4C76C8","019cfc8f-4b72-7d58-9406-1ab2e4dc3718","019cfc7b-6c7b-7b1b-afe7-acad8efc6711","","null","
                <div class=""stimulus-container"">
                    <img src=""images/schematic_sequence/interview_scheme/interview_scheme_5.png"" class=""exp-image"">
                    <div class=""question-area""></div> 
                </div>","null","","","","","","","","","","","",""
"","","","","","html-button-response","26","112503","0.0-26.0","C028508629F045738AB56A3BDD4C76C8","019cfc8f-4b72-7d58-9406-1ab2e4dc3718","019cfc7b-6c7b-7b1b-afe7-acad8efc6711","","478","
                <div class=""stimulus-container"">
                    <img src=""images/schematic_sequence/interview_scheme/interview_scheme_5.png"" class=""exp-image"">
                    <div class=""question-area"">
                        <p style=""font-size: 20px; font-weight: bold; margin: 0;"">Is there a person in this image?</p>
                    </div>
                </div>","0","main_experiment_trial","5","interview_scheme","schematic_sequence","chronological","","","","","","",""
"","","","","","html-keyboard-response","27","117506","0.0-27.0","C028508629F045738AB56A3BDD4C76C8","019cfc8f-4b72-7d58-9406-1ab2e4dc3718","019cfc7b-6c7b-7b1b-afe7-acad8efc6711","","null","
                <div class=""stimulus-container"">
                    <img src=""images/schematic_sequence/interview_scheme/interview_scheme_6.png"" class=""exp-image"">
                    <div class=""question-area""></div> 
                </div>","null","","","","","","","","","","","",""
"","","","","","html-button-response","28","118320","0.0-28.0","C028508629F045738AB56A3BDD4C76C8","019cfc8f-4b72-7d58-9406-1ab2e4dc3718","019cfc7b-6c7b-7b1b-afe7-acad8efc6711","","812","
                <div class=""stimulus-container"">
                    <img src=""images/schematic_sequence/interview_scheme/interview_scheme_6.png"" class=""exp-image"">
                    <div class=""question-area"">
                        <p style=""font-size: 20px; font-weight: bold; margin: 0;"">Is there a person in this image?</p>
                    </div>
                </div>","0","main_experiment_trial","6","interview_scheme","schematic_sequence","chronological","","","","","","",""
"","","","","","html-keyboard-response","29","123323","0.0-29.0","C028508629F045738AB56A3BDD4C76C8","019cfc8f-4b72-7d58-9406-1ab2e4dc3718","019cfc7b-6c7b-7b1b-afe7-acad8efc6711","","null","
                <div class=""stimulus-container"">
                    <img src=""images/schematic_sequence/interview_scheme/interview_scheme_7.png"" class=""exp-image"">
                    <div class=""question-area""></div> 
                </div>","null","","","","","","","","","","","",""
"","","","","","html-button-response","30","123935","0.0-30.0","C028508629F045738AB56A3BDD4C76C8","019cfc8f-4b72-7d58-9406-1ab2e4dc3718","019cfc7b-6c7b-7b1b-afe7-acad8efc6711","","610","
                <div class=""stimulus-container"">
                    <img src=""images/schematic_sequence/interview_scheme/interview_scheme_7.png"" class=""exp-image"">
                    <div class=""question-area"">
                        <p style=""font-size: 20px; font-weight: bold; margin: 0;"">Is there a person in this image?</p>
                    </div>
                </div>","0","main_experiment_trial","7","interview_scheme","schematic_sequence","chronological","","","","","","",""
"","","","","","html-keyboard-response","31","128936","0.0-31.0","C028508629F045738AB56A3BDD4C76C8","019cfc8f-4b72-7d58-9406-1ab2e4dc3718","019cfc7b-6c7b-7b1b-afe7-acad8efc6711","","null","
                <div class=""stimulus-container"">
                    <img src=""images/schematic_sequence/interview_scheme/interview_scheme_8.png"" class=""exp-image"">
                    <div class=""question-area""></div> 
                </div>","null","","","","","","","","","","","",""
"","","","","","html-button-response","32","129420","0.0-32.0","C028508629F045738AB56A3BDD4C76C8","019cfc8f-4b72-7d58-9406-1ab2e4dc3718","019cfc7b-6c7b-7b1b-afe7-acad8efc6711","","483","
                <div class=""stimulus-container"">
                    <img src=""images/schematic_sequence/interview_scheme/interview_scheme_8.png"" class=""exp-image"">
                    <div class=""question-area"">
                        <p style=""font-size: 20px; font-weight: bold; margin: 0;"">Is there a person in this image?</p>
                    </div>
                </div>","0","main_experiment_trial","8","interview_scheme","schematic_sequence","chronological","","","","","","",""
"","","","","","html-keyboard-response","33","134422","0.0-33.0","C028508629F045738AB56A3BDD4C76C8","019cfc8f-4b72-7d58-9406-1ab2e4dc3718","019cfc7b-6c7b-7b1b-afe7-acad8efc6711","","null","
                <div class=""stimulus-container"">
                    <img src=""images/schematic_sequence/interview_scheme/interview_scheme_9.png"" class=""exp-image"">
                    <div class=""question-area""></div> 
                </div>","null","","","","","","","","","","","",""
"","","","","","html-button-response","34","134870","0.0-34.0","C028508629F045738AB56A3BDD4C76C8","019cfc8f-4b72-7d58-9406-1ab2e4dc3718","019cfc7b-6c7b-7b1b-afe7-acad8efc6711","","446","
                <div class=""stimulus-container"">
                    <img src=""images/schematic_sequence/interview_scheme/interview_scheme_9.png"" class=""exp-image"">
                    <div class=""question-area"">
                        <p style=""font-size: 20px; font-weight: bold; margin: 0;"">Is there a person in this image?</p>
                    </div>
                </div>","0","main_experiment_trial","9","interview_scheme","schematic_sequence","chronological","","","","","","",""
"","","","","","html-keyboard-response","35","139873","0.0-35.0","C028508629F045738AB56A3BDD4C76C8","019cfc8f-4b72-7d58-9406-1ab2e4dc3718","019cfc7b-6c7b-7b1b-afe7-acad8efc6711","","null","
                <div class=""stimulus-container"">
                    <img src=""images/schematic_sequence/interview_scheme/interview_scheme_ten.png"" class=""exp-image"">
                    <div class=""question-area""></div> 
                </div>","null","","","","","","","","","","","",""
"","","","","","html-button-response","36","140536","0.0-36.0","C028508629F045738AB56A3BDD4C76C8","019cfc8f-4b72-7d58-9406-1ab2e4dc3718","019cfc7b-6c7b-7b1b-afe7-acad8efc6711","","663","
                <div class=""stimulus-container"">
                    <img src=""images/schematic_sequence/interview_scheme/interview_scheme_ten.png"" class=""exp-image"">
                    <div class=""question-area"">
                        <p style=""font-size: 20px; font-weight: bold; margin: 0;"">Is there a person in this image?</p>
                    </div>
                </div>","0","main_experiment_trial","ten","interview_scheme","schematic_sequence","chronological","","","","","","",""
"","","","","","html-keyboard-response","37","145539","0.0-37.0","C028508629F045738AB56A3BDD4C76C8","019cfc8f-4b72-7d58-9406-1ab2e4dc3718","019cfc7b-6c7b-7b1b-afe7-acad8efc6711","","null","<div style=""background-color: white; width: 100vw; height: 100vh;""></div>","null","","","","","","","","","","","",""
"","","","","","html-keyboard-response","38","150540","0.0-38.0","C028508629F045738AB56A3BDD4C76C8","019cfc8f-4b72-7d58-9406-1ab2e4dc3718","019cfc7b-6c7b-7b1b-afe7-acad8efc6711","","null","
                <div class=""stimulus-container"">
                    <img src=""images/semantic_sequence/visiting_cities_semantic/visiting_cities_semantic_1.png"" class=""exp-image"">
                    <div class=""question-area""></div> 
                </div>","null","","","","","","","","","","","",""
"","","","","","html-button-response","39","151785","0.0-39.0","C028508629F045738AB56A3BDD4C76C8","019cfc8f-4b72-7d58-9406-1ab2e4dc3718","019cfc7b-6c7b-7b1b-afe7-acad8efc6711","","1244","
                <div class=""stimulus-container"">
                    <img src=""images/semantic_sequence/visiting_cities_semantic/visiting_cities_semantic_1.png"" class=""exp-image"">
                    <div class=""question-area"">
                        <p style=""font-size: 20px; font-weight: bold; margin: 0;"">Is there a person in this image?</p>
                    </div>
                </div>","0","main_experiment_trial","1","visiting_cities_semantic","semantic_sequence","chronological","","","","","","",""
"","","","","","html-keyboard-response","40","156788","0.0-40.0","C028508629F045738AB56A3BDD4C76C8","019cfc8f-4b72-7d58-9406-1ab2e4dc3718","019cfc7b-6c7b-7b1b-afe7-acad8efc6711","","null","
                <div class=""stimulus-container"">
                    <img src=""images/semantic_sequence/visiting_cities_semantic/visiting_cities_semantic_2.png"" class=""exp-image"">
                    <div class=""question-area""></div> 
                </div>","null","","","","","","","","","","","",""
"","","","","","html-button-response","41","159791","0.0-41.0","C028508629F045738AB56A3BDD4C76C8","019cfc8f-4b72-7d58-9406-1ab2e4dc3718","019cfc7b-6c7b-7b1b-afe7-acad8efc6711","","null","
                <div class=""stimulus-container"">
                    <img src=""images/semantic_sequence/visiting_cities_semantic/visiting_cities_semantic_2.png"" class=""exp-image"">
                    <div class=""question-area"">
                        <p style=""font-size: 20px; font-weight: bold; margin: 0;"">Is there a person in this image?</p>
                    </div>
                </div>","null","main_experiment_trial","2","visiting_cities_semantic","semantic_sequence","chronological","","","","","","",""
"","","","","","html-keyboard-response","42","164792","0.0-42.0","C028508629F045738AB56A3BDD4C76C8","019cfc8f-4b72-7d58-9406-1ab2e4dc3718","019cfc7b-6c7b-7b1b-afe7-acad8efc6711","","null","
                <div class=""stimulus-container"">
                    <img src=""images/semantic_sequence/visiting_cities_semantic/visiting_cities_semantic_3.png"" class=""exp-image"">
                    <div class=""question-area""></div> 
                </div>","null","","","","","","","","","","","",""
"","","","","","html-button-response","43","165620","0.0-43.0","C028508629F045738AB56A3BDD4C76C8","019cfc8f-4b72-7d58-9406-1ab2e4dc3718","019cfc7b-6c7b-7b1b-afe7-acad8efc6711","","826","
                <div class=""stimulus-container"">
                    <img src=""images/semantic_sequence/visiting_cities_semantic/visiting_cities_semantic_3.png"" class=""exp-image"">
                    <div class=""question-area"">
                        <p style=""font-size: 20px; font-weight: bold; margin: 0;"">Is there a person in this image?</p>
                    </div>
                </div>","1","main_experiment_trial","3","visiting_cities_semantic","semantic_sequence","chronological","","","","","","",""
"","","","","","html-keyboard-response","44","170622","0.0-44.0","C028508629F045738AB56A3BDD4C76C8","019cfc8f-4b72-7d58-9406-1ab2e4dc3718","019cfc7b-6c7b-7b1b-afe7-acad8efc6711","","null","
                <div class=""stimulus-container"">
                    <img src=""images/semantic_sequence/visiting_cities_semantic/visiting_cities_semantic_4.png"" class=""exp-image"">
                    <div class=""question-area""></div> 
                </div>","null","","","","","","","","","","","",""
"","","","","","html-button-response","45","171220","0.0-45.0","C028508629F045738AB56A3BDD4C76C8","019cfc8f-4b72-7d58-9406-1ab2e4dc3718","019cfc7b-6c7b-7b1b-afe7-acad8efc6711","","596","
                <div class=""stimulus-container"">
                    <img src=""images/semantic_sequence/visiting_cities_semantic/visiting_cities_semantic_4.png"" class=""exp-image"">
                    <div class=""question-area"">
                        <p style=""font-size: 20px; font-weight: bold; margin: 0;"">Is there a person in this image?</p>
                    </div>
                </div>","1","main_experiment_trial","4","visiting_cities_semantic","semantic_sequence","chronological","","","","","","",""
"","","","","","html-keyboard-response","46","176223","0.0-46.0","C028508629F045738AB56A3BDD4C76C8","019cfc8f-4b72-7d58-9406-1ab2e4dc3718","019cfc7b-6c7b-7b1b-afe7-acad8efc6711","","null","
                <div class=""stimulus-container"">
                    <img src=""images/semantic_sequence/visiting_cities_semantic/visiting_cities_semantic_5.png"" class=""exp-image"">
                    <div class=""question-area""></div> 
                </div>","null","","","","","","","","","","","",""
"","","","","","html-button-response","47","176921","0.0-47.0","C028508629F045738AB56A3BDD4C76C8","019cfc8f-4b72-7d58-9406-1ab2e4dc3718","019cfc7b-6c7b-7b1b-afe7-acad8efc6711","","695","
                <div class=""stimulus-container"">
                    <img src=""images/semantic_sequence/visiting_cities_semantic/visiting_cities_semantic_5.png"" class=""exp-image"">
                    <div class=""question-area"">
                        <p style=""font-size: 20px; font-weight: bold; margin: 0;"">Is there a person in this image?</p>
                    </div>
                </div>","1","main_experiment_trial","5","visiting_cities_semantic","semantic_sequence","chronological","","","","","","",""
"","","","","","html-keyboard-response","48","181923","0.0-48.0","C028508629F045738AB56A3BDD4C76C8","019cfc8f-4b72-7d58-9406-1ab2e4dc3718","019cfc7b-6c7b-7b1b-afe7-acad8efc6711","","null","
                <div class=""stimulus-container"">
                    <img src=""images/semantic_sequence/visiting_cities_semantic/visiting_cities_semantic_6.png"" class=""exp-image"">
                    <div class=""question-area""></div> 
                </div>","null","","","","","","","","","","","",""
"","","","","","html-button-response","49","182753","0.0-49.0","C028508629F045738AB56A3BDD4C76C8","019cfc8f-4b72-7d58-9406-1ab2e4dc3718","019cfc7b-6c7b-7b1b-afe7-acad8efc6711","","829","
                <div class=""stimulus-container"">
                    <img src=""images/semantic_sequence/visiting_cities_semantic/visiting_cities_semantic_6.png"" class=""exp-image"">
                    <div class=""question-area"">
                        <p style=""font-size: 20px; font-weight: bold; margin: 0;"">Is there a person in this image?</p>
                    </div>
                </div>","1","main_experiment_trial","6","visiting_cities_semantic","semantic_sequence","chronological","","","","","","",""
"","","","","","html-keyboard-response","50","187756","0.0-50.0","C028508629F045738AB56A3BDD4C76C8","019cfc8f-4b72-7d58-9406-1ab2e4dc3718","019cfc7b-6c7b-7b1b-afe7-acad8efc6711","","null","
                <div class=""stimulus-container"">
                    <img src=""images/semantic_sequence/visiting_cities_semantic/visiting_cities_semantic_7.png"" class=""exp-image"">
                    <div class=""question-area""></div> 
                </div>","null","","","","","","","","","","","",""
"","","","","","html-button-response","51","188820","0.0-51.0","C028508629F045738AB56A3BDD4C76C8","019cfc8f-4b72-7d58-9406-1ab2e4dc3718","019cfc7b-6c7b-7b1b-afe7-acad8efc6711","","1063","
                <div class=""stimulus-container"">
                    <img src=""images/semantic_sequence/visiting_cities_semantic/visiting_cities_semantic_7.png"" class=""exp-image"">
                    <div class=""question-area"">
                        <p style=""font-size: 20px; font-weight: bold; margin: 0;"">Is there a person in this image?</p>
                    </div>
                </div>","1","main_experiment_trial","7","visiting_cities_semantic","semantic_sequence","chronological","","","","","","",""
"","","","","","html-keyboard-response","52","193823","0.0-52.0","C028508629F045738AB56A3BDD4C76C8","019cfc8f-4b72-7d58-9406-1ab2e4dc3718","019cfc7b-6c7b-7b1b-afe7-acad8efc6711","","null","
                <div class=""stimulus-container"">
                    <img src=""images/semantic_sequence/visiting_cities_semantic/visiting_cities_semantic_8.png"" class=""exp-image"">
                    <div class=""question-area""></div> 
                </div>","null","","","","","","","","","","","",""
"","","","","","html-button-response","53","194370","0.0-53.0","C028508629F045738AB56A3BDD4C76C8","019cfc8f-4b72-7d58-9406-1ab2e4dc3718","019cfc7b-6c7b-7b1b-afe7-acad8efc6711","","545","
                <div class=""stimulus-container"">
                    <img src=""images/semantic_sequence/visiting_cities_semantic/visiting_cities_semantic_8.png"" class=""exp-image"">
                    <div class=""question-area"">
                        <p style=""font-size: 20px; font-weight: bold; margin: 0;"">Is there a person in this image?</p>
                    </div>
                </div>","0","main_experiment_trial","8","visiting_cities_semantic","semantic_sequence","chronological","","","","","","",""
"","","","","","html-keyboard-response","54","199373","0.0-54.0","C028508629F045738AB56A3BDD4C76C8","019cfc8f-4b72-7d58-9406-1ab2e4dc3718","019cfc7b-6c7b-7b1b-afe7-acad8efc6711","","null","
                <div class=""stimulus-container"">
                    <img src=""images/semantic_sequence/visiting_cities_semantic/visiting_cities_semantic_9.png"" class=""exp-image"">
                    <div class=""question-area""></div> 
                </div>","null","","","","","","","","","","","",""
"","","","","","html-button-response","55","200270","0.0-55.0","C028508629F045738AB56A3BDD4C76C8","019cfc8f-4b72-7d58-9406-1ab2e4dc3718","019cfc7b-6c7b-7b1b-afe7-acad8efc6711","","895","
                <div class=""stimulus-container"">
                    <img src=""images/semantic_sequence/visiting_cities_semantic/visiting_cities_semantic_9.png"" class=""exp-image"">
                    <div class=""question-area"">
                        <p style=""font-size: 20px; font-weight: bold; margin: 0;"">Is there a person in this image?</p>
                    </div>
                </div>","0","main_experiment_trial","9","visiting_cities_semantic","semantic_sequence","chronological","","","","","","",""
"","","","","","html-keyboard-response","56","205273","0.0-56.0","C028508629F045738AB56A3BDD4C76C8","019cfc8f-4b72-7d58-9406-1ab2e4dc3718","019cfc7b-6c7b-7b1b-afe7-acad8efc6711","","null","
                <div class=""stimulus-container"">
                    <img src=""images/semantic_sequence/visiting_cities_semantic/visiting_cities_semantic_ten.png"" class=""exp-image"">
                    <div class=""question-area""></div> 
                </div>","null","","","","","","","","","","","",""
"","","","","","html-button-response","57","205970","0.0-57.0","C028508629F045738AB56A3BDD4C76C8","019cfc8f-4b72-7d58-9406-1ab2e4dc3718","019cfc7b-6c7b-7b1b-afe7-acad8efc6711","","695","
                <div class=""stimulus-container"">
                    <img src=""images/semantic_sequence/visiting_cities_semantic/visiting_cities_semantic_ten.png"" class=""exp-image"">
                    <div class=""question-area"">
                        <p style=""font-size: 20px; font-weight: bold; margin: 0;"">Is there a person in this image?</p>
                    </div>
                </div>","0","main_experiment_trial","ten","visiting_cities_semantic","semantic_sequence","chronological","","","","","","",""
"","","","","","html-keyboard-response","58","210973","0.0-58.0","C028508629F045738AB56A3BDD4C76C8","019cfc8f-4b72-7d58-9406-1ab2e4dc3718","019cfc7b-6c7b-7b1b-afe7-acad8efc6711","","null","<div style=""background-color: white; width: 100vw; height: 100vh;""></div>","null","","","","","","","","","","","",""
"","","","","","html-keyboard-response","59","215975","0.0-59.0","C028508629F045738AB56A3BDD4C76C8","019cfc8f-4b72-7d58-9406-1ab2e4dc3718","019cfc7b-6c7b-7b1b-afe7-acad8efc6711","","null","
                <div class=""stimulus-container"">
                    <img src=""images/causal_sequence/museum_causal/museum_causal_1.png"" class=""exp-image"">
                    <div class=""question-area""></div> 
                </div>","null","","","","","","","","","","","",""
"","","","","","html-button-response","60","216487","0.0-60.0","C028508629F045738AB56A3BDD4C76C8","019cfc8f-4b72-7d58-9406-1ab2e4dc3718","019cfc7b-6c7b-7b1b-afe7-acad8efc6711","","511","
                <div class=""stimulus-container"">
                    <img src=""images/causal_sequence/museum_causal/museum_causal_1.png"" class=""exp-image"">
                    <div class=""question-area"">
                        <p style=""font-size: 20px; font-weight: bold; margin: 0;"">Is there a person in this image?</p>
                    </div>
                </div>","0","main_experiment_trial","1","museum_causal","causal_sequence","chronological","","","","","","",""
"","","","","","html-keyboard-response","61","221490","0.0-61.0","C028508629F045738AB56A3BDD4C76C8","019cfc8f-4b72-7d58-9406-1ab2e4dc3718","019cfc7b-6c7b-7b1b-afe7-acad8efc6711","","null","
                <div class=""stimulus-container"">
                    <img src=""images/causal_sequence/museum_causal/museum_causal_2.png"" class=""exp-image"">
                    <div class=""question-area""></div> 
                </div>","null","","","","","","","","","","","",""
"","","","","","html-button-response","62","221970","0.0-62.0","C028508629F045738AB56A3BDD4C76C8","019cfc8f-4b72-7d58-9406-1ab2e4dc3718","019cfc7b-6c7b-7b1b-afe7-acad8efc6711","","478","
                <div class=""stimulus-container"">
                    <img src=""images/causal_sequence/museum_causal/museum_causal_2.png"" class=""exp-image"">
                    <div class=""question-area"">
                        <p style=""font-size: 20px; font-weight: bold; margin: 0;"">Is there a person in this image?</p>
                    </div>
                </div>","0","main_experiment_trial","2","museum_causal","causal_sequence","chronological","","","","","","",""
"","","","","","html-keyboard-response","63","226973","0.0-63.0","C028508629F045738AB56A3BDD4C76C8","019cfc8f-4b72-7d58-9406-1ab2e4dc3718","019cfc7b-6c7b-7b1b-afe7-acad8efc6711","","null","
                <div class=""stimulus-container"">
                    <img src=""images/causal_sequence/museum_causal/museum_causal_3.png"" class=""exp-image"">
                    <div class=""question-area""></div> 
                </div>","null","","","","","","","","","","","",""
"","","","","","html-button-response","64","227504","0.0-64.0","C028508629F045738AB56A3BDD4C76C8","019cfc8f-4b72-7d58-9406-1ab2e4dc3718","019cfc7b-6c7b-7b1b-afe7-acad8efc6711","","529","
                <div class=""stimulus-container"">
                    <img src=""images/causal_sequence/museum_causal/museum_causal_3.png"" class=""exp-image"">
                    <div class=""question-area"">
                        <p style=""font-size: 20px; font-weight: bold; margin: 0;"">Is there a person in this image?</p>
                    </div>
                </div>","0","main_experiment_trial","3","museum_causal","causal_sequence","chronological","","","","","","",""
"","","","","","html-keyboard-response","65","232506","0.0-65.0","C028508629F045738AB56A3BDD4C76C8","019cfc8f-4b72-7d58-9406-1ab2e4dc3718","019cfc7b-6c7b-7b1b-afe7-acad8efc6711","","null","
                <div class=""stimulus-container"">
                    <img src=""images/causal_sequence/museum_causal/museum_causal_4.png"" class=""exp-image"">
                    <div class=""question-area""></div> 
                </div>","null","","","","","","","","","","","",""
"","","","","","html-button-response","66","233437","0.0-66.0","C028508629F045738AB56A3BDD4C76C8","019cfc8f-4b72-7d58-9406-1ab2e4dc3718","019cfc7b-6c7b-7b1b-afe7-acad8efc6711","","930","
                <div class=""stimulus-container"">
                    <img src=""images/causal_sequence/museum_causal/museum_causal_4.png"" class=""exp-image"">
                    <div class=""question-area"">
                        <p style=""font-size: 20px; font-weight: bold; margin: 0;"">Is there a person in this image?</p>
                    </div>
                </div>","1","main_experiment_trial","4","museum_causal","causal_sequence","chronological","","","","","","",""
"","","","","","html-keyboard-response","67","238440","0.0-67.0","C028508629F045738AB56A3BDD4C76C8","019cfc8f-4b72-7d58-9406-1ab2e4dc3718","019cfc7b-6c7b-7b1b-afe7-acad8efc6711","","null","
                <div class=""stimulus-container"">
                    <img src=""images/causal_sequence/museum_causal/museum_causal_5.png"" class=""exp-image"">
                    <div class=""question-area""></div> 
                </div>","null","","","","","","","","","","","",""
"","","","","","html-button-response","68","238887","0.0-68.0","C028508629F045738AB56A3BDD4C76C8","019cfc8f-4b72-7d58-9406-1ab2e4dc3718","019cfc7b-6c7b-7b1b-afe7-acad8efc6711","","446","
                <div class=""stimulus-container"">
                    <img src=""images/causal_sequence/museum_causal/museum_causal_5.png"" class=""exp-image"">
                    <div class=""question-area"">
                        <p style=""font-size: 20px; font-weight: bold; margin: 0;"">Is there a person in this image?</p>
                    </div>
                </div>","0","main_experiment_trial","5","museum_causal","causal_sequence","chronological","","","","","","",""
"","","","","","html-keyboard-response","69","243890","0.0-69.0","C028508629F045738AB56A3BDD4C76C8","019cfc8f-4b72-7d58-9406-1ab2e4dc3718","019cfc7b-6c7b-7b1b-afe7-acad8efc6711","","null","
                <div class=""stimulus-container"">
                    <img src=""images/causal_sequence/museum_causal/museum_causal_6.png"" class=""exp-image"">
                    <div class=""question-area""></div> 
                </div>","null","","","","","","","","","","","",""
"","","","","","html-button-response","70","244354","0.0-70.0","C028508629F045738AB56A3BDD4C76C8","019cfc8f-4b72-7d58-9406-1ab2e4dc3718","019cfc7b-6c7b-7b1b-afe7-acad8efc6711","","463","
                <div class=""stimulus-container"">
                    <img src=""images/causal_sequence/museum_causal/museum_causal_6.png"" class=""exp-image"">
                    <div class=""question-area"">
                        <p style=""font-size: 20px; font-weight: bold; margin: 0;"">Is there a person in this image?</p>
                    </div>
                </div>","0","main_experiment_trial","6","museum_causal","causal_sequence","chronological","","","","","","",""
"","","","","","html-keyboard-response","71","249357","0.0-71.0","C028508629F045738AB56A3BDD4C76C8","019cfc8f-4b72-7d58-9406-1ab2e4dc3718","019cfc7b-6c7b-7b1b-afe7-acad8efc6711","","null","
                <div class=""stimulus-container"">
                    <img src=""images/causal_sequence/museum_causal/museum_causal_7.png"" class=""exp-image"">
                    <div class=""question-area""></div> 
                </div>","null","","","","","","","","","","","",""
"","","","","","html-button-response","72","251786","0.0-72.0","C028508629F045738AB56A3BDD4C76C8","019cfc8f-4b72-7d58-9406-1ab2e4dc3718","019cfc7b-6c7b-7b1b-afe7-acad8efc6711","","2428","
                <div class=""stimulus-container"">
                    <img src=""images/causal_sequence/museum_causal/museum_causal_7.png"" class=""exp-image"">
                    <div class=""question-area"">
                        <p style=""font-size: 20px; font-weight: bold; margin: 0;"">Is there a person in this image?</p>
                    </div>
                </div>","1","main_experiment_trial","7","museum_causal","causal_sequence","chronological","","","","","","",""
"","","","","","html-keyboard-response","73","256788","0.0-73.0","C028508629F045738AB56A3BDD4C76C8","019cfc8f-4b72-7d58-9406-1ab2e4dc3718","019cfc7b-6c7b-7b1b-afe7-acad8efc6711","","null","
                <div class=""stimulus-container"">
                    <img src=""images/causal_sequence/museum_causal/museum_causal_8.png"" class=""exp-image"">
                    <div class=""question-area""></div> 
                </div>","null","","","","","","","","","","","",""
"","","","","","html-button-response","74","257237","0.0-74.0","C028508629F045738AB56A3BDD4C76C8","019cfc8f-4b72-7d58-9406-1ab2e4dc3718","019cfc7b-6c7b-7b1b-afe7-acad8efc6711","","448","
                <div class=""stimulus-container"">
                    <img src=""images/causal_sequence/museum_causal/museum_causal_8.png"" class=""exp-image"">
                    <div class=""question-area"">
                        <p style=""font-size: 20px; font-weight: bold; margin: 0;"">Is there a person in this image?</p>
                    </div>
                </div>","0","main_experiment_trial","8","museum_causal","causal_sequence","chronological","","","","","","",""
"","","","","","html-keyboard-response","75","262239","0.0-75.0","C028508629F045738AB56A3BDD4C76C8","019cfc8f-4b72-7d58-9406-1ab2e4dc3718","019cfc7b-6c7b-7b1b-afe7-acad8efc6711","","null","
                <div class=""stimulus-container"">
                    <img src=""images/causal_sequence/museum_causal/museum_causal_9.png"" class=""exp-image"">
                    <div class=""question-area""></div> 
                </div>","null","","","","","","","","","","","",""
"","","","","","html-button-response","76","262654","0.0-76.0","C028508629F045738AB56A3BDD4C76C8","019cfc8f-4b72-7d58-9406-1ab2e4dc3718","019cfc7b-6c7b-7b1b-afe7-acad8efc6711","","414","
                <div class=""stimulus-container"">
                    <img src=""images/causal_sequence/museum_causal/museum_causal_9.png"" class=""exp-image"">
                    <div class=""question-area"">
                        <p style=""font-size: 20px; font-weight: bold; margin: 0;"">Is there a person in this image?</p>
                    </div>
                </div>","1","main_experiment_trial","9","museum_causal","causal_sequence","chronological","","","","","","",""
"","","","","","html-keyboard-response","77","267656","0.0-77.0","C028508629F045738AB56A3BDD4C76C8","019cfc8f-4b72-7d58-9406-1ab2e4dc3718","019cfc7b-6c7b-7b1b-afe7-acad8efc6711","","null","
                <div class=""stimulus-container"">
                    <img src=""images/causal_sequence/museum_causal/museum_causal_ten.png"" class=""exp-image"">
                    <div class=""question-area""></div> 
                </div>","null","","","","","","","","","","","",""
"","","","","","html-button-response","78","268087","0.0-78.0","C028508629F045738AB56A3BDD4C76C8","019cfc8f-4b72-7d58-9406-1ab2e4dc3718","019cfc7b-6c7b-7b1b-afe7-acad8efc6711","","430","
                <div class=""stimulus-container"">
                    <img src=""images/causal_sequence/museum_causal/museum_causal_ten.png"" class=""exp-image"">
                    <div class=""question-area"">
                        <p style=""font-size: 20px; font-weight: bold; margin: 0;"">Is there a person in this image?</p>
                    </div>
                </div>","0","main_experiment_trial","ten","museum_causal","causal_sequence","chronological","","","","","","",""
"","","","","","html-keyboard-response","79","273090","0.0-79.0","C028508629F045738AB56A3BDD4C76C8","019cfc8f-4b72-7d58-9406-1ab2e4dc3718","019cfc7b-6c7b-7b1b-afe7-acad8efc6711","","null","<div style=""background-color: white; width: 100vw; height: 100vh;""></div>","null","","","","","","","","","","","",""
"","","","","","html-keyboard-response","80","278091","0.0-80.0","C028508629F045738AB56A3BDD4C76C8","019cfc8f-4b72-7d58-9406-1ab2e4dc3718","019cfc7b-6c7b-7b1b-afe7-acad8efc6711","","null","
                <div class=""stimulus-container"">
                    <img src=""images/schematic_sequence/hotel_scheme/hotel_scheme_1.png"" class=""exp-image"">
                    <div class=""question-area""></div> 
                </div>","null","","","","","","","","","","","",""
"","","","","","html-button-response","81","278771","0.0-81.0","C028508629F045738AB56A3BDD4C76C8","019cfc8f-4b72-7d58-9406-1ab2e4dc3718","019cfc7b-6c7b-7b1b-afe7-acad8efc6711","","677","
                <div class=""stimulus-container"">
                    <img src=""images/schematic_sequence/hotel_scheme/hotel_scheme_1.png"" class=""exp-image"">
                    <div class=""question-area"">
                        <p style=""font-size: 20px; font-weight: bold; margin: 0;"">Is there a person in this image?</p>
                    </div>
                </div>","1","main_experiment_trial","1","hotel_scheme","schematic_sequence","chronological","","","","","","",""
"","","","","","html-keyboard-response","82","283774","0.0-82.0","C028508629F045738AB56A3BDD4C76C8","019cfc8f-4b72-7d58-9406-1ab2e4dc3718","019cfc7b-6c7b-7b1b-afe7-acad8efc6711","","null","
                <div class=""stimulus-container"">
                    <img src=""images/schematic_sequence/hotel_scheme/hotel_scheme_2.png"" class=""exp-image"">
                    <div class=""question-area""></div> 
                </div>","null","","","","","","","","","","","",""
"","","","","","html-button-response","83","285221","0.0-83.0","C028508629F045738AB56A3BDD4C76C8","019cfc8f-4b72-7d58-9406-1ab2e4dc3718","019cfc7b-6c7b-7b1b-afe7-acad8efc6711","","1446","
                <div class=""stimulus-container"">
                    <img src=""images/schematic_sequence/hotel_scheme/hotel_scheme_2.png"" class=""exp-image"">
                    <div class=""question-area"">
                        <p style=""font-size: 20px; font-weight: bold; margin: 0;"">Is there a person in this image?</p>
                    </div>
                </div>","0","main_experiment_trial","2","hotel_scheme","schematic_sequence","chronological","","","","","","",""
"","","","","","html-keyboard-response","84","290224","0.0-84.0","C028508629F045738AB56A3BDD4C76C8","019cfc8f-4b72-7d58-9406-1ab2e4dc3718","019cfc7b-6c7b-7b1b-afe7-acad8efc6711","","null","
                <div class=""stimulus-container"">
                    <img src=""images/schematic_sequence/hotel_scheme/hotel_scheme_3.png"" class=""exp-image"">
                    <div class=""question-area""></div> 
                </div>","null","","","","","","","","","","","",""
"","","","","","html-button-response","85","290671","0.0-85.0","C028508629F045738AB56A3BDD4C76C8","019cfc8f-4b72-7d58-9406-1ab2e4dc3718","019cfc7b-6c7b-7b1b-afe7-acad8efc6711","","446","
                <div class=""stimulus-container"">
                    <img src=""images/schematic_sequence/hotel_scheme/hotel_scheme_3.png"" class=""exp-image"">
                    <div class=""question-area"">
                        <p style=""font-size: 20px; font-weight: bold; margin: 0;"">Is there a person in this image?</p>
                    </div>
                </div>","0","main_experiment_trial","3","hotel_scheme","schematic_sequence","chronological","","","","","","",""
"","","","","","html-keyboard-response","86","295673","0.0-86.0","C028508629F045738AB56A3BDD4C76C8","019cfc8f-4b72-7d58-9406-1ab2e4dc3718","019cfc7b-6c7b-7b1b-afe7-acad8efc6711","","null","
                <div class=""stimulus-container"">
                    <img src=""images/schematic_sequence/hotel_scheme/hotel_scheme_4.png"" class=""exp-image"">
                    <div class=""question-area""></div> 
                </div>","null","","","","","","","","","","","",""
"","","","","","html-button-response","87","296054","0.0-87.0","C028508629F045738AB56A3BDD4C76C8","019cfc8f-4b72-7d58-9406-1ab2e4dc3718","019cfc7b-6c7b-7b1b-afe7-acad8efc6711","","380","
                <div class=""stimulus-container"">
                    <img src=""images/schematic_sequence/hotel_scheme/hotel_scheme_4.png"" class=""exp-image"">
                    <div class=""question-area"">
                        <p style=""font-size: 20px; font-weight: bold; margin: 0;"">Is there a person in this image?</p>
                    </div>
                </div>","1","main_experiment_trial","4","hotel_scheme","schematic_sequence","chronological","","","","","","",""
"","","","","","html-keyboard-response","88","301055","0.0-88.0","C028508629F045738AB56A3BDD4C76C8","019cfc8f-4b72-7d58-9406-1ab2e4dc3718","019cfc7b-6c7b-7b1b-afe7-acad8efc6711","","null","
                <div class=""stimulus-container"">
                    <img src=""images/schematic_sequence/hotel_scheme/hotel_scheme_5.png"" class=""exp-image"">
                    <div class=""question-area""></div> 
                </div>","null","","","","","","","","","","","",""
"","","","","","html-button-response","89","301506","0.0-89.0","C028508629F045738AB56A3BDD4C76C8","019cfc8f-4b72-7d58-9406-1ab2e4dc3718","019cfc7b-6c7b-7b1b-afe7-acad8efc6711","","448","
                <div class=""stimulus-container"">
                    <img src=""images/schematic_sequence/hotel_scheme/hotel_scheme_5.png"" class=""exp-image"">
                    <div class=""question-area"">
                        <p style=""font-size: 20px; font-weight: bold; margin: 0;"">Is there a person in this image?</p>
                    </div>
                </div>","0","main_experiment_trial","5","hotel_scheme","schematic_sequence","chronological","","","","","","",""
"","","","","","html-keyboard-response","90","306508","0.0-90.0","C028508629F045738AB56A3BDD4C76C8","019cfc8f-4b72-7d58-9406-1ab2e4dc3718","019cfc7b-6c7b-7b1b-afe7-acad8efc6711","","null","
                <div class=""stimulus-container"">
                    <img src=""images/schematic_sequence/hotel_scheme/hotel_scheme_6.png"" class=""exp-image"">
                    <div class=""question-area""></div> 
                </div>","null","","","","","","","","","","","",""
"","","","","","html-button-response","91","306971","0.0-91.0","C028508629F045738AB56A3BDD4C76C8","019cfc8f-4b72-7d58-9406-1ab2e4dc3718","019cfc7b-6c7b-7b1b-afe7-acad8efc6711","","461","
                <div class=""stimulus-container"">
                    <img src=""images/schematic_sequence/hotel_scheme/hotel_scheme_6.png"" class=""exp-image"">
                    <div class=""question-area"">
                        <p style=""font-size: 20px; font-weight: bold; margin: 0;"">Is there a person in this image?</p>
                    </div>
                </div>","0","main_experiment_trial","6","hotel_scheme","schematic_sequence","chronological","","","","","","",""
"","","","","","html-keyboard-response","92","311974","0.0-92.0","C028508629F045738AB56A3BDD4C76C8","019cfc8f-4b72-7d58-9406-1ab2e4dc3718","019cfc7b-6c7b-7b1b-afe7-acad8efc6711","","null","
                <div class=""stimulus-container"">
                    <img src=""images/schematic_sequence/hotel_scheme/hotel_scheme_7.png"" class=""exp-image"">
                    <div class=""question-area""></div> 
                </div>","null","","","","","","","","","","","",""
"","","","","","html-button-response","93","312420","0.0-93.0","C028508629F045738AB56A3BDD4C76C8","019cfc8f-4b72-7d58-9406-1ab2e4dc3718","019cfc7b-6c7b-7b1b-afe7-acad8efc6711","","446","
                <div class=""stimulus-container"">
                    <img src=""images/schematic_sequence/hotel_scheme/hotel_scheme_7.png"" class=""exp-image"">
                    <div class=""question-area"">
                        <p style=""font-size: 20px; font-weight: bold; margin: 0;"">Is there a person in this image?</p>
                    </div>
                </div>","0","main_experiment_trial","7","hotel_scheme","schematic_sequence","chronological","","","","","","",""
"","","","","","html-keyboard-response","94","317422","0.0-94.0","C028508629F045738AB56A3BDD4C76C8","019cfc8f-4b72-7d58-9406-1ab2e4dc3718","019cfc7b-6c7b-7b1b-afe7-acad8efc6711","","null","
                <div class=""stimulus-container"">
                    <img src=""images/schematic_sequence/hotel_scheme/hotel_scheme_8.png"" class=""exp-image"">
                    <div class=""question-area""></div> 
                </div>","null","","","","","","","","","","","",""
"","","","","","html-button-response","95","317821","0.0-95.0","C028508629F045738AB56A3BDD4C76C8","019cfc8f-4b72-7d58-9406-1ab2e4dc3718","019cfc7b-6c7b-7b1b-afe7-acad8efc6711","","397","
                <div class=""stimulus-container"">
                    <img src=""images/schematic_sequence/hotel_scheme/hotel_scheme_8.png"" class=""exp-image"">
                    <div class=""question-area"">
                        <p style=""font-size: 20px; font-weight: bold; margin: 0;"">Is there a person in this image?</p>
                    </div>
                </div>","0","main_experiment_trial","8","hotel_scheme","schematic_sequence","chronological","","","","","","",""
"","","","","","html-keyboard-response","96","322823","0.0-96.0","C028508629F045738AB56A3BDD4C76C8","019cfc8f-4b72-7d58-9406-1ab2e4dc3718","019cfc7b-6c7b-7b1b-afe7-acad8efc6711","","null","
                <div class=""stimulus-container"">
                    <img src=""images/schematic_sequence/hotel_scheme/hotel_scheme_9.png"" class=""exp-image"">
                    <div class=""question-area""></div> 
                </div>","null","","","","","","","","","","","",""
"","","","","","html-button-response","97","323237","0.0-97.0","C028508629F045738AB56A3BDD4C76C8","019cfc8f-4b72-7d58-9406-1ab2e4dc3718","019cfc7b-6c7b-7b1b-afe7-acad8efc6711","","412","
                <div class=""stimulus-container"">
                    <img src=""images/schematic_sequence/hotel_scheme/hotel_scheme_9.png"" class=""exp-image"">
                    <div class=""question-area"">
                        <p style=""font-size: 20px; font-weight: bold; margin: 0;"">Is there a person in this image?</p>
                    </div>
                </div>","0","main_experiment_trial","9","hotel_scheme","schematic_sequence","chronological","","","","","","",""
"","","","","","html-keyboard-response","98","328240","0.0-98.0","C028508629F045738AB56A3BDD4C76C8","019cfc8f-4b72-7d58-9406-1ab2e4dc3718","019cfc7b-6c7b-7b1b-afe7-acad8efc6711","","null","
                <div class=""stimulus-container"">
                    <img src=""images/schematic_sequence/hotel_scheme/hotel_scheme_ten.png"" class=""exp-image"">
                    <div class=""question-area""></div> 
                </div>","null","","","","","","","","","","","",""
"","","","","","html-button-response","99","328654","0.0-99.0","C028508629F045738AB56A3BDD4C76C8","019cfc8f-4b72-7d58-9406-1ab2e4dc3718","019cfc7b-6c7b-7b1b-afe7-acad8efc6711","","412","
                <div class=""stimulus-container"">
                    <img src=""images/schematic_sequence/hotel_scheme/hotel_scheme_ten.png"" class=""exp-image"">
                    <div class=""question-area"">
                        <p style=""font-size: 20px; font-weight: bold; margin: 0;"">Is there a person in this image?</p>
                    </div>
                </div>","0","main_experiment_trial","ten","hotel_scheme","schematic_sequence","chronological","","","","","","",""
"","","","","","html-keyboard-response","100","333657","0.0-100.0","C028508629F045738AB56A3BDD4C76C8","019cfc8f-4b72-7d58-9406-1ab2e4dc3718","019cfc7b-6c7b-7b1b-afe7-acad8efc6711","","null","<div style=""background-color: white; width: 100vw; height: 100vh;""></div>","null","","","","","","","","","","","",""
"","","","","","html-keyboard-response","101","338658","0.0-101.0","C028508629F045738AB56A3BDD4C76C8","019cfc8f-4b72-7d58-9406-1ab2e4dc3718","019cfc7b-6c7b-7b1b-afe7-acad8efc6711","","null","
                <div class=""stimulus-container"">
                    <img src=""images/schematic_sequence/restaurant_scheme/restaurant_scheme_1.png"" class=""exp-image"">
                    <div class=""question-area""></div> 
                </div>","null","","","","","","","","","","","",""
"","","","","","html-button-response","102","339105","0.0-102.0","C028508629F045738AB56A3BDD4C76C8","019cfc8f-4b72-7d58-9406-1ab2e4dc3718","019cfc7b-6c7b-7b1b-afe7-acad8efc6711","","445","
                <div class=""stimulus-container"">
                    <img src=""images/schematic_sequence/restaurant_scheme/restaurant_scheme_1.png"" class=""exp-image"">
                    <div class=""question-area"">
                        <p style=""font-size: 20px; font-weight: bold; margin: 0;"">Is there a person in this image?</p>
                    </div>
                </div>","0","main_experiment_trial","1","restaurant_scheme","schematic_sequence","chronological","","","","","","",""
"","","","","","html-keyboard-response","103","344107","0.0-103.0","C028508629F045738AB56A3BDD4C76C8","019cfc8f-4b72-7d58-9406-1ab2e4dc3718","019cfc7b-6c7b-7b1b-afe7-acad8efc6711","","null","
                <div class=""stimulus-container"">
                    <img src=""images/schematic_sequence/restaurant_scheme/restaurant_scheme_2.png"" class=""exp-image"">
                    <div class=""question-area""></div> 
                </div>","null","","","","","","","","","","","",""
"","","","","","html-button-response","104","344521","0.0-104.0","C028508629F045738AB56A3BDD4C76C8","019cfc8f-4b72-7d58-9406-1ab2e4dc3718","019cfc7b-6c7b-7b1b-afe7-acad8efc6711","","412","
                <div class=""stimulus-container"">
                    <img src=""images/schematic_sequence/restaurant_scheme/restaurant_scheme_2.png"" class=""exp-image"">
                    <div class=""question-area"">
                        <p style=""font-size: 20px; font-weight: bold; margin: 0;"">Is there a person in this image?</p>
                    </div>
                </div>","1","main_experiment_trial","2","restaurant_scheme","schematic_sequence","chronological","","","","","","",""
"","","","","","html-keyboard-response","105","349524","0.0-105.0","C028508629F045738AB56A3BDD4C76C8","019cfc8f-4b72-7d58-9406-1ab2e4dc3718","019cfc7b-6c7b-7b1b-afe7-acad8efc6711","","null","
                <div class=""stimulus-container"">
                    <img src=""images/schematic_sequence/restaurant_scheme/restaurant_scheme_3.png"" class=""exp-image"">
                    <div class=""question-area""></div> 
                </div>","null","","","","","","","","","","","",""
"","","","","","html-button-response","106","349971","0.0-106.0","C028508629F045738AB56A3BDD4C76C8","019cfc8f-4b72-7d58-9406-1ab2e4dc3718","019cfc7b-6c7b-7b1b-afe7-acad8efc6711","","445","
                <div class=""stimulus-container"">
                    <img src=""images/schematic_sequence/restaurant_scheme/restaurant_scheme_3.png"" class=""exp-image"">
                    <div class=""question-area"">
                        <p style=""font-size: 20px; font-weight: bold; margin: 0;"">Is there a person in this image?</p>
                    </div>
                </div>","1","main_experiment_trial","3","restaurant_scheme","schematic_sequence","chronological","","","","","","",""
"","","","","","html-keyboard-response","107","354973","0.0-107.0","C028508629F045738AB56A3BDD4C76C8","019cfc8f-4b72-7d58-9406-1ab2e4dc3718","019cfc7b-6c7b-7b1b-afe7-acad8efc6711","","null","
                <div class=""stimulus-container"">
                    <img src=""images/schematic_sequence/restaurant_scheme/restaurant_scheme_4.png"" class=""exp-image"">
                    <div class=""question-area""></div> 
                </div>","null","","","","","","","","","","","",""
"","","","","","html-button-response","108","355439","0.0-108.0","C028508629F045738AB56A3BDD4C76C8","019cfc8f-4b72-7d58-9406-1ab2e4dc3718","019cfc7b-6c7b-7b1b-afe7-acad8efc6711","","464","
                <div class=""stimulus-container"">
                    <img src=""images/schematic_sequence/restaurant_scheme/restaurant_scheme_4.png"" class=""exp-image"">
                    <div class=""question-area"">
                        <p style=""font-size: 20px; font-weight: bold; margin: 0;"">Is there a person in this image?</p>
                    </div>
                </div>","0","main_experiment_trial","4","restaurant_scheme","schematic_sequence","chronological","","","","","","",""
"","","","","","html-keyboard-response","109","360441","0.0-109.0","C028508629F045738AB56A3BDD4C76C8","019cfc8f-4b72-7d58-9406-1ab2e4dc3718","019cfc7b-6c7b-7b1b-afe7-acad8efc6711","","null","
                <div class=""stimulus-container"">
                    <img src=""images/schematic_sequence/restaurant_scheme/restaurant_scheme_5.png"" class=""exp-image"">
                    <div class=""question-area""></div> 
                </div>","null","","","","","","","","","","","",""
"","","","","","html-button-response","110","361021","0.0-110.0","C028508629F045738AB56A3BDD4C76C8","019cfc8f-4b72-7d58-9406-1ab2e4dc3718","019cfc7b-6c7b-7b1b-afe7-acad8efc6711","","578","
                <div class=""stimulus-container"">
                    <img src=""images/schematic_sequence/restaurant_scheme/restaurant_scheme_5.png"" class=""exp-image"">
                    <div class=""question-area"">
                        <p style=""font-size: 20px; font-weight: bold; margin: 0;"">Is there a person in this image?</p>
                    </div>
                </div>","0","main_experiment_trial","5","restaurant_scheme","schematic_sequence","chronological","","","","","","",""
"","","","","","html-keyboard-response","111","366024","0.0-111.0","C028508629F045738AB56A3BDD4C76C8","019cfc8f-4b72-7d58-9406-1ab2e4dc3718","019cfc7b-6c7b-7b1b-afe7-acad8efc6711","","null","
                <div class=""stimulus-container"">
                    <img src=""images/schematic_sequence/restaurant_scheme/restaurant_scheme_6.png"" class=""exp-image"">
                    <div class=""question-area""></div> 
                </div>","null","","","","","","","","","","","",""
"","","","","","html-button-response","112","366522","0.0-112.0","C028508629F045738AB56A3BDD4C76C8","019cfc8f-4b72-7d58-9406-1ab2e4dc3718","019cfc7b-6c7b-7b1b-afe7-acad8efc6711","","496","
                <div class=""stimulus-container"">
                    <img src=""images/schematic_sequence/restaurant_scheme/restaurant_scheme_6.png"" class=""exp-image"">
                    <div class=""question-area"">
                        <p style=""font-size: 20px; font-weight: bold; margin: 0;"">Is there a person in this image?</p>
                    </div>
                </div>","1","main_experiment_trial","6","restaurant_scheme","schematic_sequence","chronological","","","","","","",""
"","","","","","html-keyboard-response","113","371525","0.0-113.0","C028508629F045738AB56A3BDD4C76C8","019cfc8f-4b72-7d58-9406-1ab2e4dc3718","019cfc7b-6c7b-7b1b-afe7-acad8efc6711","","null","
                <div class=""stimulus-container"">
                    <img src=""images/schematic_sequence/restaurant_scheme/restaurant_scheme_7.png"" class=""exp-image"">
                    <div class=""question-area""></div> 
                </div>","null","","","","","","","","","","","",""
"","","","","","html-button-response","114","371903","0.0-114.0","C028508629F045738AB56A3BDD4C76C8","019cfc8f-4b72-7d58-9406-1ab2e4dc3718","019cfc7b-6c7b-7b1b-afe7-acad8efc6711","","378","
                <div class=""stimulus-container"">
                    <img src=""images/schematic_sequence/restaurant_scheme/restaurant_scheme_7.png"" class=""exp-image"">
                    <div class=""question-area"">
                        <p style=""font-size: 20px; font-weight: bold; margin: 0;"">Is there a person in this image?</p>
                    </div>
                </div>","1","main_experiment_trial","7","restaurant_scheme","schematic_sequence","chronological","","","","","","",""
"","","","","","html-keyboard-response","115","376905","0.0-115.0","C028508629F045738AB56A3BDD4C76C8","019cfc8f-4b72-7d58-9406-1ab2e4dc3718","019cfc7b-6c7b-7b1b-afe7-acad8efc6711","","null","
                <div class=""stimulus-container"">
                    <img src=""images/schematic_sequence/restaurant_scheme/restaurant_scheme_8.png"" class=""exp-image"">
                    <div class=""question-area""></div> 
                </div>","null","","","","","","","","","","","",""
"","","","","","html-button-response","116","377355","0.0-116.0","C028508629F045738AB56A3BDD4C76C8","019cfc8f-4b72-7d58-9406-1ab2e4dc3718","019cfc7b-6c7b-7b1b-afe7-acad8efc6711","","448","
                <div class=""stimulus-container"">
                    <img src=""images/schematic_sequence/restaurant_scheme/restaurant_scheme_8.png"" class=""exp-image"">
                    <div class=""question-area"">
                        <p style=""font-size: 20px; font-weight: bold; margin: 0;"">Is there a person in this image?</p>
                    </div>
                </div>","0","main_experiment_trial","8","restaurant_scheme","schematic_sequence","chronological","","","","","","",""
"","","","","","html-keyboard-response","117","382358","0.0-117.0","C028508629F045738AB56A3BDD4C76C8","019cfc8f-4b72-7d58-9406-1ab2e4dc3718","019cfc7b-6c7b-7b1b-afe7-acad8efc6711","","null","
                <div class=""stimulus-container"">
                    <img src=""images/schematic_sequence/restaurant_scheme/restaurant_scheme_9.png"" class=""exp-image"">
                    <div class=""question-area""></div> 
                </div>","null","","","","","","","","","","","",""
"","","","","","html-button-response","118","382755","0.0-118.0","C028508629F045738AB56A3BDD4C76C8","019cfc8f-4b72-7d58-9406-1ab2e4dc3718","019cfc7b-6c7b-7b1b-afe7-acad8efc6711","","395","
                <div class=""stimulus-container"">
                    <img src=""images/schematic_sequence/restaurant_scheme/restaurant_scheme_9.png"" class=""exp-image"">
                    <div class=""question-area"">
                        <p style=""font-size: 20px; font-weight: bold; margin: 0;"">Is there a person in this image?</p>
                    </div>
                </div>","0","main_experiment_trial","9","restaurant_scheme","schematic_sequence","chronological","","","","","","",""
"","","","","","html-keyboard-response","119","387757","0.0-119.0","C028508629F045738AB56A3BDD4C76C8","019cfc8f-4b72-7d58-9406-1ab2e4dc3718","019cfc7b-6c7b-7b1b-afe7-acad8efc6711","","null","
                <div class=""stimulus-container"">
                    <img src=""images/schematic_sequence/restaurant_scheme/restaurant_scheme_ten.png"" class=""exp-image"">
                    <div class=""question-area""></div> 
                </div>","null","","","","","","","","","","","",""
"","","","","","html-button-response","120","388139","0.0-120.0","C028508629F045738AB56A3BDD4C76C8","019cfc8f-4b72-7d58-9406-1ab2e4dc3718","019cfc7b-6c7b-7b1b-afe7-acad8efc6711","","380","
                <div class=""stimulus-container"">
                    <img src=""images/schematic_sequence/restaurant_scheme/restaurant_scheme_ten.png"" class=""exp-image"">
                    <div class=""question-area"">
                        <p style=""font-size: 20px; font-weight: bold; margin: 0;"">Is there a person in this image?</p>
                    </div>
                </div>","0","main_experiment_trial","ten","restaurant_scheme","schematic_sequence","chronological","","","","","","",""
"","","","","","html-keyboard-response","121","393142","0.0-121.0","C028508629F045738AB56A3BDD4C76C8","019cfc8f-4b72-7d58-9406-1ab2e4dc3718","019cfc7b-6c7b-7b1b-afe7-acad8efc6711","","null","<div style=""background-color: white; width: 100vw; height: 100vh;""></div>","null","","","","","","","","","","","",""
"","","","","","html-keyboard-response","122","398144","0.0-122.0","C028508629F045738AB56A3BDD4C76C8","019cfc8f-4b72-7d58-9406-1ab2e4dc3718","019cfc7b-6c7b-7b1b-afe7-acad8efc6711","","null","
                <div class=""stimulus-container"">
                    <img src=""images/schematic_sequence/flight_scheme/flight_scheme_1.png"" class=""exp-image"">
                    <div class=""question-area""></div> 
                </div>","null","","","","","","","","","","","",""
"","","","","","html-button-response","123","398639","0.0-123.0","C028508629F045738AB56A3BDD4C76C8","019cfc8f-4b72-7d58-9406-1ab2e4dc3718","019cfc7b-6c7b-7b1b-afe7-acad8efc6711","","493","
                <div class=""stimulus-container"">
                    <img src=""images/schematic_sequence/flight_scheme/flight_scheme_1.png"" class=""exp-image"">
                    <div class=""question-area"">
                        <p style=""font-size: 20px; font-weight: bold; margin: 0;"">Is there a person in this image?</p>
                    </div>
                </div>","0","main_experiment_trial","1","flight_scheme","schematic_sequence","chronological","","","","","","",""
"","","","","","html-keyboard-response","124","403641","0.0-124.0","C028508629F045738AB56A3BDD4C76C8","019cfc8f-4b72-7d58-9406-1ab2e4dc3718","019cfc7b-6c7b-7b1b-afe7-acad8efc6711","","null","
                <div class=""stimulus-container"">
                    <img src=""images/schematic_sequence/flight_scheme/flight_scheme_2.png"" class=""exp-image"">
                    <div class=""question-area""></div> 
                </div>","null","","","","","","","","","","","",""
"","","","","","html-button-response","125","404105","0.0-125.0","C028508629F045738AB56A3BDD4C76C8","019cfc8f-4b72-7d58-9406-1ab2e4dc3718","019cfc7b-6c7b-7b1b-afe7-acad8efc6711","","462","
                <div class=""stimulus-container"">
                    <img src=""images/schematic_sequence/flight_scheme/flight_scheme_2.png"" class=""exp-image"">
                    <div class=""question-area"">
                        <p style=""font-size: 20px; font-weight: bold; margin: 0;"">Is there a person in this image?</p>
                    </div>
                </div>","1","main_experiment_trial","2","flight_scheme","schematic_sequence","chronological","","","","","","",""
"","","","","","html-keyboard-response","126","409108","0.0-126.0","C028508629F045738AB56A3BDD4C76C8","019cfc8f-4b72-7d58-9406-1ab2e4dc3718","019cfc7b-6c7b-7b1b-afe7-acad8efc6711","","null","
                <div class=""stimulus-container"">
                    <img src=""images/schematic_sequence/flight_scheme/flight_scheme_3.png"" class=""exp-image"">
                    <div class=""question-area""></div> 
                </div>","null","","","","","","","","","","","",""
"","","","","","html-button-response","127","411456","0.0-127.0","C028508629F045738AB56A3BDD4C76C8","019cfc8f-4b72-7d58-9406-1ab2e4dc3718","019cfc7b-6c7b-7b1b-afe7-acad8efc6711","","2345","
                <div class=""stimulus-container"">
                    <img src=""images/schematic_sequence/flight_scheme/flight_scheme_3.png"" class=""exp-image"">
                    <div class=""question-area"">
                        <p style=""font-size: 20px; font-weight: bold; margin: 0;"">Is there a person in this image?</p>
                    </div>
                </div>","0","main_experiment_trial","3","flight_scheme","schematic_sequence","chronological","","","","","","",""
"","","","","","html-keyboard-response","128","416458","0.0-128.0","C028508629F045738AB56A3BDD4C76C8","019cfc8f-4b72-7d58-9406-1ab2e4dc3718","019cfc7b-6c7b-7b1b-afe7-acad8efc6711","","null","
                <div class=""stimulus-container"">
                    <img src=""images/schematic_sequence/flight_scheme/flight_scheme_4.png"" class=""exp-image"">
                    <div class=""question-area""></div> 
                </div>","null","","","","","","","","","","","",""
"","","","","","html-button-response","129","417189","0.0-129.0","C028508629F045738AB56A3BDD4C76C8","019cfc8f-4b72-7d58-9406-1ab2e4dc3718","019cfc7b-6c7b-7b1b-afe7-acad8efc6711","","730","
                <div class=""stimulus-container"">
                    <img src=""images/schematic_sequence/flight_scheme/flight_scheme_4.png"" class=""exp-image"">
                    <div class=""question-area"">
                        <p style=""font-size: 20px; font-weight: bold; margin: 0;"">Is there a person in this image?</p>
                    </div>
                </div>","0","main_experiment_trial","4","flight_scheme","schematic_sequence","chronological","","","","","","",""
"","","","","","html-keyboard-response","130","422191","0.0-130.0","C028508629F045738AB56A3BDD4C76C8","019cfc8f-4b72-7d58-9406-1ab2e4dc3718","019cfc7b-6c7b-7b1b-afe7-acad8efc6711","","null","
                <div class=""stimulus-container"">
                    <img src=""images/schematic_sequence/flight_scheme/flight_scheme_5.png"" class=""exp-image"">
                    <div class=""question-area""></div> 
                </div>","null","","","","","","","","","","","",""
"","","","","","html-button-response","131","422872","0.0-131.0","C028508629F045738AB56A3BDD4C76C8","019cfc8f-4b72-7d58-9406-1ab2e4dc3718","019cfc7b-6c7b-7b1b-afe7-acad8efc6711","","680","
                <div class=""stimulus-container"">
                    <img src=""images/schematic_sequence/flight_scheme/flight_scheme_5.png"" class=""exp-image"">
                    <div class=""question-area"">
                        <p style=""font-size: 20px; font-weight: bold; margin: 0;"">Is there a person in this image?</p>
                    </div>
                </div>","0","main_experiment_trial","5","flight_scheme","schematic_sequence","chronological","","","","","","",""
"","","","","","html-keyboard-response","132","427874","0.0-132.0","C028508629F045738AB56A3BDD4C76C8","019cfc8f-4b72-7d58-9406-1ab2e4dc3718","019cfc7b-6c7b-7b1b-afe7-acad8efc6711","","null","
                <div class=""stimulus-container"">
                    <img src=""images/schematic_sequence/flight_scheme/flight_scheme_6.png"" class=""exp-image"">
                    <div class=""question-area""></div> 
                </div>","null","","","","","","","","","","","",""
"","","","","","html-button-response","133","428374","0.0-133.0","C028508629F045738AB56A3BDD4C76C8","019cfc8f-4b72-7d58-9406-1ab2e4dc3718","019cfc7b-6c7b-7b1b-afe7-acad8efc6711","","498","
                <div class=""stimulus-container"">
                    <img src=""images/schematic_sequence/flight_scheme/flight_scheme_6.png"" class=""exp-image"">
                    <div class=""question-area"">
                        <p style=""font-size: 20px; font-weight: bold; margin: 0;"">Is there a person in this image?</p>
                    </div>
                </div>","1","main_experiment_trial","6","flight_scheme","schematic_sequence","chronological","","","","","","",""
"","","","","","html-keyboard-response","134","433376","0.0-134.0","C028508629F045738AB56A3BDD4C76C8","019cfc8f-4b72-7d58-9406-1ab2e4dc3718","019cfc7b-6c7b-7b1b-afe7-acad8efc6711","","null","
                <div class=""stimulus-container"">
                    <img src=""images/schematic_sequence/flight_scheme/flight_scheme_7.png"" class=""exp-image"">
                    <div class=""question-area""></div> 
                </div>","null","","","","","","","","","","","",""
"","","","","","html-button-response","135","434172","0.0-135.0","C028508629F045738AB56A3BDD4C76C8","019cfc8f-4b72-7d58-9406-1ab2e4dc3718","019cfc7b-6c7b-7b1b-afe7-acad8efc6711","","794","
                <div class=""stimulus-container"">
                    <img src=""images/schematic_sequence/flight_scheme/flight_scheme_7.png"" class=""exp-image"">
                    <div class=""question-area"">
                        <p style=""font-size: 20px; font-weight: bold; margin: 0;"">Is there a person in this image?</p>
                    </div>
                </div>","0","main_experiment_trial","7","flight_scheme","schematic_sequence","chronological","","","","","","",""
"","","","","","html-keyboard-response","136","439175","0.0-136.0","C028508629F045738AB56A3BDD4C76C8","019cfc8f-4b72-7d58-9406-1ab2e4dc3718","019cfc7b-6c7b-7b1b-afe7-acad8efc6711","","null","
                <div class=""stimulus-container"">
                    <img src=""images/schematic_sequence/flight_scheme/flight_scheme_8.png"" class=""exp-image"">
                    <div class=""question-area""></div> 
                </div>","null","","","","","","","","","","","",""
"","","","","","html-button-response","137","439589","0.0-137.0","C028508629F045738AB56A3BDD4C76C8","019cfc8f-4b72-7d58-9406-1ab2e4dc3718","019cfc7b-6c7b-7b1b-afe7-acad8efc6711","","412","
                <div class=""stimulus-container"">
                    <img src=""images/schematic_sequence/flight_scheme/flight_scheme_8.png"" class=""exp-image"">
                    <div class=""question-area"">
                        <p style=""font-size: 20px; font-weight: bold; margin: 0;"">Is there a person in this image?</p>
                    </div>
                </div>","1","main_experiment_trial","8","flight_scheme","schematic_sequence","chronological","","","","","","",""
"","","","","","html-keyboard-response","138","444591","0.0-138.0","C028508629F045738AB56A3BDD4C76C8","019cfc8f-4b72-7d58-9406-1ab2e4dc3718","019cfc7b-6c7b-7b1b-afe7-acad8efc6711","","null","
                <div class=""stimulus-container"">
                    <img src=""images/schematic_sequence/flight_scheme/flight_scheme_9.png"" class=""exp-image"">
                    <div class=""question-area""></div> 
                </div>","null","","","","","","","","","","","",""
"","","","","","html-button-response","139","445772","0.0-139.0","C028508629F045738AB56A3BDD4C76C8","019cfc8f-4b72-7d58-9406-1ab2e4dc3718","019cfc7b-6c7b-7b1b-afe7-acad8efc6711","","1180","
                <div class=""stimulus-container"">
                    <img src=""images/schematic_sequence/flight_scheme/flight_scheme_9.png"" class=""exp-image"">
                    <div class=""question-area"">
                        <p style=""font-size: 20px; font-weight: bold; margin: 0;"">Is there a person in this image?</p>
                    </div>
                </div>","0","main_experiment_trial","9","flight_scheme","schematic_sequence","chronological","","","","","","",""
"","","","","","html-keyboard-response","140","450774","0.0-140.0","C028508629F045738AB56A3BDD4C76C8","019cfc8f-4b72-7d58-9406-1ab2e4dc3718","019cfc7b-6c7b-7b1b-afe7-acad8efc6711","","null","
                <div class=""stimulus-container"">
                    <img src=""images/schematic_sequence/flight_scheme/flight_scheme_ten.png"" class=""exp-image"">
                    <div class=""question-area""></div> 
                </div>","null","","","","","","","","","","","",""
"","","","","","html-button-response","141","451206","0.0-141.0","C028508629F045738AB56A3BDD4C76C8","019cfc8f-4b72-7d58-9406-1ab2e4dc3718","019cfc7b-6c7b-7b1b-afe7-acad8efc6711","","429","
                <div class=""stimulus-container"">
                    <img src=""images/schematic_sequence/flight_scheme/flight_scheme_ten.png"" class=""exp-image"">
                    <div class=""question-area"">
                        <p style=""font-size: 20px; font-weight: bold; margin: 0;"">Is there a person in this image?</p>
                    </div>
                </div>","0","main_experiment_trial","ten","flight_scheme","schematic_sequence","chronological","","","","","","",""
"","","","","","html-keyboard-response","142","456208","0.0-142.0","C028508629F045738AB56A3BDD4C76C8","019cfc8f-4b72-7d58-9406-1ab2e4dc3718","019cfc7b-6c7b-7b1b-afe7-acad8efc6711","","null","<div style=""background-color: white; width: 100vw; height: 100vh;""></div>","null","","","","","","","","","","","",""
"","","","","","html-keyboard-response","143","461209","0.0-143.0","C028508629F045738AB56A3BDD4C76C8","019cfc8f-4b72-7d58-9406-1ab2e4dc3718","019cfc7b-6c7b-7b1b-afe7-acad8efc6711","","null","
                <div class=""stimulus-container"">
                    <img src=""images/semantic_sequence/housework_semantic/housework_semantic_1.png"" class=""exp-image"">
                    <div class=""question-area""></div> 
                </div>","null","","","","","","","","","","","",""
"","","","","","html-button-response","144","461689","0.0-144.0","C028508629F045738AB56A3BDD4C76C8","019cfc8f-4b72-7d58-9406-1ab2e4dc3718","019cfc7b-6c7b-7b1b-afe7-acad8efc6711","","478","
                <div class=""stimulus-container"">
                    <img src=""images/semantic_sequence/housework_semantic/housework_semantic_1.png"" class=""exp-image"">
                    <div class=""question-area"">
                        <p style=""font-size: 20px; font-weight: bold; margin: 0;"">Is there a person in this image?</p>
                    </div>
                </div>","0","main_experiment_trial","1","housework_semantic","semantic_sequence","chronological","","","","","","",""
"","","","","","html-keyboard-response","145","466691","0.0-145.0","C028508629F045738AB56A3BDD4C76C8","019cfc8f-4b72-7d58-9406-1ab2e4dc3718","019cfc7b-6c7b-7b1b-afe7-acad8efc6711","","null","
                <div class=""stimulus-container"">
                    <img src=""images/semantic_sequence/housework_semantic/housework_semantic_2.png"" class=""exp-image"">
                    <div class=""question-area""></div> 
                </div>","null","","","","","","","","","","","",""
"","","","","","html-button-response","146","467139","0.0-146.0","C028508629F045738AB56A3BDD4C76C8","019cfc8f-4b72-7d58-9406-1ab2e4dc3718","019cfc7b-6c7b-7b1b-afe7-acad8efc6711","","446","
                <div class=""stimulus-container"">
                    <img src=""images/semantic_sequence/housework_semantic/housework_semantic_2.png"" class=""exp-image"">
                    <div class=""question-area"">
                        <p style=""font-size: 20px; font-weight: bold; margin: 0;"">Is there a person in this image?</p>
                    </div>
                </div>","0","main_experiment_trial","2","housework_semantic","semantic_sequence","chronological","","","","","","",""
"","","","","","html-keyboard-response","147","472141","0.0-147.0","C028508629F045738AB56A3BDD4C76C8","019cfc8f-4b72-7d58-9406-1ab2e4dc3718","019cfc7b-6c7b-7b1b-afe7-acad8efc6711","","null","
                <div class=""stimulus-container"">
                    <img src=""images/semantic_sequence/housework_semantic/housework_semantic_3.png"" class=""exp-image"">
                    <div class=""question-area""></div> 
                </div>","null","","","","","","","","","","","",""
"","","","","","html-button-response","148","472556","0.0-148.0","C028508629F045738AB56A3BDD4C76C8","019cfc8f-4b72-7d58-9406-1ab2e4dc3718","019cfc7b-6c7b-7b1b-afe7-acad8efc6711","","413","
                <div class=""stimulus-container"">
                    <img src=""images/semantic_sequence/housework_semantic/housework_semantic_3.png"" class=""exp-image"">
                    <div class=""question-area"">
                        <p style=""font-size: 20px; font-weight: bold; margin: 0;"">Is there a person in this image?</p>
                    </div>
                </div>","0","main_experiment_trial","3","housework_semantic","semantic_sequence","chronological","","","","","","",""
"","","","","","html-keyboard-response","149","477559","0.0-149.0","C028508629F045738AB56A3BDD4C76C8","019cfc8f-4b72-7d58-9406-1ab2e4dc3718","019cfc7b-6c7b-7b1b-afe7-acad8efc6711","","null","
                <div class=""stimulus-container"">
                    <img src=""images/semantic_sequence/housework_semantic/housework_semantic_4.png"" class=""exp-image"">
                    <div class=""question-area""></div> 
                </div>","null","","","","","","","","","","","",""
"","","","","","html-button-response","150","478025","0.0-150.0","C028508629F045738AB56A3BDD4C76C8","019cfc8f-4b72-7d58-9406-1ab2e4dc3718","019cfc7b-6c7b-7b1b-afe7-acad8efc6711","","463","
                <div class=""stimulus-container"">
                    <img src=""images/semantic_sequence/housework_semantic/housework_semantic_4.png"" class=""exp-image"">
                    <div class=""question-area"">
                        <p style=""font-size: 20px; font-weight: bold; margin: 0;"">Is there a person in this image?</p>
                    </div>
                </div>","0","main_experiment_trial","4","housework_semantic","semantic_sequence","chronological","","","","","","",""
"","","","","","html-keyboard-response","151","483027","0.0-151.0","C028508629F045738AB56A3BDD4C76C8","019cfc8f-4b72-7d58-9406-1ab2e4dc3718","019cfc7b-6c7b-7b1b-afe7-acad8efc6711","","null","
                <div class=""stimulus-container"">
                    <img src=""images/semantic_sequence/housework_semantic/housework_semantic_5.png"" class=""exp-image"">
                    <div class=""question-area""></div> 
                </div>","null","","","","","","","","","","","",""
"","","","","","html-button-response","152","483439","0.0-152.0","C028508629F045738AB56A3BDD4C76C8","019cfc8f-4b72-7d58-9406-1ab2e4dc3718","019cfc7b-6c7b-7b1b-afe7-acad8efc6711","","410","
                <div class=""stimulus-container"">
                    <img src=""images/semantic_sequence/housework_semantic/housework_semantic_5.png"" class=""exp-image"">
                    <div class=""question-area"">
                        <p style=""font-size: 20px; font-weight: bold; margin: 0;"">Is there a person in this image?</p>
                    </div>
                </div>","0","main_experiment_trial","5","housework_semantic","semantic_sequence","chronological","","","","","","",""
"","","","","","html-keyboard-response","153","488441","0.0-153.0","C028508629F045738AB56A3BDD4C76C8","019cfc8f-4b72-7d58-9406-1ab2e4dc3718","019cfc7b-6c7b-7b1b-afe7-acad8efc6711","","null","
                <div class=""stimulus-container"">
                    <img src=""images/semantic_sequence/housework_semantic/housework_semantic_6.png"" class=""exp-image"">
                    <div class=""question-area""></div> 
                </div>","null","","","","","","","","","","","",""
"","","","","","html-button-response","154","489256","0.0-154.0","C028508629F045738AB56A3BDD4C76C8","019cfc8f-4b72-7d58-9406-1ab2e4dc3718","019cfc7b-6c7b-7b1b-afe7-acad8efc6711","","813","
                <div class=""stimulus-container"">
                    <img src=""images/semantic_sequence/housework_semantic/housework_semantic_6.png"" class=""exp-image"">
                    <div class=""question-area"">
                        <p style=""font-size: 20px; font-weight: bold; margin: 0;"">Is there a person in this image?</p>
                    </div>
                </div>","0","main_experiment_trial","6","housework_semantic","semantic_sequence","chronological","","","","","","",""
"","","","","","html-keyboard-response","155","494260","0.0-155.0","C028508629F045738AB56A3BDD4C76C8","019cfc8f-4b72-7d58-9406-1ab2e4dc3718","019cfc7b-6c7b-7b1b-afe7-acad8efc6711","","null","
                <div class=""stimulus-container"">
                    <img src=""images/semantic_sequence/housework_semantic/housework_semantic_7.png"" class=""exp-image"">
                    <div class=""question-area""></div> 
                </div>","null","","","","","","","","","","","",""
"","","","","","html-button-response","156","494756","0.0-156.0","C028508629F045738AB56A3BDD4C76C8","019cfc8f-4b72-7d58-9406-1ab2e4dc3718","019cfc7b-6c7b-7b1b-afe7-acad8efc6711","","494","
                <div class=""stimulus-container"">
                    <img src=""images/semantic_sequence/housework_semantic/housework_semantic_7.png"" class=""exp-image"">
                    <div class=""question-area"">
                        <p style=""font-size: 20px; font-weight: bold; margin: 0;"">Is there a person in this image?</p>
                    </div>
                </div>","0","main_experiment_trial","7","housework_semantic","semantic_sequence","chronological","","","","","","",""
"","","","","","html-keyboard-response","157","499759","0.0-157.0","C028508629F045738AB56A3BDD4C76C8","019cfc8f-4b72-7d58-9406-1ab2e4dc3718","019cfc7b-6c7b-7b1b-afe7-acad8efc6711","","null","
                <div class=""stimulus-container"">
                    <img src=""images/semantic_sequence/housework_semantic/housework_semantic_8.png"" class=""exp-image"">
                    <div class=""question-area""></div> 
                </div>","null","","","","","","","","","","","",""
"","","","","","html-button-response","158","500139","0.0-158.0","C028508629F045738AB56A3BDD4C76C8","019cfc8f-4b72-7d58-9406-1ab2e4dc3718","019cfc7b-6c7b-7b1b-afe7-acad8efc6711","","379","
                <div class=""stimulus-container"">
                    <img src=""images/semantic_sequence/housework_semantic/housework_semantic_8.png"" class=""exp-image"">
                    <div class=""question-area"">
                        <p style=""font-size: 20px; font-weight: bold; margin: 0;"">Is there a person in this image?</p>
                    </div>
                </div>","0","main_experiment_trial","8","housework_semantic","semantic_sequence","chronological","","","","","","",""
"","","","","","html-keyboard-response","159","505143","0.0-159.0","C028508629F045738AB56A3BDD4C76C8","019cfc8f-4b72-7d58-9406-1ab2e4dc3718","019cfc7b-6c7b-7b1b-afe7-acad8efc6711","","null","
                <div class=""stimulus-container"">
                    <img src=""images/semantic_sequence/housework_semantic/housework_semantic_9.png"" class=""exp-image"">
                    <div class=""question-area""></div> 
                </div>","null","","","","","","","","","","","",""
"","","","","","html-button-response","160","505606","0.0-160.0","C028508629F045738AB56A3BDD4C76C8","019cfc8f-4b72-7d58-9406-1ab2e4dc3718","019cfc7b-6c7b-7b1b-afe7-acad8efc6711","","462","
                <div class=""stimulus-container"">
                    <img src=""images/semantic_sequence/housework_semantic/housework_semantic_9.png"" class=""exp-image"">
                    <div class=""question-area"">
                        <p style=""font-size: 20px; font-weight: bold; margin: 0;"">Is there a person in this image?</p>
                    </div>
                </div>","0","main_experiment_trial","9","housework_semantic","semantic_sequence","chronological","","","","","","",""
"","","","","","html-keyboard-response","161","510609","0.0-161.0","C028508629F045738AB56A3BDD4C76C8","019cfc8f-4b72-7d58-9406-1ab2e4dc3718","019cfc7b-6c7b-7b1b-afe7-acad8efc6711","","null","
                <div class=""stimulus-container"">
                    <img src=""images/semantic_sequence/housework_semantic/housework_semantic_ten.png"" class=""exp-image"">
                    <div class=""question-area""></div> 
                </div>","null","","","","","","","","","","","",""
"","","","","","html-button-response","162","511056","0.0-162.0","C028508629F045738AB56A3BDD4C76C8","019cfc8f-4b72-7d58-9406-1ab2e4dc3718","019cfc7b-6c7b-7b1b-afe7-acad8efc6711","","446","
                <div class=""stimulus-container"">
                    <img src=""images/semantic_sequence/housework_semantic/housework_semantic_ten.png"" class=""exp-image"">
                    <div class=""question-area"">
                        <p style=""font-size: 20px; font-weight: bold; margin: 0;"">Is there a person in this image?</p>
                    </div>
                </div>","0","main_experiment_trial","ten","housework_semantic","semantic_sequence","chronological","","","","","","",""
"","","","","","html-keyboard-response","163","516368","0.0-163.0","C028508629F045738AB56A3BDD4C76C8","019cfc8f-4b72-7d58-9406-1ab2e4dc3718","019cfc7b-6c7b-7b1b-afe7-acad8efc6711","","null","<div style=""background-color: white; width: 100vw; height: 100vh;""></div>","null","","","","","","","","","","","",""
"","","","","","html-keyboard-response","164","521370","0.0-164.0","C028508629F045738AB56A3BDD4C76C8","019cfc8f-4b72-7d58-9406-1ab2e4dc3718","019cfc7b-6c7b-7b1b-afe7-acad8efc6711","","null","
                <div class=""stimulus-container"">
                    <img src=""images/causal_sequence/the_performance_causal/the_performance_causal_1.png"" class=""exp-image"">
                    <div class=""question-area""></div> 
                </div>","null","","","","","","","","","","","",""
"","","","","","html-button-response","165","522173","0.0-165.0","C028508629F045738AB56A3BDD4C76C8","019cfc8f-4b72-7d58-9406-1ab2e4dc3718","019cfc7b-6c7b-7b1b-afe7-acad8efc6711","","800","
                <div class=""stimulus-container"">
                    <img src=""images/causal_sequence/the_performance_causal/the_performance_causal_1.png"" class=""exp-image"">
                    <div class=""question-area"">
                        <p style=""font-size: 20px; font-weight: bold; margin: 0;"">Is there a person in this image?</p>
                    </div>
                </div>","0","main_experiment_trial","1","the_performance_causal","causal_sequence","chronological","","","","","","",""
"","","","","","html-keyboard-response","166","527176","0.0-166.0","C028508629F045738AB56A3BDD4C76C8","019cfc8f-4b72-7d58-9406-1ab2e4dc3718","019cfc7b-6c7b-7b1b-afe7-acad8efc6711","","null","
                <div class=""stimulus-container"">
                    <img src=""images/causal_sequence/the_performance_causal/the_performance_causal_2.png"" class=""exp-image"">
                    <div class=""question-area""></div> 
                </div>","null","","","","","","","","","","","",""
"","","","","","html-button-response","167","528073","0.0-167.0","C028508629F045738AB56A3BDD4C76C8","019cfc8f-4b72-7d58-9406-1ab2e4dc3718","019cfc7b-6c7b-7b1b-afe7-acad8efc6711","","895","
                <div class=""stimulus-container"">
                    <img src=""images/causal_sequence/the_performance_causal/the_performance_causal_2.png"" class=""exp-image"">
                    <div class=""question-area"">
                        <p style=""font-size: 20px; font-weight: bold; margin: 0;"">Is there a person in this image?</p>
                    </div>
                </div>","0","main_experiment_trial","2","the_performance_causal","causal_sequence","chronological","","","","","","",""
"","","","","","html-keyboard-response","168","533076","0.0-168.0","C028508629F045738AB56A3BDD4C76C8","019cfc8f-4b72-7d58-9406-1ab2e4dc3718","019cfc7b-6c7b-7b1b-afe7-acad8efc6711","","null","
                <div class=""stimulus-container"">
                    <img src=""images/causal_sequence/the_performance_causal/the_performance_causal_3.png"" class=""exp-image"">
                    <div class=""question-area""></div> 
                </div>","null","","","","","","","","","","","",""
"","","","","","html-button-response","169","533606","0.0-169.0","C028508629F045738AB56A3BDD4C76C8","019cfc8f-4b72-7d58-9406-1ab2e4dc3718","019cfc7b-6c7b-7b1b-afe7-acad8efc6711","","528","
                <div class=""stimulus-container"">
                    <img src=""images/causal_sequence/the_performance_causal/the_performance_causal_3.png"" class=""exp-image"">
                    <div class=""question-area"">
                        <p style=""font-size: 20px; font-weight: bold; margin: 0;"">Is there a person in this image?</p>
                    </div>
                </div>","0","main_experiment_trial","3","the_performance_causal","causal_sequence","chronological","","","","","","",""
"","","","","","html-keyboard-response","170","538609","0.0-170.0","C028508629F045738AB56A3BDD4C76C8","019cfc8f-4b72-7d58-9406-1ab2e4dc3718","019cfc7b-6c7b-7b1b-afe7-acad8efc6711","","null","
                <div class=""stimulus-container"">
                    <img src=""images/causal_sequence/the_performance_causal/the_performance_causal_4.png"" class=""exp-image"">
                    <div class=""question-area""></div> 
                </div>","null","","","","","","","","","","","",""
"","","","","","html-button-response","171","539023","0.0-171.0","C028508629F045738AB56A3BDD4C76C8","019cfc8f-4b72-7d58-9406-1ab2e4dc3718","019cfc7b-6c7b-7b1b-afe7-acad8efc6711","","412","
                <div class=""stimulus-container"">
                    <img src=""images/causal_sequence/the_performance_causal/the_performance_causal_4.png"" class=""exp-image"">
                    <div class=""question-area"">
                        <p style=""font-size: 20px; font-weight: bold; margin: 0;"">Is there a person in this image?</p>
                    </div>
                </div>","0","main_experiment_trial","4","the_performance_causal","causal_sequence","chronological","","","","","","",""
"","","","","","html-keyboard-response","172","544025","0.0-172.0","C028508629F045738AB56A3BDD4C76C8","019cfc8f-4b72-7d58-9406-1ab2e4dc3718","019cfc7b-6c7b-7b1b-afe7-acad8efc6711","","null","
                <div class=""stimulus-container"">
                    <img src=""images/causal_sequence/the_performance_causal/the_performance_causal_5.png"" class=""exp-image"">
                    <div class=""question-area""></div> 
                </div>","null","","","","","","","","","","","",""
"","","","","","html-button-response","173","544905","0.0-173.0","C028508629F045738AB56A3BDD4C76C8","019cfc8f-4b72-7d58-9406-1ab2e4dc3718","019cfc7b-6c7b-7b1b-afe7-acad8efc6711","","878","
                <div class=""stimulus-container"">
                    <img src=""images/causal_sequence/the_performance_causal/the_performance_causal_5.png"" class=""exp-image"">
                    <div class=""question-area"">
                        <p style=""font-size: 20px; font-weight: bold; margin: 0;"">Is there a person in this image?</p>
                    </div>
                </div>","0","main_experiment_trial","5","the_performance_causal","causal_sequence","chronological","","","","","","",""
"","","","","","html-keyboard-response","174","549906","0.0-174.0","C028508629F045738AB56A3BDD4C76C8","019cfc8f-4b72-7d58-9406-1ab2e4dc3718","019cfc7b-6c7b-7b1b-afe7-acad8efc6711","","null","
                <div class=""stimulus-container"">
                    <img src=""images/causal_sequence/the_performance_causal/the_performance_causal_6.png"" class=""exp-image"">
                    <div class=""question-area""></div> 
                </div>","null","","","","","","","","","","","",""
"","","","","","html-button-response","175","550323","0.0-175.0","C028508629F045738AB56A3BDD4C76C8","019cfc8f-4b72-7d58-9406-1ab2e4dc3718","019cfc7b-6c7b-7b1b-afe7-acad8efc6711","","416","
                <div class=""stimulus-container"">
                    <img src=""images/causal_sequence/the_performance_causal/the_performance_causal_6.png"" class=""exp-image"">
                    <div class=""question-area"">
                        <p style=""font-size: 20px; font-weight: bold; margin: 0;"">Is there a person in this image?</p>
                    </div>
                </div>","0","main_experiment_trial","6","the_performance_causal","causal_sequence","chronological","","","","","","",""
"","","","","","html-keyboard-response","176","555326","0.0-176.0","C028508629F045738AB56A3BDD4C76C8","019cfc8f-4b72-7d58-9406-1ab2e4dc3718","019cfc7b-6c7b-7b1b-afe7-acad8efc6711","","null","
                <div class=""stimulus-container"">
                    <img src=""images/causal_sequence/the_performance_causal/the_performance_causal_7.png"" class=""exp-image"">
                    <div class=""question-area""></div> 
                </div>","null","","","","","","","","","","","",""
"","","","","","html-button-response","177","555740","0.0-177.0","C028508629F045738AB56A3BDD4C76C8","019cfc8f-4b72-7d58-9406-1ab2e4dc3718","019cfc7b-6c7b-7b1b-afe7-acad8efc6711","","412","
                <div class=""stimulus-container"">
                    <img src=""images/causal_sequence/the_performance_causal/the_performance_causal_7.png"" class=""exp-image"">
                    <div class=""question-area"">
                        <p style=""font-size: 20px; font-weight: bold; margin: 0;"">Is there a person in this image?</p>
                    </div>
                </div>","0","main_experiment_trial","7","the_performance_causal","causal_sequence","chronological","","","","","","",""
