"success","timeout","failed_images","failed_audio","failed_video","trial_type","trial_index","time_elapsed","internal_node_id","subject_id","study_id","session_id","view_history","rt","stimulus","response","task","image_index","folder","valuable_image_index","valuable_X","chosen_image_index","distance_from_X"
"false","false","[]","[]","[]","preload","0","50706","0.0-0.0","1B5454F7BC004B3C86B0AEA49931A297","019ce7b7-af67-7dd7-b49f-719bb0397f0e","019ce7a0-0965-7aa7-a556-174d32a8e773","","","","","","","","","","",""
"","","","","","instructions","1","83108","0.0-1.0","1B5454F7BC004B3C86B0AEA49931A297","019ce7b7-af67-7dd7-b49f-719bb0397f0e","019ce7a0-0965-7aa7-a556-174d32a8e773","[{""page_index"":0,""viewing_time"":32400}]","32400","","","","","","","","",""
"","","","","","instructions","2","261442","0.0-2.0","1B5454F7BC004B3C86B0AEA49931A297","019ce7b7-af67-7dd7-b49f-719bb0397f0e","019ce7a0-0965-7aa7-a556-174d32a8e773","[{""page_index"":0,""viewing_time"":178333}]","178333","","","","","","","","",""
"true","","","","","fullscreen","3","268806","0.0-3.0","1B5454F7BC004B3C86B0AEA49931A297","019ce7b7-af67-7dd7-b49f-719bb0397f0e","019ce7a0-0965-7aa7-a556-174d32a8e773","","6360","","","","","","","","",""
"","","","","","instructions","4","292752","0.0-4.0","1B5454F7BC004B3C86B0AEA49931A297","019ce7b7-af67-7dd7-b49f-719bb0397f0e","019ce7a0-0965-7aa7-a556-174d32a8e773","[{""page_index"":0,""viewing_time"":23944}]","23945","","","","","","","","",""
"","","","","","instructions","5","307003","0.0-5.0","1B5454F7BC004B3C86B0AEA49931A297","019ce7b7-af67-7dd7-b49f-719bb0397f0e","019ce7a0-0965-7aa7-a556-174d32a8e773","[{""page_index"":0,""viewing_time"":14250}]","14251","","","","","","","","",""
"","","","","","html-keyboard-response","6","311007","0.0-6.0","1B5454F7BC004B3C86B0AEA49931A297","019ce7b7-af67-7dd7-b49f-719bb0397f0e","019ce7a0-0965-7aa7-a556-174d32a8e773","","null","
                <div class=""stimulus-container"">
                    <img src=""images/instructions/movie_1.png"" class=""exp-image"">
                    <div class=""question-area""></div> 
                </div>","null","","","","","","",""
"","","","","","html-button-response","7","314011","0.0-7.0","1B5454F7BC004B3C86B0AEA49931A297","019ce7b7-af67-7dd7-b49f-719bb0397f0e","019ce7a0-0965-7aa7-a556-174d32a8e773","","null","
                <div class=""stimulus-container"">
                    <img src=""images/instructions/movie_1.png"" class=""exp-image"">
                    <div class=""question-area"">
                        <p style=""font-size: 20px; font-weight: bold; margin: 0;"">Was there a person in this image?</p>
                    </div>
                </div>","null","example_question","1","","","","",""
"","","","","","html-keyboard-response","8","318012","0.0-8.0","1B5454F7BC004B3C86B0AEA49931A297","019ce7b7-af67-7dd7-b49f-719bb0397f0e","019ce7a0-0965-7aa7-a556-174d32a8e773","","null","
                <div class=""stimulus-container"">
                    <img src=""images/instructions/movie_2.png"" class=""exp-image"">
                    <div class=""question-area""></div> 
                </div>","null","","","","","","",""
"","","","","","html-button-response","9","321014","0.0-9.0","1B5454F7BC004B3C86B0AEA49931A297","019ce7b7-af67-7dd7-b49f-719bb0397f0e","019ce7a0-0965-7aa7-a556-174d32a8e773","","null","
                <div class=""stimulus-container"">
                    <img src=""images/instructions/movie_2.png"" class=""exp-image"">
                    <div class=""question-area"">
                        <p style=""font-size: 20px; font-weight: bold; margin: 0;"">Was there a person in this image?</p>
                    </div>
                </div>","null","example_question","2","","","","",""
"","","","","","html-keyboard-response","10","325016","0.0-10.0","1B5454F7BC004B3C86B0AEA49931A297","019ce7b7-af67-7dd7-b49f-719bb0397f0e","019ce7a0-0965-7aa7-a556-174d32a8e773","","null","
                <div class=""stimulus-container"">
                    <img src=""images/instructions/movie_3.png"" class=""exp-image"">
                    <div class=""question-area""></div> 
                </div>","null","","","","","","",""
"","","","","","html-button-response","11","326631","0.0-11.0","1B5454F7BC004B3C86B0AEA49931A297","019ce7b7-af67-7dd7-b49f-719bb0397f0e","019ce7a0-0965-7aa7-a556-174d32a8e773","","1612","
                <div class=""stimulus-container"">
                    <img src=""images/instructions/movie_3.png"" class=""exp-image"">
                    <div class=""question-area"">
                        <p style=""font-size: 20px; font-weight: bold; margin: 0;"">Was there a person in this image?</p>
                    </div>
                </div>","0","example_question","3","","","","",""
"","","","","","html-keyboard-response","12","330633","0.0-12.0","1B5454F7BC004B3C86B0AEA49931A297","019ce7b7-af67-7dd7-b49f-719bb0397f0e","019ce7a0-0965-7aa7-a556-174d32a8e773","","null","
                <div class=""stimulus-container"">
                    <img src=""images/instructions/movie_4.png"" class=""exp-image"">
                    <div class=""question-area""></div> 
                </div>","null","","","","","","",""
"","","","","","html-button-response","13","332056","0.0-13.0","1B5454F7BC004B3C86B0AEA49931A297","019ce7b7-af67-7dd7-b49f-719bb0397f0e","019ce7a0-0965-7aa7-a556-174d32a8e773","","1422","
                <div class=""stimulus-container"">
                    <img src=""images/instructions/movie_4.png"" class=""exp-image"">
                    <div class=""question-area"">
                        <p style=""font-size: 20px; font-weight: bold; margin: 0;"">Was there a person in this image?</p>
                    </div>
                </div>","0","example_question","4","","","","",""
"","","","","","instructions","14","340135","0.0-14.0","1B5454F7BC004B3C86B0AEA49931A297","019ce7b7-af67-7dd7-b49f-719bb0397f0e","019ce7a0-0965-7aa7-a556-174d32a8e773","[{""page_index"":0,""viewing_time"":8078}]","8078","","","","","","","","",""
"","","","","","html-keyboard-response","15","341137","0.0-15.0","1B5454F7BC004B3C86B0AEA49931A297","019ce7b7-af67-7dd7-b49f-719bb0397f0e","019ce7a0-0965-7aa7-a556-174d32a8e773","","null","<div style=""background-color: gray; width: 100vw; height: 100vh;""></div>","null","","","","","","",""
"","","","","","html-keyboard-response","16","346139","0.0-16.0","1B5454F7BC004B3C86B0AEA49931A297","019ce7b7-af67-7dd7-b49f-719bb0397f0e","019ce7a0-0965-7aa7-a556-174d32a8e773","","null","
                    <div class=""stimulus-container"">
                        <img src=""images/causal_sequence/the_performance_causal/the_performance_causal_1.png"" class=""exp-image"">
                        <div class=""question-area""></div> 
                    </div>","null","","","","","","",""
"","","","","","html-button-response","17","348178","0.0-17.0","1B5454F7BC004B3C86B0AEA49931A297","019ce7b7-af67-7dd7-b49f-719bb0397f0e","019ce7a0-0965-7aa7-a556-174d32a8e773","","2038","
                    <div class=""stimulus-container"">
                        <img src=""images/causal_sequence/the_performance_causal/the_performance_causal_1.png"" class=""exp-image"">
                        <div class=""question-area"">
                            <p style=""font-size: 20px; font-weight: bold; margin: 0;"">Is there a person in this image?</p>
                        </div>
                    </div>","0","main_causal_task","1","the_performance_causal","","","",""
"","","","","","html-keyboard-response","18","353180","0.0-18.0","1B5454F7BC004B3C86B0AEA49931A297","019ce7b7-af67-7dd7-b49f-719bb0397f0e","019ce7a0-0965-7aa7-a556-174d32a8e773","","null","
                    <div class=""stimulus-container"">
                        <img src=""images/causal_sequence/the_performance_causal/the_performance_causal_2.png"" class=""exp-image"">
                        <div class=""question-area""></div> 
                    </div>","null","","","","","","",""
"","","","","","html-button-response","19","354704","0.0-19.0","1B5454F7BC004B3C86B0AEA49931A297","019ce7b7-af67-7dd7-b49f-719bb0397f0e","019ce7a0-0965-7aa7-a556-174d32a8e773","","1522","
                    <div class=""stimulus-container"">
                        <img src=""images/causal_sequence/the_performance_causal/the_performance_causal_2.png"" class=""exp-image"">
                        <div class=""question-area"">
                            <p style=""font-size: 20px; font-weight: bold; margin: 0;"">Is there a person in this image?</p>
                        </div>
                    </div>","0","main_causal_task","2","the_performance_causal","","","",""
"","","","","","html-keyboard-response","20","359706","0.0-20.0","1B5454F7BC004B3C86B0AEA49931A297","019ce7b7-af67-7dd7-b49f-719bb0397f0e","019ce7a0-0965-7aa7-a556-174d32a8e773","","null","
                    <div class=""stimulus-container"">
                        <img src=""images/causal_sequence/the_performance_causal/the_performance_causal_3.png"" class=""exp-image"">
                        <div class=""question-area""></div> 
                    </div>","null","","","","","","",""
"","","","","","html-button-response","21","360590","0.0-21.0","1B5454F7BC004B3C86B0AEA49931A297","019ce7b7-af67-7dd7-b49f-719bb0397f0e","019ce7a0-0965-7aa7-a556-174d32a8e773","","882","
                    <div class=""stimulus-container"">
                        <img src=""images/causal_sequence/the_performance_causal/the_performance_causal_3.png"" class=""exp-image"">
                        <div class=""question-area"">
                            <p style=""font-size: 20px; font-weight: bold; margin: 0;"">Is there a person in this image?</p>
                        </div>
                    </div>","0","main_causal_task","3","the_performance_causal","","","",""
"","","","","","html-keyboard-response","22","365592","0.0-22.0","1B5454F7BC004B3C86B0AEA49931A297","019ce7b7-af67-7dd7-b49f-719bb0397f0e","019ce7a0-0965-7aa7-a556-174d32a8e773","","null","
                    <div class=""stimulus-container"">
                        <img src=""images/causal_sequence/the_performance_causal/the_performance_causal_4.png"" class=""exp-image"">
                        <div class=""question-area""></div> 
                    </div>","null","","","","","","",""
"","","","","","html-button-response","23","366577","0.0-23.0","1B5454F7BC004B3C86B0AEA49931A297","019ce7b7-af67-7dd7-b49f-719bb0397f0e","019ce7a0-0965-7aa7-a556-174d32a8e773","","984","
                    <div class=""stimulus-container"">
                        <img src=""images/causal_sequence/the_performance_causal/the_performance_causal_4.png"" class=""exp-image"">
                        <div class=""question-area"">
                            <p style=""font-size: 20px; font-weight: bold; margin: 0;"">Is there a person in this image?</p>
                        </div>
                    </div>","0","main_causal_task","4","the_performance_causal","","","",""
"","","","","","html-keyboard-response","24","371579","0.0-24.0","1B5454F7BC004B3C86B0AEA49931A297","019ce7b7-af67-7dd7-b49f-719bb0397f0e","019ce7a0-0965-7aa7-a556-174d32a8e773","","null","
                    <div class=""stimulus-container"">
                        <img src=""images/causal_sequence/the_performance_causal/the_performance_causal_5.png"" class=""exp-image"">
                        <div class=""question-area""></div> 
                    </div>","null","","","","","","",""
"","","","","","html-button-response","25","372685","0.0-25.0","1B5454F7BC004B3C86B0AEA49931A297","019ce7b7-af67-7dd7-b49f-719bb0397f0e","019ce7a0-0965-7aa7-a556-174d32a8e773","","1104","
                    <div class=""stimulus-container"">
                        <img src=""images/causal_sequence/the_performance_causal/the_performance_causal_5.png"" class=""exp-image"">
                        <div class=""question-area"">
                            <p style=""font-size: 20px; font-weight: bold; margin: 0;"">Is there a person in this image?</p>
                        </div>
                    </div>","0","main_causal_task","5","the_performance_causal","","","",""
"","","","","","html-keyboard-response","26","377687","0.0-26.0","1B5454F7BC004B3C86B0AEA49931A297","019ce7b7-af67-7dd7-b49f-719bb0397f0e","019ce7a0-0965-7aa7-a556-174d32a8e773","","null","
                    <div class=""stimulus-container"">
                        <img src=""images/causal_sequence/the_performance_causal/the_performance_causal_6.png"" class=""exp-image"">
                        <div class=""question-area""></div> 
                    </div>","null","","","","","","",""
"","","","","","html-button-response","27","378539","0.0-27.0","1B5454F7BC004B3C86B0AEA49931A297","019ce7b7-af67-7dd7-b49f-719bb0397f0e","019ce7a0-0965-7aa7-a556-174d32a8e773","","851","
                    <div class=""stimulus-container"">
                        <img src=""images/causal_sequence/the_performance_causal/the_performance_causal_6.png"" class=""exp-image"">
                        <div class=""question-area"">
                            <p style=""font-size: 20px; font-weight: bold; margin: 0;"">Is there a person in this image?</p>
                        </div>
                    </div>","0","main_causal_task","6","the_performance_causal","","","",""
"","","","","","html-keyboard-response","28","383542","0.0-28.0","1B5454F7BC004B3C86B0AEA49931A297","019ce7b7-af67-7dd7-b49f-719bb0397f0e","019ce7a0-0965-7aa7-a556-174d32a8e773","","null","
                    <div class=""stimulus-container"">
                        <img src=""images/causal_sequence/the_performance_causal/the_performance_causal_7.png"" class=""exp-image"">
                        <div class=""question-area""></div> 
                    </div>","null","","","","","","",""
"","","","","","html-button-response","29","384770","0.0-29.0","1B5454F7BC004B3C86B0AEA49931A297","019ce7b7-af67-7dd7-b49f-719bb0397f0e","019ce7a0-0965-7aa7-a556-174d32a8e773","","1227","
                    <div class=""stimulus-container"">
                        <img src=""images/causal_sequence/the_performance_causal/the_performance_causal_7.png"" class=""exp-image"">
                        <div class=""question-area"">
                            <p style=""font-size: 20px; font-weight: bold; margin: 0;"">Is there a person in this image?</p>
                        </div>
                    </div>","0","main_causal_task","7","the_performance_causal","","","",""
"","","","","","html-keyboard-response","30","389772","0.0-30.0","1B5454F7BC004B3C86B0AEA49931A297","019ce7b7-af67-7dd7-b49f-719bb0397f0e","019ce7a0-0965-7aa7-a556-174d32a8e773","","null","
                    <div class=""stimulus-container"">
                        <img src=""images/causal_sequence/the_performance_causal/the_performance_causal_8.png"" class=""exp-image"">
                        <div class=""question-area""></div> 
                    </div>","null","","","","","","",""
"","","","","","html-button-response","31","390721","0.0-31.0","1B5454F7BC004B3C86B0AEA49931A297","019ce7b7-af67-7dd7-b49f-719bb0397f0e","019ce7a0-0965-7aa7-a556-174d32a8e773","","946","
                    <div class=""stimulus-container"">
                        <img src=""images/causal_sequence/the_performance_causal/the_performance_causal_8.png"" class=""exp-image"">
                        <div class=""question-area"">
                            <p style=""font-size: 20px; font-weight: bold; margin: 0;"">Is there a person in this image?</p>
                        </div>
                    </div>","0","main_causal_task","8","the_performance_causal","","","",""
"","","","","","html-keyboard-response","32","395723","0.0-32.0","1B5454F7BC004B3C86B0AEA49931A297","019ce7b7-af67-7dd7-b49f-719bb0397f0e","019ce7a0-0965-7aa7-a556-174d32a8e773","","null","
                    <div class=""stimulus-container"">
                        <img src=""images/causal_sequence/the_performance_causal/the_performance_causal_9.png"" class=""exp-image"">
                        <div class=""question-area""></div> 
                    </div>","null","","","","","","",""
"","","","","","html-button-response","33","396798","0.0-33.0","1B5454F7BC004B3C86B0AEA49931A297","019ce7b7-af67-7dd7-b49f-719bb0397f0e","019ce7a0-0965-7aa7-a556-174d32a8e773","","1074","
                    <div class=""stimulus-container"">
                        <img src=""images/causal_sequence/the_performance_causal/the_performance_causal_9.png"" class=""exp-image"">
                        <div class=""question-area"">
                            <p style=""font-size: 20px; font-weight: bold; margin: 0;"">Is there a person in this image?</p>
                        </div>
                    </div>","0","main_causal_task","9","the_performance_causal","","","",""
"","","","","","html-keyboard-response","34","397799","0.0-34.0","1B5454F7BC004B3C86B0AEA49931A297","019ce7b7-af67-7dd7-b49f-719bb0397f0e","019ce7a0-0965-7aa7-a556-174d32a8e773","","null","<div style=""background-color: gray; width: 100vw; height: 100vh;""></div>","null","","","","","","",""
"","","","","","html-keyboard-response","35","402801","0.0-35.0","1B5454F7BC004B3C86B0AEA49931A297","019ce7b7-af67-7dd7-b49f-719bb0397f0e","019ce7a0-0965-7aa7-a556-174d32a8e773","","null","
                    <div class=""stimulus-container"">
                        <img src=""images/causal_sequence/coin_causal/coin_causal_1.png"" class=""exp-image"">
                        <div class=""question-area""></div> 
                    </div>","null","","","","","","",""
"","","","","","html-button-response","36","404040","0.0-36.0","1B5454F7BC004B3C86B0AEA49931A297","019ce7b7-af67-7dd7-b49f-719bb0397f0e","019ce7a0-0965-7aa7-a556-174d32a8e773","","1238","
                    <div class=""stimulus-container"">
                        <img src=""images/causal_sequence/coin_causal/coin_causal_1.png"" class=""exp-image"">
                        <div class=""question-area"">
                            <p style=""font-size: 20px; font-weight: bold; margin: 0;"">Is there a person in this image?</p>
                        </div>
                    </div>","0","main_causal_task","1","coin_causal","","","",""
"","","","","","html-keyboard-response","37","409042","0.0-37.0","1B5454F7BC004B3C86B0AEA49931A297","019ce7b7-af67-7dd7-b49f-719bb0397f0e","019ce7a0-0965-7aa7-a556-174d32a8e773","","null","
                    <div class=""stimulus-container"">
                        <img src=""images/causal_sequence/coin_causal/coin_causal_2.png"" class=""exp-image"">
                        <div class=""question-area""></div> 
                    </div>","null","","","","","","",""
"","","","","","html-button-response","38","409871","0.0-38.0","1B5454F7BC004B3C86B0AEA49931A297","019ce7b7-af67-7dd7-b49f-719bb0397f0e","019ce7a0-0965-7aa7-a556-174d32a8e773","","827","
                    <div class=""stimulus-container"">
                        <img src=""images/causal_sequence/coin_causal/coin_causal_2.png"" class=""exp-image"">
                        <div class=""question-area"">
                            <p style=""font-size: 20px; font-weight: bold; margin: 0;"">Is there a person in this image?</p>
                        </div>
                    </div>","0","main_causal_task","2","coin_causal","","","",""
"","","","","","html-keyboard-response","39","414873","0.0-39.0","1B5454F7BC004B3C86B0AEA49931A297","019ce7b7-af67-7dd7-b49f-719bb0397f0e","019ce7a0-0965-7aa7-a556-174d32a8e773","","null","
                    <div class=""stimulus-container"">
                        <img src=""images/causal_sequence/coin_causal/coin_causal_3.png"" class=""exp-image"">
                        <div class=""question-area""></div> 
                    </div>","null","","","","","","",""
"","","","","","html-button-response","40","415706","0.0-40.0","1B5454F7BC004B3C86B0AEA49931A297","019ce7b7-af67-7dd7-b49f-719bb0397f0e","019ce7a0-0965-7aa7-a556-174d32a8e773","","831","
                    <div class=""stimulus-container"">
                        <img src=""images/causal_sequence/coin_causal/coin_causal_3.png"" class=""exp-image"">
                        <div class=""question-area"">
                            <p style=""font-size: 20px; font-weight: bold; margin: 0;"">Is there a person in this image?</p>
                        </div>
                    </div>","0","main_causal_task","3","coin_causal","","","",""
"","","","","","html-keyboard-response","41","420708","0.0-41.0","1B5454F7BC004B3C86B0AEA49931A297","019ce7b7-af67-7dd7-b49f-719bb0397f0e","019ce7a0-0965-7aa7-a556-174d32a8e773","","null","
                    <div class=""stimulus-container"">
                        <img src=""images/causal_sequence/coin_causal/coin_causal_4.png"" class=""exp-image"">
                        <div class=""question-area""></div> 
                    </div>","null","","","","","","",""
"","","","","","html-button-response","42","421587","0.0-42.0","1B5454F7BC004B3C86B0AEA49931A297","019ce7b7-af67-7dd7-b49f-719bb0397f0e","019ce7a0-0965-7aa7-a556-174d32a8e773","","877","
                    <div class=""stimulus-container"">
                        <img src=""images/causal_sequence/coin_causal/coin_causal_4.png"" class=""exp-image"">
                        <div class=""question-area"">
                            <p style=""font-size: 20px; font-weight: bold; margin: 0;"">Is there a person in this image?</p>
                        </div>
                    </div>","0","main_causal_task","4","coin_causal","","","",""
"","","","","","html-keyboard-response","43","426590","0.0-43.0","1B5454F7BC004B3C86B0AEA49931A297","019ce7b7-af67-7dd7-b49f-719bb0397f0e","019ce7a0-0965-7aa7-a556-174d32a8e773","","null","
                    <div class=""stimulus-container"">
                        <img src=""images/causal_sequence/coin_causal/coin_causal_5.png"" class=""exp-image"">
                        <div class=""question-area""></div> 
                    </div>","null","","","","","","",""
"","","","","","html-button-response","44","427684","0.0-44.0","1B5454F7BC004B3C86B0AEA49931A297","019ce7b7-af67-7dd7-b49f-719bb0397f0e","019ce7a0-0965-7aa7-a556-174d32a8e773","","1092","
                    <div class=""stimulus-container"">
                        <img src=""images/causal_sequence/coin_causal/coin_causal_5.png"" class=""exp-image"">
                        <div class=""question-area"">
                            <p style=""font-size: 20px; font-weight: bold; margin: 0;"">Is there a person in this image?</p>
                        </div>
                    </div>","0","main_causal_task","5","coin_causal","","","",""
"","","","","","html-keyboard-response","45","432686","0.0-45.0","1B5454F7BC004B3C86B0AEA49931A297","019ce7b7-af67-7dd7-b49f-719bb0397f0e","019ce7a0-0965-7aa7-a556-174d32a8e773","","null","
                    <div class=""stimulus-container"">
                        <img src=""images/causal_sequence/coin_causal/coin_causal_6.png"" class=""exp-image"">
                        <div class=""question-area""></div> 
                    </div>","null","","","","","","",""
"","","","","","html-button-response","46","433517","0.0-46.0","1B5454F7BC004B3C86B0AEA49931A297","019ce7b7-af67-7dd7-b49f-719bb0397f0e","019ce7a0-0965-7aa7-a556-174d32a8e773","","830","
                    <div class=""stimulus-container"">
                        <img src=""images/causal_sequence/coin_causal/coin_causal_6.png"" class=""exp-image"">
                        <div class=""question-area"">
                            <p style=""font-size: 20px; font-weight: bold; margin: 0;"">Is there a person in this image?</p>
                        </div>
                    </div>","0","main_causal_task","6","coin_causal","","","",""
"","","","","","html-keyboard-response","47","438519","0.0-47.0","1B5454F7BC004B3C86B0AEA49931A297","019ce7b7-af67-7dd7-b49f-719bb0397f0e","019ce7a0-0965-7aa7-a556-174d32a8e773","","null","
                    <div class=""stimulus-container"">
                        <img src=""images/causal_sequence/coin_causal/coin_causal_7.png"" class=""exp-image"">
                        <div class=""question-area""></div> 
                    </div>","null","","","","","","",""
"","","","","","html-button-response","48","440086","0.0-48.0","1B5454F7BC004B3C86B0AEA49931A297","019ce7b7-af67-7dd7-b49f-719bb0397f0e","019ce7a0-0965-7aa7-a556-174d32a8e773","","1565","
                    <div class=""stimulus-container"">
                        <img src=""images/causal_sequence/coin_causal/coin_causal_7.png"" class=""exp-image"">
                        <div class=""question-area"">
                            <p style=""font-size: 20px; font-weight: bold; margin: 0;"">Is there a person in this image?</p>
                        </div>
                    </div>","1","main_causal_task","7","coin_causal","","","",""
"","","","","","html-keyboard-response","49","445088","0.0-49.0","1B5454F7BC004B3C86B0AEA49931A297","019ce7b7-af67-7dd7-b49f-719bb0397f0e","019ce7a0-0965-7aa7-a556-174d32a8e773","","null","
                    <div class=""stimulus-container"">
                        <img src=""images/causal_sequence/coin_causal/coin_causal_8.png"" class=""exp-image"">
                        <div class=""question-area""></div> 
                    </div>","null","","","","","","",""
"","","","","","html-button-response","50","446060","0.0-50.0","1B5454F7BC004B3C86B0AEA49931A297","019ce7b7-af67-7dd7-b49f-719bb0397f0e","019ce7a0-0965-7aa7-a556-174d32a8e773","","971","
                    <div class=""stimulus-container"">
                        <img src=""images/causal_sequence/coin_causal/coin_causal_8.png"" class=""exp-image"">
                        <div class=""question-area"">
                            <p style=""font-size: 20px; font-weight: bold; margin: 0;"">Is there a person in this image?</p>
                        </div>
                    </div>","0","main_causal_task","8","coin_causal","","","",""
"","","","","","html-keyboard-response","51","451061","0.0-51.0","1B5454F7BC004B3C86B0AEA49931A297","019ce7b7-af67-7dd7-b49f-719bb0397f0e","019ce7a0-0965-7aa7-a556-174d32a8e773","","null","
                    <div class=""stimulus-container"">
                        <img src=""images/causal_sequence/coin_causal/coin_causal_9.png"" class=""exp-image"">
                        <div class=""question-area""></div> 
                    </div>","null","","","","","","",""
"","","","","","html-button-response","52","452156","0.0-52.0","1B5454F7BC004B3C86B0AEA49931A297","019ce7b7-af67-7dd7-b49f-719bb0397f0e","019ce7a0-0965-7aa7-a556-174d32a8e773","","1094","
                    <div class=""stimulus-container"">
                        <img src=""images/causal_sequence/coin_causal/coin_causal_9.png"" class=""exp-image"">
                        <div class=""question-area"">
                            <p style=""font-size: 20px; font-weight: bold; margin: 0;"">Is there a person in this image?</p>
                        </div>
                    </div>","0","main_causal_task","9","coin_causal","","","",""
"","","","","","html-keyboard-response","53","453158","0.0-53.0","1B5454F7BC004B3C86B0AEA49931A297","019ce7b7-af67-7dd7-b49f-719bb0397f0e","019ce7a0-0965-7aa7-a556-174d32a8e773","","null","<div style=""background-color: gray; width: 100vw; height: 100vh;""></div>","null","","","","","","",""
"","","","","","html-keyboard-response","54","458159","0.0-54.0","1B5454F7BC004B3C86B0AEA49931A297","019ce7b7-af67-7dd7-b49f-719bb0397f0e","019ce7a0-0965-7aa7-a556-174d32a8e773","","null","
                    <div class=""stimulus-container"">
                        <img src=""images/causal_sequence/package_causal/package_causal_1.png"" class=""exp-image"">
                        <div class=""question-area""></div> 
                    </div>","null","","","","","","",""
"","","","","","html-button-response","55","459644","0.0-55.0","1B5454F7BC004B3C86B0AEA49931A297","019ce7b7-af67-7dd7-b49f-719bb0397f0e","019ce7a0-0965-7aa7-a556-174d32a8e773","","1483","
                    <div class=""stimulus-container"">
                        <img src=""images/causal_sequence/package_causal/package_causal_1.png"" class=""exp-image"">
                        <div class=""question-area"">
                            <p style=""font-size: 20px; font-weight: bold; margin: 0;"">Is there a person in this image?</p>
                        </div>
                    </div>","0","main_causal_task","1","package_causal","","","",""
"","","","","","html-keyboard-response","56","464646","0.0-56.0","1B5454F7BC004B3C86B0AEA49931A297","019ce7b7-af67-7dd7-b49f-719bb0397f0e","019ce7a0-0965-7aa7-a556-174d32a8e773","","null","
                    <div class=""stimulus-container"">
                        <img src=""images/causal_sequence/package_causal/package_causal_2.png"" class=""exp-image"">
                        <div class=""question-area""></div> 
                    </div>","null","","","","","","",""
"","","","","","html-button-response","57","465971","0.0-57.0","1B5454F7BC004B3C86B0AEA49931A297","019ce7b7-af67-7dd7-b49f-719bb0397f0e","019ce7a0-0965-7aa7-a556-174d32a8e773","","1324","
                    <div class=""stimulus-container"">
                        <img src=""images/causal_sequence/package_causal/package_causal_2.png"" class=""exp-image"">
                        <div class=""question-area"">
                            <p style=""font-size: 20px; font-weight: bold; margin: 0;"">Is there a person in this image?</p>
                        </div>
                    </div>","0","main_causal_task","2","package_causal","","","",""
"","","","","","html-keyboard-response","58","470973","0.0-58.0","1B5454F7BC004B3C86B0AEA49931A297","019ce7b7-af67-7dd7-b49f-719bb0397f0e","019ce7a0-0965-7aa7-a556-174d32a8e773","","null","
                    <div class=""stimulus-container"">
                        <img src=""images/causal_sequence/package_causal/package_causal_3.png"" class=""exp-image"">
                        <div class=""question-area""></div> 
                    </div>","null","","","","","","",""
"","","","","","html-button-response","59","472188","0.0-59.0","1B5454F7BC004B3C86B0AEA49931A297","019ce7b7-af67-7dd7-b49f-719bb0397f0e","019ce7a0-0965-7aa7-a556-174d32a8e773","","1212","
                    <div class=""stimulus-container"">
                        <img src=""images/causal_sequence/package_causal/package_causal_3.png"" class=""exp-image"">
                        <div class=""question-area"">
                            <p style=""font-size: 20px; font-weight: bold; margin: 0;"">Is there a person in this image?</p>
                        </div>
                    </div>","0","main_causal_task","3","package_causal","","","",""
"","","","","","html-keyboard-response","60","477190","0.0-60.0","1B5454F7BC004B3C86B0AEA49931A297","019ce7b7-af67-7dd7-b49f-719bb0397f0e","019ce7a0-0965-7aa7-a556-174d32a8e773","","null","
                    <div class=""stimulus-container"">
                        <img src=""images/causal_sequence/package_causal/package_causal_4.png"" class=""exp-image"">
                        <div class=""question-area""></div> 
                    </div>","null","","","","","","",""
"","","","","","html-button-response","61","478327","0.0-61.0","1B5454F7BC004B3C86B0AEA49931A297","019ce7b7-af67-7dd7-b49f-719bb0397f0e","019ce7a0-0965-7aa7-a556-174d32a8e773","","1135","
                    <div class=""stimulus-container"">
                        <img src=""images/causal_sequence/package_causal/package_causal_4.png"" class=""exp-image"">
                        <div class=""question-area"">
                            <p style=""font-size: 20px; font-weight: bold; margin: 0;"">Is there a person in this image?</p>
                        </div>
                    </div>","1","main_causal_task","4","package_causal","","","",""
"","","","","","html-keyboard-response","62","483331","0.0-62.0","1B5454F7BC004B3C86B0AEA49931A297","019ce7b7-af67-7dd7-b49f-719bb0397f0e","019ce7a0-0965-7aa7-a556-174d32a8e773","","null","
                    <div class=""stimulus-container"">
                        <img src=""images/causal_sequence/package_causal/package_causal_5.png"" class=""exp-image"">
                        <div class=""question-area""></div> 
                    </div>","null","","","","","","",""
"","","","","","html-button-response","63","484151","0.0-63.0","1B5454F7BC004B3C86B0AEA49931A297","019ce7b7-af67-7dd7-b49f-719bb0397f0e","019ce7a0-0965-7aa7-a556-174d32a8e773","","819","
                    <div class=""stimulus-container"">
                        <img src=""images/causal_sequence/package_causal/package_causal_5.png"" class=""exp-image"">
                        <div class=""question-area"">
                            <p style=""font-size: 20px; font-weight: bold; margin: 0;"">Is there a person in this image?</p>
                        </div>
                    </div>","0","main_causal_task","5","package_causal","","","",""
"","","","","","html-keyboard-response","64","489153","0.0-64.0","1B5454F7BC004B3C86B0AEA49931A297","019ce7b7-af67-7dd7-b49f-719bb0397f0e","019ce7a0-0965-7aa7-a556-174d32a8e773","","null","
                    <div class=""stimulus-container"">
                        <img src=""images/causal_sequence/package_causal/package_causal_6.png"" class=""exp-image"">
                        <div class=""question-area""></div> 
                    </div>","null","","","","","","",""
"","","","","","html-button-response","65","490321","0.0-65.0","1B5454F7BC004B3C86B0AEA49931A297","019ce7b7-af67-7dd7-b49f-719bb0397f0e","019ce7a0-0965-7aa7-a556-174d32a8e773","","1166","
                    <div class=""stimulus-container"">
                        <img src=""images/causal_sequence/package_causal/package_causal_6.png"" class=""exp-image"">
                        <div class=""question-area"">
                            <p style=""font-size: 20px; font-weight: bold; margin: 0;"">Is there a person in this image?</p>
                        </div>
                    </div>","0","main_causal_task","6","package_causal","","","",""
"","","","","","html-keyboard-response","66","495323","0.0-66.0","1B5454F7BC004B3C86B0AEA49931A297","019ce7b7-af67-7dd7-b49f-719bb0397f0e","019ce7a0-0965-7aa7-a556-174d32a8e773","","null","
                    <div class=""stimulus-container"">
                        <img src=""images/causal_sequence/package_causal/package_causal_7.png"" class=""exp-image"">
                        <div class=""question-area""></div> 
                    </div>","null","","","","","","",""
"","","","","","html-button-response","67","496253","0.0-67.0","1B5454F7BC004B3C86B0AEA49931A297","019ce7b7-af67-7dd7-b49f-719bb0397f0e","019ce7a0-0965-7aa7-a556-174d32a8e773","","929","
                    <div class=""stimulus-container"">
                        <img src=""images/causal_sequence/package_causal/package_causal_7.png"" class=""exp-image"">
                        <div class=""question-area"">
                            <p style=""font-size: 20px; font-weight: bold; margin: 0;"">Is there a person in this image?</p>
                        </div>
                    </div>","0","main_causal_task","7","package_causal","","","",""
"","","","","","html-keyboard-response","68","501255","0.0-68.0","1B5454F7BC004B3C86B0AEA49931A297","019ce7b7-af67-7dd7-b49f-719bb0397f0e","019ce7a0-0965-7aa7-a556-174d32a8e773","","null","
                    <div class=""stimulus-container"">
                        <img src=""images/causal_sequence/package_causal/package_causal_8.png"" class=""exp-image"">
                        <div class=""question-area""></div> 
                    </div>","null","","","","","","",""
"","","","","","html-button-response","69","502336","0.0-69.0","1B5454F7BC004B3C86B0AEA49931A297","019ce7b7-af67-7dd7-b49f-719bb0397f0e","019ce7a0-0965-7aa7-a556-174d32a8e773","","1079","
                    <div class=""stimulus-container"">
                        <img src=""images/causal_sequence/package_causal/package_causal_8.png"" class=""exp-image"">
                        <div class=""question-area"">
                            <p style=""font-size: 20px; font-weight: bold; margin: 0;"">Is there a person in this image?</p>
                        </div>
                    </div>","0","main_causal_task","8","package_causal","","","",""
"","","","","","html-keyboard-response","70","507338","0.0-70.0","1B5454F7BC004B3C86B0AEA49931A297","019ce7b7-af67-7dd7-b49f-719bb0397f0e","019ce7a0-0965-7aa7-a556-174d32a8e773","","null","
                    <div class=""stimulus-container"">
                        <img src=""images/causal_sequence/package_causal/package_causal_9.png"" class=""exp-image"">
                        <div class=""question-area""></div> 
                    </div>","null","","","","","","",""
"","","","","","html-button-response","71","508641","0.0-71.0","1B5454F7BC004B3C86B0AEA49931A297","019ce7b7-af67-7dd7-b49f-719bb0397f0e","019ce7a0-0965-7aa7-a556-174d32a8e773","","1301","
                    <div class=""stimulus-container"">
                        <img src=""images/causal_sequence/package_causal/package_causal_9.png"" class=""exp-image"">
                        <div class=""question-area"">
                            <p style=""font-size: 20px; font-weight: bold; margin: 0;"">Is there a person in this image?</p>
                        </div>
                    </div>","0","main_causal_task","9","package_causal","","","",""
"","","","","","html-keyboard-response","72","509643","0.0-72.0","1B5454F7BC004B3C86B0AEA49931A297","019ce7b7-af67-7dd7-b49f-719bb0397f0e","019ce7a0-0965-7aa7-a556-174d32a8e773","","null","<div style=""background-color: gray; width: 100vw; height: 100vh;""></div>","null","","","","","","",""
"","","","","","html-keyboard-response","73","514645","0.0-73.0","1B5454F7BC004B3C86B0AEA49931A297","019ce7b7-af67-7dd7-b49f-719bb0397f0e","019ce7a0-0965-7aa7-a556-174d32a8e773","","null","
                    <div class=""stimulus-container"">
                        <img src=""images/causal_sequence/saving_a_cat_causal/saving_a_cat_causal_1.png"" class=""exp-image"">
                        <div class=""question-area""></div> 
                    </div>","null","","","","","","",""
"","","","","","html-button-response","74","515632","0.0-74.0","1B5454F7BC004B3C86B0AEA49931A297","019ce7b7-af67-7dd7-b49f-719bb0397f0e","019ce7a0-0965-7aa7-a556-174d32a8e773","","987","
                    <div class=""stimulus-container"">
                        <img src=""images/causal_sequence/saving_a_cat_causal/saving_a_cat_causal_1.png"" class=""exp-image"">
                        <div class=""question-area"">
                            <p style=""font-size: 20px; font-weight: bold; margin: 0;"">Is there a person in this image?</p>
                        </div>
                    </div>","0","main_causal_task","1","saving_a_cat_causal","","","",""
"","","","","","html-keyboard-response","75","520634","0.0-75.0","1B5454F7BC004B3C86B0AEA49931A297","019ce7b7-af67-7dd7-b49f-719bb0397f0e","019ce7a0-0965-7aa7-a556-174d32a8e773","","null","
                    <div class=""stimulus-container"">
                        <img src=""images/causal_sequence/saving_a_cat_causal/saving_a_cat_causal_2.png"" class=""exp-image"">
                        <div class=""question-area""></div> 
                    </div>","null","","","","","","",""
"","","","","","html-button-response","76","522187","0.0-76.0","1B5454F7BC004B3C86B0AEA49931A297","019ce7b7-af67-7dd7-b49f-719bb0397f0e","019ce7a0-0965-7aa7-a556-174d32a8e773","","1552","
                    <div class=""stimulus-container"">
                        <img src=""images/causal_sequence/saving_a_cat_causal/saving_a_cat_causal_2.png"" class=""exp-image"">
                        <div class=""question-area"">
                            <p style=""font-size: 20px; font-weight: bold; margin: 0;"">Is there a person in this image?</p>
                        </div>
                    </div>","1","main_causal_task","2","saving_a_cat_causal","","","",""
"","","","","","html-keyboard-response","77","527189","0.0-77.0","1B5454F7BC004B3C86B0AEA49931A297","019ce7b7-af67-7dd7-b49f-719bb0397f0e","019ce7a0-0965-7aa7-a556-174d32a8e773","","null","
                    <div class=""stimulus-container"">
                        <img src=""images/causal_sequence/saving_a_cat_causal/saving_a_cat_causal_3.png"" class=""exp-image"">
                        <div class=""question-area""></div> 
                    </div>","null","","","","","","",""
"","","","","","html-button-response","78","528069","0.0-78.0","1B5454F7BC004B3C86B0AEA49931A297","019ce7b7-af67-7dd7-b49f-719bb0397f0e","019ce7a0-0965-7aa7-a556-174d32a8e773","","878","
                    <div class=""stimulus-container"">
                        <img src=""images/causal_sequence/saving_a_cat_causal/saving_a_cat_causal_3.png"" class=""exp-image"">
                        <div class=""question-area"">
                            <p style=""font-size: 20px; font-weight: bold; margin: 0;"">Is there a person in this image?</p>
                        </div>
                    </div>","1","main_causal_task","3","saving_a_cat_causal","","","",""
"","","","","","html-keyboard-response","79","533071","0.0-79.0","1B5454F7BC004B3C86B0AEA49931A297","019ce7b7-af67-7dd7-b49f-719bb0397f0e","019ce7a0-0965-7aa7-a556-174d32a8e773","","null","
                    <div class=""stimulus-container"">
                        <img src=""images/causal_sequence/saving_a_cat_causal/saving_a_cat_causal_4.png"" class=""exp-image"">
                        <div class=""question-area""></div> 
                    </div>","null","","","","","","",""
"","","","","","html-button-response","80","534191","0.0-80.0","1B5454F7BC004B3C86B0AEA49931A297","019ce7b7-af67-7dd7-b49f-719bb0397f0e","019ce7a0-0965-7aa7-a556-174d32a8e773","","1119","
                    <div class=""stimulus-container"">
                        <img src=""images/causal_sequence/saving_a_cat_causal/saving_a_cat_causal_4.png"" class=""exp-image"">
                        <div class=""question-area"">
                            <p style=""font-size: 20px; font-weight: bold; margin: 0;"">Is there a person in this image?</p>
                        </div>
                    </div>","0","main_causal_task","4","saving_a_cat_causal","","","",""
"","","","","","html-keyboard-response","81","539192","0.0-81.0","1B5454F7BC004B3C86B0AEA49931A297","019ce7b7-af67-7dd7-b49f-719bb0397f0e","019ce7a0-0965-7aa7-a556-174d32a8e773","","null","
                    <div class=""stimulus-container"">
                        <img src=""images/causal_sequence/saving_a_cat_causal/saving_a_cat_causal_5.png"" class=""exp-image"">
                        <div class=""question-area""></div> 
                    </div>","null","","","","","","",""
"","","","","","html-button-response","82","540532","0.0-82.0","1B5454F7BC004B3C86B0AEA49931A297","019ce7b7-af67-7dd7-b49f-719bb0397f0e","019ce7a0-0965-7aa7-a556-174d32a8e773","","1338","
                    <div class=""stimulus-container"">
                        <img src=""images/causal_sequence/saving_a_cat_causal/saving_a_cat_causal_5.png"" class=""exp-image"">
                        <div class=""question-area"">
                            <p style=""font-size: 20px; font-weight: bold; margin: 0;"">Is there a person in this image?</p>
                        </div>
                    </div>","0","main_causal_task","5","saving_a_cat_causal","","","",""
"","","","","","html-keyboard-response","83","545533","0.0-83.0","1B5454F7BC004B3C86B0AEA49931A297","019ce7b7-af67-7dd7-b49f-719bb0397f0e","019ce7a0-0965-7aa7-a556-174d32a8e773","","null","
                    <div class=""stimulus-container"">
                        <img src=""images/causal_sequence/saving_a_cat_causal/saving_a_cat_causal_6.png"" class=""exp-image"">
                        <div class=""question-area""></div> 
                    </div>","null","","","","","","",""
"","","","","","html-button-response","84","546759","0.0-84.0","1B5454F7BC004B3C86B0AEA49931A297","019ce7b7-af67-7dd7-b49f-719bb0397f0e","019ce7a0-0965-7aa7-a556-174d32a8e773","","1224","
                    <div class=""stimulus-container"">
                        <img src=""images/causal_sequence/saving_a_cat_causal/saving_a_cat_causal_6.png"" class=""exp-image"">
                        <div class=""question-area"">
                            <p style=""font-size: 20px; font-weight: bold; margin: 0;"">Is there a person in this image?</p>
                        </div>
                    </div>","0","main_causal_task","6","saving_a_cat_causal","","","",""
"","","","","","html-keyboard-response","85","551761","0.0-85.0","1B5454F7BC004B3C86B0AEA49931A297","019ce7b7-af67-7dd7-b49f-719bb0397f0e","019ce7a0-0965-7aa7-a556-174d32a8e773","","null","
                    <div class=""stimulus-container"">
                        <img src=""images/causal_sequence/saving_a_cat_causal/saving_a_cat_causal_7.png"" class=""exp-image"">
                        <div class=""question-area""></div> 
                    </div>","null","","","","","","",""
"","","","","","html-button-response","86","552719","0.0-86.0","1B5454F7BC004B3C86B0AEA49931A297","019ce7b7-af67-7dd7-b49f-719bb0397f0e","019ce7a0-0965-7aa7-a556-174d32a8e773","","957","
                    <div class=""stimulus-container"">
                        <img src=""images/causal_sequence/saving_a_cat_causal/saving_a_cat_causal_7.png"" class=""exp-image"">
                        <div class=""question-area"">
                            <p style=""font-size: 20px; font-weight: bold; margin: 0;"">Is there a person in this image?</p>
                        </div>
                    </div>","0","main_causal_task","7","saving_a_cat_causal","","","",""
"","","","","","html-keyboard-response","87","557721","0.0-87.0","1B5454F7BC004B3C86B0AEA49931A297","019ce7b7-af67-7dd7-b49f-719bb0397f0e","019ce7a0-0965-7aa7-a556-174d32a8e773","","null","
                    <div class=""stimulus-container"">
                        <img src=""images/causal_sequence/saving_a_cat_causal/saving_a_cat_causal_8.png"" class=""exp-image"">
                        <div class=""question-area""></div> 
                    </div>","null","","","","","","",""
"","","","","","html-button-response","88","558791","0.0-88.0","1B5454F7BC004B3C86B0AEA49931A297","019ce7b7-af67-7dd7-b49f-719bb0397f0e","019ce7a0-0965-7aa7-a556-174d32a8e773","","1069","
                    <div class=""stimulus-container"">
                        <img src=""images/causal_sequence/saving_a_cat_causal/saving_a_cat_causal_8.png"" class=""exp-image"">
                        <div class=""question-area"">
                            <p style=""font-size: 20px; font-weight: bold; margin: 0;"">Is there a person in this image?</p>
                        </div>
                    </div>","0","main_causal_task","8","saving_a_cat_causal","","","",""
"","","","","","html-keyboard-response","89","563792","0.0-89.0","1B5454F7BC004B3C86B0AEA49931A297","019ce7b7-af67-7dd7-b49f-719bb0397f0e","019ce7a0-0965-7aa7-a556-174d32a8e773","","null","
                    <div class=""stimulus-container"">
                        <img src=""images/causal_sequence/saving_a_cat_causal/saving_a_cat_causal_9.png"" class=""exp-image"">
                        <div class=""question-area""></div> 
                    </div>","null","","","","","","",""
"","","","","","html-button-response","90","565103","0.0-90.0","1B5454F7BC004B3C86B0AEA49931A297","019ce7b7-af67-7dd7-b49f-719bb0397f0e","019ce7a0-0965-7aa7-a556-174d32a8e773","","1309","
                    <div class=""stimulus-container"">
                        <img src=""images/causal_sequence/saving_a_cat_causal/saving_a_cat_causal_9.png"" class=""exp-image"">
                        <div class=""question-area"">
                            <p style=""font-size: 20px; font-weight: bold; margin: 0;"">Is there a person in this image?</p>
                        </div>
                    </div>","0","main_causal_task","9","saving_a_cat_causal","","","",""
"","","","","","html-keyboard-response","91","566105","0.0-91.0","1B5454F7BC004B3C86B0AEA49931A297","019ce7b7-af67-7dd7-b49f-719bb0397f0e","019ce7a0-0965-7aa7-a556-174d32a8e773","","null","<div style=""background-color: gray; width: 100vw; height: 100vh;""></div>","null","","","","","","",""
"","","","","","html-keyboard-response","92","571107","0.0-92.0","1B5454F7BC004B3C86B0AEA49931A297","019ce7b7-af67-7dd7-b49f-719bb0397f0e","019ce7a0-0965-7aa7-a556-174d32a8e773","","null","
                    <div class=""stimulus-container"">
                        <img src=""images/causal_sequence/dog_causal/dog_causal_1.png"" class=""exp-image"">
                        <div class=""question-area""></div> 
                    </div>","null","","","","","","",""
"","","","","","html-button-response","93","572524","0.0-93.0","1B5454F7BC004B3C86B0AEA49931A297","019ce7b7-af67-7dd7-b49f-719bb0397f0e","019ce7a0-0965-7aa7-a556-174d32a8e773","","1415","
                    <div class=""stimulus-container"">
                        <img src=""images/causal_sequence/dog_causal/dog_causal_1.png"" class=""exp-image"">
                        <div class=""question-area"">
                            <p style=""font-size: 20px; font-weight: bold; margin: 0;"">Is there a person in this image?</p>
                        </div>
                    </div>","0","main_causal_task","1","dog_causal","","","",""
"","","","","","html-keyboard-response","94","577526","0.0-94.0","1B5454F7BC004B3C86B0AEA49931A297","019ce7b7-af67-7dd7-b49f-719bb0397f0e","019ce7a0-0965-7aa7-a556-174d32a8e773","","null","
                    <div class=""stimulus-container"">
                        <img src=""images/causal_sequence/dog_causal/dog_causal_2.png"" class=""exp-image"">
                        <div class=""question-area""></div> 
                    </div>","null","","","","","","",""
"","","","","","html-button-response","95","578535","0.0-95.0","1B5454F7BC004B3C86B0AEA49931A297","019ce7b7-af67-7dd7-b49f-719bb0397f0e","019ce7a0-0965-7aa7-a556-174d32a8e773","","1007","
                    <div class=""stimulus-container"">
                        <img src=""images/causal_sequence/dog_causal/dog_causal_2.png"" class=""exp-image"">
                        <div class=""question-area"">
                            <p style=""font-size: 20px; font-weight: bold; margin: 0;"">Is there a person in this image?</p>
                        </div>
                    </div>","0","main_causal_task","2","dog_causal","","","",""
"","","","","","html-keyboard-response","96","583537","0.0-96.0","1B5454F7BC004B3C86B0AEA49931A297","019ce7b7-af67-7dd7-b49f-719bb0397f0e","019ce7a0-0965-7aa7-a556-174d32a8e773","","null","
                    <div class=""stimulus-container"">
                        <img src=""images/causal_sequence/dog_causal/dog_causal_3.png"" class=""exp-image"">
                        <div class=""question-area""></div> 
                    </div>","null","","","","","","",""
"","","","","","html-button-response","97","584750","0.0-97.0","1B5454F7BC004B3C86B0AEA49931A297","019ce7b7-af67-7dd7-b49f-719bb0397f0e","019ce7a0-0965-7aa7-a556-174d32a8e773","","1211","
                    <div class=""stimulus-container"">
                        <img src=""images/causal_sequence/dog_causal/dog_causal_3.png"" class=""exp-image"">
                        <div class=""question-area"">
                            <p style=""font-size: 20px; font-weight: bold; margin: 0;"">Is there a person in this image?</p>
                        </div>
                    </div>","0","main_causal_task","3","dog_causal","","","",""
"","","","","","html-keyboard-response","98","589752","0.0-98.0","1B5454F7BC004B3C86B0AEA49931A297","019ce7b7-af67-7dd7-b49f-719bb0397f0e","019ce7a0-0965-7aa7-a556-174d32a8e773","","null","
                    <div class=""stimulus-container"">
                        <img src=""images/causal_sequence/dog_causal/dog_causal_4.png"" class=""exp-image"">
                        <div class=""question-area""></div> 
                    </div>","null","","","","","","",""
"","","","","","html-button-response","99","590808","0.0-99.0","1B5454F7BC004B3C86B0AEA49931A297","019ce7b7-af67-7dd7-b49f-719bb0397f0e","019ce7a0-0965-7aa7-a556-174d32a8e773","","1055","
                    <div class=""stimulus-container"">
                        <img src=""images/causal_sequence/dog_causal/dog_causal_4.png"" class=""exp-image"">
                        <div class=""question-area"">
                            <p style=""font-size: 20px; font-weight: bold; margin: 0;"">Is there a person in this image?</p>
                        </div>
                    </div>","0","main_causal_task","4","dog_causal","","","",""
"","","","","","html-keyboard-response","100","595811","0.0-100.0","1B5454F7BC004B3C86B0AEA49931A297","019ce7b7-af67-7dd7-b49f-719bb0397f0e","019ce7a0-0965-7aa7-a556-174d32a8e773","","null","
                    <div class=""stimulus-container"">
                        <img src=""images/causal_sequence/dog_causal/dog_causal_5.png"" class=""exp-image"">
                        <div class=""question-area""></div> 
                    </div>","null","","","","","","",""
"","","","","","html-button-response","101","597206","0.0-101.0","1B5454F7BC004B3C86B0AEA49931A297","019ce7b7-af67-7dd7-b49f-719bb0397f0e","019ce7a0-0965-7aa7-a556-174d32a8e773","","1394","
                    <div class=""stimulus-container"">
                        <img src=""images/causal_sequence/dog_causal/dog_causal_5.png"" class=""exp-image"">
                        <div class=""question-area"">
                            <p style=""font-size: 20px; font-weight: bold; margin: 0;"">Is there a person in this image?</p>
                        </div>
                    </div>","0","main_causal_task","5","dog_causal","","","",""
"","","","","","html-keyboard-response","102","602207","0.0-102.0","1B5454F7BC004B3C86B0AEA49931A297","019ce7b7-af67-7dd7-b49f-719bb0397f0e","019ce7a0-0965-7aa7-a556-174d32a8e773","","null","
                    <div class=""stimulus-container"">
                        <img src=""images/causal_sequence/dog_causal/dog_causal_6.png"" class=""exp-image"">
                        <div class=""question-area""></div> 
                    </div>","null","","","","","","",""
"","","","","","html-button-response","103","603200","0.0-103.0","1B5454F7BC004B3C86B0AEA49931A297","019ce7b7-af67-7dd7-b49f-719bb0397f0e","019ce7a0-0965-7aa7-a556-174d32a8e773","","991","
                    <div class=""stimulus-container"">
                        <img src=""images/causal_sequence/dog_causal/dog_causal_6.png"" class=""exp-image"">
                        <div class=""question-area"">
                            <p style=""font-size: 20px; font-weight: bold; margin: 0;"">Is there a person in this image?</p>
                        </div>
                    </div>","0","main_causal_task","6","dog_causal","","","",""
"","","","","","html-keyboard-response","104","608202","0.0-104.0","1B5454F7BC004B3C86B0AEA49931A297","019ce7b7-af67-7dd7-b49f-719bb0397f0e","019ce7a0-0965-7aa7-a556-174d32a8e773","","null","
                    <div class=""stimulus-container"">
                        <img src=""images/causal_sequence/dog_causal/dog_causal_7.png"" class=""exp-image"">
                        <div class=""question-area""></div> 
                    </div>","null","","","","","","",""
"","","","","","html-button-response","105","609663","0.0-105.0","1B5454F7BC004B3C86B0AEA49931A297","019ce7b7-af67-7dd7-b49f-719bb0397f0e","019ce7a0-0965-7aa7-a556-174d32a8e773","","1460","
                    <div class=""stimulus-container"">
                        <img src=""images/causal_sequence/dog_causal/dog_causal_7.png"" class=""exp-image"">
                        <div class=""question-area"">
                            <p style=""font-size: 20px; font-weight: bold; margin: 0;"">Is there a person in this image?</p>
                        </div>
                    </div>","0","main_causal_task","7","dog_causal","","","",""
"","","","","","html-keyboard-response","106","614665","0.0-106.0","1B5454F7BC004B3C86B0AEA49931A297","019ce7b7-af67-7dd7-b49f-719bb0397f0e","019ce7a0-0965-7aa7-a556-174d32a8e773","","null","
                    <div class=""stimulus-container"">
                        <img src=""images/causal_sequence/dog_causal/dog_causal_8.png"" class=""exp-image"">
                        <div class=""question-area""></div> 
                    </div>","null","","","","","","",""
"","","","","","html-button-response","107","615878","0.0-107.0","1B5454F7BC004B3C86B0AEA49931A297","019ce7b7-af67-7dd7-b49f-719bb0397f0e","019ce7a0-0965-7aa7-a556-174d32a8e773","","1211","
                    <div class=""stimulus-container"">
                        <img src=""images/causal_sequence/dog_causal/dog_causal_8.png"" class=""exp-image"">
                        <div class=""question-area"">
                            <p style=""font-size: 20px; font-weight: bold; margin: 0;"">Is there a person in this image?</p>
                        </div>
                    </div>","0","main_causal_task","8","dog_causal","","","",""
"","","","","","html-keyboard-response","108","620880","0.0-108.0","1B5454F7BC004B3C86B0AEA49931A297","019ce7b7-af67-7dd7-b49f-719bb0397f0e","019ce7a0-0965-7aa7-a556-174d32a8e773","","null","
                    <div class=""stimulus-container"">
                        <img src=""images/causal_sequence/dog_causal/dog_causal_9.png"" class=""exp-image"">
                        <div class=""question-area""></div> 
                    </div>","null","","","","","","",""
"","","","","","html-button-response","109","621750","0.0-109.0","1B5454F7BC004B3C86B0AEA49931A297","019ce7b7-af67-7dd7-b49f-719bb0397f0e","019ce7a0-0965-7aa7-a556-174d32a8e773","","869","
                    <div class=""stimulus-container"">
                        <img src=""images/causal_sequence/dog_causal/dog_causal_9.png"" class=""exp-image"">
                        <div class=""question-area"">
                            <p style=""font-size: 20px; font-weight: bold; margin: 0;"">Is there a person in this image?</p>
                        </div>
                    </div>","0","main_causal_task","9","dog_causal","","","",""
"","","","","","html-keyboard-response","110","622752","0.0-110.0","1B5454F7BC004B3C86B0AEA49931A297","019ce7b7-af67-7dd7-b49f-719bb0397f0e","019ce7a0-0965-7aa7-a556-174d32a8e773","","null","<div style=""background-color: gray; width: 100vw; height: 100vh;""></div>","null","","","","","","",""
"","","","","","html-keyboard-response","111","627755","0.0-111.0","1B5454F7BC004B3C86B0AEA49931A297","019ce7b7-af67-7dd7-b49f-719bb0397f0e","019ce7a0-0965-7aa7-a556-174d32a8e773","","null","
                    <div class=""stimulus-container"">
                        <img src=""images/causal_sequence/museum_causal/museum_causal_1.png"" class=""exp-image"">
                        <div class=""question-area""></div> 
                    </div>","null","","","","","","",""
"","","","","","html-button-response","112","629950","0.0-112.0","1B5454F7BC004B3C86B0AEA49931A297","019ce7b7-af67-7dd7-b49f-719bb0397f0e","019ce7a0-0965-7aa7-a556-174d32a8e773","","2194","
                    <div class=""stimulus-container"">
                        <img src=""images/causal_sequence/museum_causal/museum_causal_1.png"" class=""exp-image"">
                        <div class=""question-area"">
                            <p style=""font-size: 20px; font-weight: bold; margin: 0;"">Is there a person in this image?</p>
                        </div>
                    </div>","0","main_causal_task","1","museum_causal","","","",""
"","","","","","html-keyboard-response","113","634952","0.0-113.0","1B5454F7BC004B3C86B0AEA49931A297","019ce7b7-af67-7dd7-b49f-719bb0397f0e","019ce7a0-0965-7aa7-a556-174d32a8e773","","null","
                    <div class=""stimulus-container"">
                        <img src=""images/causal_sequence/museum_causal/museum_causal_2.png"" class=""exp-image"">
                        <div class=""question-area""></div> 
                    </div>","null","","","","","","",""
"","","","","","html-button-response","114","636508","0.0-114.0","1B5454F7BC004B3C86B0AEA49931A297","019ce7b7-af67-7dd7-b49f-719bb0397f0e","019ce7a0-0965-7aa7-a556-174d32a8e773","","1555","
                    <div class=""stimulus-container"">
                        <img src=""images/causal_sequence/museum_causal/museum_causal_2.png"" class=""exp-image"">
                        <div class=""question-area"">
                            <p style=""font-size: 20px; font-weight: bold; margin: 0;"">Is there a person in this image?</p>
                        </div>
                    </div>","1","main_causal_task","2","museum_causal","","","",""
"","","","","","html-keyboard-response","115","641510","0.0-115.0","1B5454F7BC004B3C86B0AEA49931A297","019ce7b7-af67-7dd7-b49f-719bb0397f0e","019ce7a0-0965-7aa7-a556-174d32a8e773","","null","
                    <div class=""stimulus-container"">
                        <img src=""images/causal_sequence/museum_causal/museum_causal_3.png"" class=""exp-image"">
                        <div class=""question-area""></div> 
                    </div>","null","","","","","","",""
"","","","","","html-button-response","116","643354","0.0-116.0","1B5454F7BC004B3C86B0AEA49931A297","019ce7b7-af67-7dd7-b49f-719bb0397f0e","019ce7a0-0965-7aa7-a556-174d32a8e773","","1843","
                    <div class=""stimulus-container"">
                        <img src=""images/causal_sequence/museum_causal/museum_causal_3.png"" class=""exp-image"">
                        <div class=""question-area"">
                            <p style=""font-size: 20px; font-weight: bold; margin: 0;"">Is there a person in this image?</p>
                        </div>
                    </div>","1","main_causal_task","3","museum_causal","","","",""
"","","","","","html-keyboard-response","117","648356","0.0-117.0","1B5454F7BC004B3C86B0AEA49931A297","019ce7b7-af67-7dd7-b49f-719bb0397f0e","019ce7a0-0965-7aa7-a556-174d32a8e773","","null","
                    <div class=""stimulus-container"">
                        <img src=""images/causal_sequence/museum_causal/museum_causal_4.png"" class=""exp-image"">
                        <div class=""question-area""></div> 
                    </div>","null","","","","","","",""
"","","","","","html-button-response","118","651358","0.0-118.0","1B5454F7BC004B3C86B0AEA49931A297","019ce7b7-af67-7dd7-b49f-719bb0397f0e","019ce7a0-0965-7aa7-a556-174d32a8e773","","null","
                    <div class=""stimulus-container"">
                        <img src=""images/causal_sequence/museum_causal/museum_causal_4.png"" class=""exp-image"">
                        <div class=""question-area"">
                            <p style=""font-size: 20px; font-weight: bold; margin: 0;"">Is there a person in this image?</p>
                        </div>
                    </div>","null","main_causal_task","4","museum_causal","","","",""
"","","","","","html-keyboard-response","119","656360","0.0-119.0","1B5454F7BC004B3C86B0AEA49931A297","019ce7b7-af67-7dd7-b49f-719bb0397f0e","019ce7a0-0965-7aa7-a556-174d32a8e773","","null","
                    <div class=""stimulus-container"">
                        <img src=""images/causal_sequence/museum_causal/museum_causal_5.png"" class=""exp-image"">
                        <div class=""question-area""></div> 
                    </div>","null","","","","","","",""
"","","","","","html-button-response","120","659363","0.0-120.0","1B5454F7BC004B3C86B0AEA49931A297","019ce7b7-af67-7dd7-b49f-719bb0397f0e","019ce7a0-0965-7aa7-a556-174d32a8e773","","null","
                    <div class=""stimulus-container"">
                        <img src=""images/causal_sequence/museum_causal/museum_causal_5.png"" class=""exp-image"">
                        <div class=""question-area"">
                            <p style=""font-size: 20px; font-weight: bold; margin: 0;"">Is there a person in this image?</p>
                        </div>
                    </div>","null","main_causal_task","5","museum_causal","","","",""
"","","","","","html-keyboard-response","121","664365","0.0-121.0","1B5454F7BC004B3C86B0AEA49931A297","019ce7b7-af67-7dd7-b49f-719bb0397f0e","019ce7a0-0965-7aa7-a556-174d32a8e773","","null","
                    <div class=""stimulus-container"">
                        <img src=""images/causal_sequence/museum_causal/museum_causal_6.png"" class=""exp-image"">
                        <div class=""question-area""></div> 
                    </div>","null","","","","","","",""
"","","","","","html-button-response","122","666109","0.0-122.0","1B5454F7BC004B3C86B0AEA49931A297","019ce7b7-af67-7dd7-b49f-719bb0397f0e","019ce7a0-0965-7aa7-a556-174d32a8e773","","1742","
                    <div class=""stimulus-container"">
                        <img src=""images/causal_sequence/museum_causal/museum_causal_6.png"" class=""exp-image"">
                        <div class=""question-area"">
                            <p style=""font-size: 20px; font-weight: bold; margin: 0;"">Is there a person in this image?</p>
                        </div>
                    </div>","0","main_causal_task","6","museum_causal","","","",""
"","","","","","html-keyboard-response","123","671110","0.0-123.0","1B5454F7BC004B3C86B0AEA49931A297","019ce7b7-af67-7dd7-b49f-719bb0397f0e","019ce7a0-0965-7aa7-a556-174d32a8e773","","null","
                    <div class=""stimulus-container"">
                        <img src=""images/causal_sequence/museum_causal/museum_causal_7.png"" class=""exp-image"">
                        <div class=""question-area""></div> 
                    </div>","null","","","","","","",""
"","","","","","html-button-response","124","673036","0.0-124.0","1B5454F7BC004B3C86B0AEA49931A297","019ce7b7-af67-7dd7-b49f-719bb0397f0e","019ce7a0-0965-7aa7-a556-174d32a8e773","","1924","
                    <div class=""stimulus-container"">
                        <img src=""images/causal_sequence/museum_causal/museum_causal_7.png"" class=""exp-image"">
                        <div class=""question-area"">
                            <p style=""font-size: 20px; font-weight: bold; margin: 0;"">Is there a person in this image?</p>
                        </div>
                    </div>","1","main_causal_task","7","museum_causal","","","",""
"","","","","","html-keyboard-response","125","678037","0.0-125.0","1B5454F7BC004B3C86B0AEA49931A297","019ce7b7-af67-7dd7-b49f-719bb0397f0e","019ce7a0-0965-7aa7-a556-174d32a8e773","","null","
                    <div class=""stimulus-container"">
                        <img src=""images/causal_sequence/museum_causal/museum_causal_8.png"" class=""exp-image"">
                        <div class=""question-area""></div> 
                    </div>","null","","","","","","",""
"","","","","","html-button-response","126","679520","0.0-126.0","1B5454F7BC004B3C86B0AEA49931A297","019ce7b7-af67-7dd7-b49f-719bb0397f0e","019ce7a0-0965-7aa7-a556-174d32a8e773","","1481","
                    <div class=""stimulus-container"">
                        <img src=""images/causal_sequence/museum_causal/museum_causal_8.png"" class=""exp-image"">
                        <div class=""question-area"">
                            <p style=""font-size: 20px; font-weight: bold; margin: 0;"">Is there a person in this image?</p>
                        </div>
                    </div>","0","main_causal_task","8","museum_causal","","","",""
"","","","","","html-keyboard-response","127","684522","0.0-127.0","1B5454F7BC004B3C86B0AEA49931A297","019ce7b7-af67-7dd7-b49f-719bb0397f0e","019ce7a0-0965-7aa7-a556-174d32a8e773","","null","
                    <div class=""stimulus-container"">
                        <img src=""images/causal_sequence/museum_causal/museum_causal_9.png"" class=""exp-image"">
                        <div class=""question-area""></div> 
                    </div>","null","","","","","","",""
"","","","","","html-button-response","128","687363","0.0-128.0","1B5454F7BC004B3C86B0AEA49931A297","019ce7b7-af67-7dd7-b49f-719bb0397f0e","019ce7a0-0965-7aa7-a556-174d32a8e773","","2840","
                    <div class=""stimulus-container"">
                        <img src=""images/causal_sequence/museum_causal/museum_causal_9.png"" class=""exp-image"">
                        <div class=""question-area"">
                            <p style=""font-size: 20px; font-weight: bold; margin: 0;"">Is there a person in this image?</p>
                        </div>
                    </div>","1","main_causal_task","9","museum_causal","","","",""
"","","","","","instructions","129","697838","0.0-129.0","1B5454F7BC004B3C86B0AEA49931A297","019ce7b7-af67-7dd7-b49f-719bb0397f0e","019ce7a0-0965-7aa7-a556-174d32a8e773","[{""page_index"":0,""viewing_time"":10474}]","10474","","","","","","","","",""
"","","","","","instructions","130","724605","0.0-130.0","1B5454F7BC004B3C86B0AEA49931A297","019ce7b7-af67-7dd7-b49f-719bb0397f0e","019ce7a0-0965-7aa7-a556-174d32a8e773","[{""page_index"":0,""viewing_time"":26766}]","26767","","","","","","","","",""
"","","","","","html-keyboard-response","131","725607","0.0-131.0","1B5454F7BC004B3C86B0AEA49931A297","019ce7b7-af67-7dd7-b49f-719bb0397f0e","019ce7a0-0965-7aa7-a556-174d32a8e773","","null","
        <div class=""stimulus-container"" style=""display: flex; align-items: center; justify-content: center; gap: 30px;"">
            <img src=""images/instructions/movie_1.png"" class=""exp-image"">
            <div style=""font-size: 40px; font-weight: bold; color: green; border: 5px solid green; padding: 25px; border-radius: 15px; background-color: #f0fff0;"">
                WORTH<br>$1
            </div>
        </div>
        <div class=""question-area""></div>","null","","","","","","",""
"","","","","","html-button-response","132","728048","0.0-132.0","1B5454F7BC004B3C86B0AEA49931A297","019ce7b7-af67-7dd7-b49f-719bb0397f0e","019ce7a0-0965-7aa7-a556-174d32a8e773","","2439","
        <div class=""stimulus-container"" style=""display: flex; align-items: center; justify-content: center; gap: 30px;"">
            <img src=""images/instructions/movie_1.png"" class=""exp-image"">
            <div style=""font-size: 40px; font-weight: bold; color: green; border: 5px solid green; padding: 25px; border-radius: 15px; background-color: #f0fff0;"">
                WORTH<br>$1
            </div>
        </div>
        <div class=""question-area"">
            <p style=""font-size: 20px; font-weight: bold; margin: 0;"">Was there a person in this image?</p>
        </div>","0","","","","","","",""
"","","","","","instructions","133","733506","0.0-133.0","1B5454F7BC004B3C86B0AEA49931A297","019ce7b7-af67-7dd7-b49f-719bb0397f0e","019ce7a0-0965-7aa7-a556-174d32a8e773","[{""page_index"":0,""viewing_time"":5458}]","5458","","","","","","","","",""
"","","","","","html-keyboard-response","134","743508","0.0-134.0","1B5454F7BC004B3C86B0AEA49931A297","019ce7b7-af67-7dd7-b49f-719bb0397f0e","019ce7a0-0965-7aa7-a556-174d32a8e773","","null","
            <div class=""stimulus-container"" style=""display: flex; align-items: center; justify-content: center; gap: 30px;"">
                <img src=""images/causal_sequence/museum_causal/museum_causal_5.png"" class=""exp-image"">
                <div style=""font-size: 40px; font-weight: bold; color: green; border: 5px solid green; padding: 25px; border-radius: 15px; background-color: #f0fff0;"">
                    WORTH<br>$1
                </div>
            </div>
            <div class=""question-area""></div>","null","","","","","","",""
"","","","","","html-button-response","135","745904","0.0-135.0","1B5454F7BC004B3C86B0AEA49931A297","019ce7b7-af67-7dd7-b49f-719bb0397f0e","019ce7a0-0965-7aa7-a556-174d32a8e773","","2394","
            <div class=""stimulus-container"" style=""display: flex; align-items: center; justify-content: center; gap: 30px;"">
                <img src=""images/causal_sequence/museum_causal/museum_causal_5.png"" class=""exp-image"">
                <div style=""font-size: 40px; font-weight: bold; color: green; border: 5px solid green; padding: 25px; border-radius: 15px; background-color: #f0fff0;"">
                    WORTH<br>$1
                </div>
            </div>
            <div class=""question-area"">
                <p style=""font-size: 20px; font-weight: bold; margin: 0;"">Was there a person in this image?</p>
            </div>","0","part2_value_learning","","museum_causal","5","","",""
"","","","","","html-keyboard-response","136","755906","0.0-136.0","1B5454F7BC004B3C86B0AEA49931A297","019ce7b7-af67-7dd7-b49f-719bb0397f0e","019ce7a0-0965-7aa7-a556-174d32a8e773","","null","
            <div class=""stimulus-container"" style=""display: flex; align-items: center; justify-content: center; gap: 30px;"">
                <img src=""images/causal_sequence/dog_causal/dog_causal_5.png"" class=""exp-image"">
                <div style=""font-size: 40px; font-weight: bold; color: green; border: 5px solid green; padding: 25px; border-radius: 15px; background-color: #f0fff0;"">
                    WORTH<br>$1
                </div>
            </div>
            <div class=""question-area""></div>","null","","","","","","",""
"","","","","","html-button-response","137","757335","0.0-137.0","1B5454F7BC004B3C86B0AEA49931A297","019ce7b7-af67-7dd7-b49f-719bb0397f0e","019ce7a0-0965-7aa7-a556-174d32a8e773","","1427","
            <div class=""stimulus-container"" style=""display: flex; align-items: center; justify-content: center; gap: 30px;"">
                <img src=""images/causal_sequence/dog_causal/dog_causal_5.png"" class=""exp-image"">
                <div style=""font-size: 40px; font-weight: bold; color: green; border: 5px solid green; padding: 25px; border-radius: 15px; background-color: #f0fff0;"">
                    WORTH<br>$1
                </div>
            </div>
            <div class=""question-area"">
                <p style=""font-size: 20px; font-weight: bold; margin: 0;"">Was there a person in this image?</p>
            </div>","0","part2_value_learning","","dog_causal","5","","",""
"","","","","","html-keyboard-response","138","767336","0.0-138.0","1B5454F7BC004B3C86B0AEA49931A297","019ce7b7-af67-7dd7-b49f-719bb0397f0e","019ce7a0-0965-7aa7-a556-174d32a8e773","","null","
            <div class=""stimulus-container"" style=""display: flex; align-items: center; justify-content: center; gap: 30px;"">
                <img src=""images/causal_sequence/saving_a_cat_causal/saving_a_cat_causal_5.png"" class=""exp-image"">
                <div style=""font-size: 40px; font-weight: bold; color: green; border: 5px solid green; padding: 25px; border-radius: 15px; background-color: #f0fff0;"">
                    WORTH<br>$1
                </div>
            </div>
            <div class=""question-area""></div>","null","","","","","","",""
"","","","","","html-button-response","139","768778","0.0-139.0","1B5454F7BC004B3C86B0AEA49931A297","019ce7b7-af67-7dd7-b49f-719bb0397f0e","019ce7a0-0965-7aa7-a556-174d32a8e773","","1440","
            <div class=""stimulus-container"" style=""display: flex; align-items: center; justify-content: center; gap: 30px;"">
                <img src=""images/causal_sequence/saving_a_cat_causal/saving_a_cat_causal_5.png"" class=""exp-image"">
                <div style=""font-size: 40px; font-weight: bold; color: green; border: 5px solid green; padding: 25px; border-radius: 15px; background-color: #f0fff0;"">
                    WORTH<br>$1
                </div>
            </div>
            <div class=""question-area"">
                <p style=""font-size: 20px; font-weight: bold; margin: 0;"">Was there a person in this image?</p>
            </div>","0","part2_value_learning","","saving_a_cat_causal","5","","",""
"","","","","","html-keyboard-response","140","778779","0.0-140.0","1B5454F7BC004B3C86B0AEA49931A297","019ce7b7-af67-7dd7-b49f-719bb0397f0e","019ce7a0-0965-7aa7-a556-174d32a8e773","","null","
            <div class=""stimulus-container"" style=""display: flex; align-items: center; justify-content: center; gap: 30px;"">
                <img src=""images/causal_sequence/package_causal/package_causal_7.png"" class=""exp-image"">
                <div style=""font-size: 40px; font-weight: bold; color: green; border: 5px solid green; padding: 25px; border-radius: 15px; background-color: #f0fff0;"">
                    WORTH<br>$1
                </div>
            </div>
            <div class=""question-area""></div>","null","","","","","","",""
"","","","","","html-button-response","141","779678","0.0-141.0","1B5454F7BC004B3C86B0AEA49931A297","019ce7b7-af67-7dd7-b49f-719bb0397f0e","019ce7a0-0965-7aa7-a556-174d32a8e773","","896","
            <div class=""stimulus-container"" style=""display: flex; align-items: center; justify-content: center; gap: 30px;"">
                <img src=""images/causal_sequence/package_causal/package_causal_7.png"" class=""exp-image"">
                <div style=""font-size: 40px; font-weight: bold; color: green; border: 5px solid green; padding: 25px; border-radius: 15px; background-color: #f0fff0;"">
                    WORTH<br>$1
                </div>
            </div>
            <div class=""question-area"">
                <p style=""font-size: 20px; font-weight: bold; margin: 0;"">Was there a person in this image?</p>
            </div>","0","part2_value_learning","","package_causal","7","","",""
"","","","","","html-keyboard-response","142","789680","0.0-142.0","1B5454F7BC004B3C86B0AEA49931A297","019ce7b7-af67-7dd7-b49f-719bb0397f0e","019ce7a0-0965-7aa7-a556-174d32a8e773","","null","
            <div class=""stimulus-container"" style=""display: flex; align-items: center; justify-content: center; gap: 30px;"">
                <img src=""images/causal_sequence/coin_causal/coin_causal_6.png"" class=""exp-image"">
                <div style=""font-size: 40px; font-weight: bold; color: green; border: 5px solid green; padding: 25px; border-radius: 15px; background-color: #f0fff0;"">
                    WORTH<br>$1
                </div>
            </div>
            <div class=""question-area""></div>","null","","","","","","",""
"","","","","","html-button-response","143","790784","0.0-143.0","1B5454F7BC004B3C86B0AEA49931A297","019ce7b7-af67-7dd7-b49f-719bb0397f0e","019ce7a0-0965-7aa7-a556-174d32a8e773","","1102","
            <div class=""stimulus-container"" style=""display: flex; align-items: center; justify-content: center; gap: 30px;"">
                <img src=""images/causal_sequence/coin_causal/coin_causal_6.png"" class=""exp-image"">
                <div style=""font-size: 40px; font-weight: bold; color: green; border: 5px solid green; padding: 25px; border-radius: 15px; background-color: #f0fff0;"">
                    WORTH<br>$1
                </div>
            </div>
            <div class=""question-area"">
                <p style=""font-size: 20px; font-weight: bold; margin: 0;"">Was there a person in this image?</p>
            </div>","0","part2_value_learning","","coin_causal","6","","",""
"","","","","","html-keyboard-response","144","800786","0.0-144.0","1B5454F7BC004B3C86B0AEA49931A297","019ce7b7-af67-7dd7-b49f-719bb0397f0e","019ce7a0-0965-7aa7-a556-174d32a8e773","","null","
            <div class=""stimulus-container"" style=""display: flex; align-items: center; justify-content: center; gap: 30px;"">
                <img src=""images/causal_sequence/the_performance_causal/the_performance_causal_5.png"" class=""exp-image"">
                <div style=""font-size: 40px; font-weight: bold; color: green; border: 5px solid green; padding: 25px; border-radius: 15px; background-color: #f0fff0;"">
                    WORTH<br>$1
                </div>
            </div>
            <div class=""question-area""></div>","null","","","","","","",""
"","","","","","html-button-response","145","801823","0.0-145.0","1B5454F7BC004B3C86B0AEA49931A297","019ce7b7-af67-7dd7-b49f-719bb0397f0e","019ce7a0-0965-7aa7-a556-174d32a8e773","","1035","
            <div class=""stimulus-container"" style=""display: flex; align-items: center; justify-content: center; gap: 30px;"">
                <img src=""images/causal_sequence/the_performance_causal/the_performance_causal_5.png"" class=""exp-image"">
                <div style=""font-size: 40px; font-weight: bold; color: green; border: 5px solid green; padding: 25px; border-radius: 15px; background-color: #f0fff0;"">
                    WORTH<br>$1
                </div>
            </div>
            <div class=""question-area"">
                <p style=""font-size: 20px; font-weight: bold; margin: 0;"">Was there a person in this image?</p>
            </div>","0","part2_value_learning","","the_performance_causal","5","","",""
"","","","","","instructions","146","808273","0.0-146.0","1B5454F7BC004B3C86B0AEA49931A297","019ce7b7-af67-7dd7-b49f-719bb0397f0e","019ce7a0-0965-7aa7-a556-174d32a8e773","[{""page_index"":0,""viewing_time"":6449}]","6450","","","","","","","","",""
"","","","","","instructions","147","816263","0.0-147.0","1B5454F7BC004B3C86B0AEA49931A297","019ce7b7-af67-7dd7-b49f-719bb0397f0e","019ce7a0-0965-7aa7-a556-174d32a8e773","[{""page_index"":0,""viewing_time"":7989}]","7990","","","","","","","","",""
"","","","","","html-keyboard-response","148","826266","0.0-148.0-0.0","1B5454F7BC004B3C86B0AEA49931A297","019ce7b7-af67-7dd7-b49f-719bb0397f0e","019ce7a0-0965-7aa7-a556-174d32a8e773","","null","
                        <div style=""font-family: Arial; margin-bottom: 20px;""><h3>Which image is more valuable?</h3></div>
                        <div class=""stimulus-container"" style=""display: flex; width: 1100px; justify-content: center; gap: 50px;"">
                            <img src=""images/causal_sequence/saving_a_cat_causal/saving_a_cat_causal_7.png"" class=""exp-image"">
                            <img src=""images/causal_sequence/saving_a_cat_causal/saving_a_cat_causal_3.png"" class=""exp-image"">
                        </div>","null","","","","","","",""
"","","","","","html-button-response","149","828384","0.0-148.0-1.0","1B5454F7BC004B3C86B0AEA49931A297","019ce7b7-af67-7dd7-b49f-719bb0397f0e","019ce7a0-0965-7aa7-a556-174d32a8e773","","2117","
                        <div style=""font-family: Arial; margin-bottom: 20px;""><h3>Which image is more valuable?</h3></div>
                        <div class=""stimulus-container"" style=""display: flex; width: 1100px; justify-content: center; gap: 50px;"">
                            <img src=""images/causal_sequence/saving_a_cat_causal/saving_a_cat_causal_7.png"" class=""exp-image"">
                            <img src=""images/causal_sequence/saving_a_cat_causal/saving_a_cat_causal_3.png"" class=""exp-image"">
                        </div>","0","part3_final_choice","","saving_a_cat_causal","","5","7","2"
"","","","","","html-keyboard-response","150","838386","0.0-149.0-0.0","1B5454F7BC004B3C86B0AEA49931A297","019ce7b7-af67-7dd7-b49f-719bb0397f0e","019ce7a0-0965-7aa7-a556-174d32a8e773","","null","
                        <div style=""font-family: Arial; margin-bottom: 20px;""><h3>Which image is more valuable?</h3></div>
                        <div class=""stimulus-container"" style=""display: flex; width: 1100px; justify-content: center; gap: 50px;"">
                            <img src=""images/causal_sequence/dog_causal/dog_causal_3.png"" class=""exp-image"">
                            <img src=""images/causal_sequence/dog_causal/dog_causal_7.png"" class=""exp-image"">
                        </div>","null","","","","","","",""
"","","","","","html-button-response","151","839646","0.0-149.0-1.0","1B5454F7BC004B3C86B0AEA49931A297","019ce7b7-af67-7dd7-b49f-719bb0397f0e","019ce7a0-0965-7aa7-a556-174d32a8e773","","1257","
                        <div style=""font-family: Arial; margin-bottom: 20px;""><h3>Which image is more valuable?</h3></div>
                        <div class=""stimulus-container"" style=""display: flex; width: 1100px; justify-content: center; gap: 50px;"">
                            <img src=""images/causal_sequence/dog_causal/dog_causal_3.png"" class=""exp-image"">
                            <img src=""images/causal_sequence/dog_causal/dog_causal_7.png"" class=""exp-image"">
                        </div>","1","part3_final_choice","","dog_causal","","5","7","2"
"","","","","","html-keyboard-response","152","849649","0.0-150.0-0.0","1B5454F7BC004B3C86B0AEA49931A297","019ce7b7-af67-7dd7-b49f-719bb0397f0e","019ce7a0-0965-7aa7-a556-174d32a8e773","","null","
                        <div style=""font-family: Arial; margin-bottom: 20px;""><h3>Which image is more valuable?</h3></div>
                        <div class=""stimulus-container"" style=""display: flex; width: 1100px; justify-content: center; gap: 50px;"">
                            <img src=""images/causal_sequence/museum_causal/museum_causal_7.png"" class=""exp-image"">
                            <img src=""images/causal_sequence/museum_causal/museum_causal_3.png"" class=""exp-image"">
                        </div>","null","","","","","","",""
"","","","","","html-button-response","153","855969","0.0-150.0-1.0","1B5454F7BC004B3C86B0AEA49931A297","019ce7b7-af67-7dd7-b49f-719bb0397f0e","019ce7a0-0965-7aa7-a556-174d32a8e773","","6318","
                        <div style=""font-family: Arial; margin-bottom: 20px;""><h3>Which image is more valuable?</h3></div>
                        <div class=""stimulus-container"" style=""display: flex; width: 1100px; justify-content: center; gap: 50px;"">
                            <img src=""images/causal_sequence/museum_causal/museum_causal_7.png"" class=""exp-image"">
                            <img src=""images/causal_sequence/museum_causal/museum_causal_3.png"" class=""exp-image"">
                        </div>","0","part3_final_choice","","museum_causal","","5","7","2"
"","","","","","html-keyboard-response","154","865973","0.0-151.0-0.0","1B5454F7BC004B3C86B0AEA49931A297","019ce7b7-af67-7dd7-b49f-719bb0397f0e","019ce7a0-0965-7aa7-a556-174d32a8e773","","null","
                        <div style=""font-family: Arial; margin-bottom: 20px;""><h3>Which image is more valuable?</h3></div>
                        <div class=""stimulus-container"" style=""display: flex; width: 1100px; justify-content: center; gap: 50px;"">
                            <img src=""images/causal_sequence/package_causal/package_causal_5.png"" class=""exp-image"">
                            <img src=""images/causal_sequence/package_causal/package_causal_9.png"" class=""exp-image"">
                        </div>","null","","","","","","",""
"","","","","","html-button-response","155","866921","0.0-151.0-1.0","1B5454F7BC004B3C86B0AEA49931A297","019ce7b7-af67-7dd7-b49f-719bb0397f0e","019ce7a0-0965-7aa7-a556-174d32a8e773","","947","
                        <div style=""font-family: Arial; margin-bottom: 20px;""><h3>Which image is more valuable?</h3></div>
                        <div class=""stimulus-container"" style=""display: flex; width: 1100px; justify-content: center; gap: 50px;"">
                            <img src=""images/causal_sequence/package_causal/package_causal_5.png"" class=""exp-image"">
                            <img src=""images/causal_sequence/package_causal/package_causal_9.png"" class=""exp-image"">
                        </div>","1","part3_final_choice","","package_causal","","7","9","2"
"","","","","","html-keyboard-response","156","876923","0.0-152.0-0.0","1B5454F7BC004B3C86B0AEA49931A297","019ce7b7-af67-7dd7-b49f-719bb0397f0e","019ce7a0-0965-7aa7-a556-174d32a8e773","","null","
                        <div style=""font-family: Arial; margin-bottom: 20px;""><h3>Which image is more valuable?</h3></div>
                        <div class=""stimulus-container"" style=""display: flex; width: 1100px; justify-content: center; gap: 50px;"">
                            <img src=""images/causal_sequence/the_performance_causal/the_performance_causal_3.png"" class=""exp-image"">
                            <img src=""images/causal_sequence/the_performance_causal/the_performance_causal_7.png"" class=""exp-image"">
                        </div>","null","","","","","","",""
"","","","","","html-button-response","157","878331","0.0-152.0-1.0","1B5454F7BC004B3C86B0AEA49931A297","019ce7b7-af67-7dd7-b49f-719bb0397f0e","019ce7a0-0965-7aa7-a556-174d32a8e773","","1406","
                        <div style=""font-family: Arial; margin-bottom: 20px;""><h3>Which image is more valuable?</h3></div>
                        <div class=""stimulus-container"" style=""display: flex; width: 1100px; justify-content: center; gap: 50px;"">
                            <img src=""images/causal_sequence/the_performance_causal/the_performance_causal_3.png"" class=""exp-image"">
                            <img src=""images/causal_sequence/the_performance_causal/the_performance_causal_7.png"" class=""exp-image"">
                        </div>","1","part3_final_choice","","the_performance_causal","","5","7","2"
"","","","","","html-keyboard-response","158","888332","0.0-153.0-0.0","1B5454F7BC004B3C86B0AEA49931A297","019ce7b7-af67-7dd7-b49f-719bb0397f0e","019ce7a0-0965-7aa7-a556-174d32a8e773","","null","
                        <div style=""font-family: Arial; margin-bottom: 20px;""><h3>Which image is more valuable?</h3></div>
                        <div class=""stimulus-container"" style=""display: flex; width: 1100px; justify-content: center; gap: 50px;"">
                            <img src=""images/causal_sequence/coin_causal/coin_causal_8.png"" class=""exp-image"">
                            <img src=""images/causal_sequence/coin_causal/coin_causal_4.png"" class=""exp-image"">
                        </div>","null","","","","","","",""
"","","","","","html-button-response","159","890211","0.0-153.0-1.0","1B5454F7BC004B3C86B0AEA49931A297","019ce7b7-af67-7dd7-b49f-719bb0397f0e","019ce7a0-0965-7aa7-a556-174d32a8e773","","1877","
                        <div style=""font-family: Arial; margin-bottom: 20px;""><h3>Which image is more valuable?</h3></div>
                        <div class=""stimulus-container"" style=""display: flex; width: 1100px; justify-content: center; gap: 50px;"">
                            <img src=""images/causal_sequence/coin_causal/coin_causal_8.png"" class=""exp-image"">
                            <img src=""images/causal_sequence/coin_causal/coin_causal_4.png"" class=""exp-image"">
                        </div>","0","part3_final_choice","","coin_causal","","6","8","2"
"","","","","","survey-text","160","1098687","0.0-154.0","1B5454F7BC004B3C86B0AEA49931A297","019ce7b7-af67-7dd7-b49f-719bb0397f0e","019ce7a0-0965-7aa7-a556-174d32a8e773","","208462","","{""gender"":""Female "",""age"":""33"",""decision_strategy"":""After a good comparison of the images."",""consistency_check"":""I used the same because all the images needed comparison.""}","demographics_and_strategy","","","","","",""
"","","","","","instructions","161","1110066","0.0-155.0","1B5454F7BC004B3C86B0AEA49931A297","019ce7b7-af67-7dd7-b49f-719bb0397f0e","019ce7a0-0965-7aa7-a556-174d32a8e773","[{""page_index"":0,""viewing_time"":11377}]","11378","","","","","","","","",""
