"success","timeout","failed_images","failed_audio","failed_video","trial_type","trial_index","time_elapsed","internal_node_id","subject_id","study_id","session_id","view_history","rt","stimulus","response","task","image_index","folder","valuable_image_index","valuable_X","chosen_image_index","distance_from_X"
"false","false","[]","[]","[]","preload","0","2555","0.0-0.0","9EDEC868D1A44566BA439970D5DB2533","019ce7b1-bd67-75bb-8215-6f9a72104705","019ce7a0-0965-7aa7-a556-174d32a8e773","","","","","","","","","","",""
"","","","","","instructions","1","55075","0.0-1.0","9EDEC868D1A44566BA439970D5DB2533","019ce7b1-bd67-75bb-8215-6f9a72104705","019ce7a0-0965-7aa7-a556-174d32a8e773","[{""page_index"":0,""viewing_time"":52520}]","52520","","","","","","","","",""
"","","","","","instructions","2","57774","0.0-2.0","9EDEC868D1A44566BA439970D5DB2533","019ce7b1-bd67-75bb-8215-6f9a72104705","019ce7a0-0965-7aa7-a556-174d32a8e773","[{""page_index"":0,""viewing_time"":2699}]","2699","","","","","","","","",""
"true","","","","","fullscreen","3","60662","0.0-3.0","9EDEC868D1A44566BA439970D5DB2533","019ce7b1-bd67-75bb-8215-6f9a72104705","019ce7a0-0965-7aa7-a556-174d32a8e773","","1867","","","","","","","","",""
"","","","","","instructions","4","68042","0.0-4.0","9EDEC868D1A44566BA439970D5DB2533","019ce7b1-bd67-75bb-8215-6f9a72104705","019ce7a0-0965-7aa7-a556-174d32a8e773","[{""page_index"":0,""viewing_time"":7380}]","7380","","","","","","","","",""
"","","","","","instructions","5","340081","0.0-5.0","9EDEC868D1A44566BA439970D5DB2533","019ce7b1-bd67-75bb-8215-6f9a72104705","019ce7a0-0965-7aa7-a556-174d32a8e773","[{""page_index"":0,""viewing_time"":272039}]","272040","","","","","","","","",""
"","","","","","html-keyboard-response","6","344086","0.0-6.0","9EDEC868D1A44566BA439970D5DB2533","019ce7b1-bd67-75bb-8215-6f9a72104705","019ce7a0-0965-7aa7-a556-174d32a8e773","","null","
                <div class=""stimulus-container"">
                    <img src=""images/instructions/movie_1.png"" class=""exp-image"">
                    <div class=""question-area""></div> 
                </div>","null","","","","","","",""
"","","","","","html-button-response","7","347094","0.0-7.0","9EDEC868D1A44566BA439970D5DB2533","019ce7b1-bd67-75bb-8215-6f9a72104705","019ce7a0-0965-7aa7-a556-174d32a8e773","","null","
                <div class=""stimulus-container"">
                    <img src=""images/instructions/movie_1.png"" class=""exp-image"">
                    <div class=""question-area"">
                        <p style=""font-size: 20px; font-weight: bold; margin: 0;"">Was there a person in this image?</p>
                    </div>
                </div>","null","example_question","1","","","","",""
"","","","","","html-keyboard-response","8","351106","0.0-8.0","9EDEC868D1A44566BA439970D5DB2533","019ce7b1-bd67-75bb-8215-6f9a72104705","019ce7a0-0965-7aa7-a556-174d32a8e773","","null","
                <div class=""stimulus-container"">
                    <img src=""images/instructions/movie_2.png"" class=""exp-image"">
                    <div class=""question-area""></div> 
                </div>","null","","","","","","",""
"","","","","","html-button-response","9","354108","0.0-9.0","9EDEC868D1A44566BA439970D5DB2533","019ce7b1-bd67-75bb-8215-6f9a72104705","019ce7a0-0965-7aa7-a556-174d32a8e773","","null","
                <div class=""stimulus-container"">
                    <img src=""images/instructions/movie_2.png"" class=""exp-image"">
                    <div class=""question-area"">
                        <p style=""font-size: 20px; font-weight: bold; margin: 0;"">Was there a person in this image?</p>
                    </div>
                </div>","null","example_question","2","","","","",""
"","","","","","html-keyboard-response","10","358123","0.0-10.0","9EDEC868D1A44566BA439970D5DB2533","019ce7b1-bd67-75bb-8215-6f9a72104705","019ce7a0-0965-7aa7-a556-174d32a8e773","","null","
                <div class=""stimulus-container"">
                    <img src=""images/instructions/movie_3.png"" class=""exp-image"">
                    <div class=""question-area""></div> 
                </div>","null","","","","","","",""
"","","","","","html-button-response","11","361138","0.0-11.0","9EDEC868D1A44566BA439970D5DB2533","019ce7b1-bd67-75bb-8215-6f9a72104705","019ce7a0-0965-7aa7-a556-174d32a8e773","","null","
                <div class=""stimulus-container"">
                    <img src=""images/instructions/movie_3.png"" class=""exp-image"">
                    <div class=""question-area"">
                        <p style=""font-size: 20px; font-weight: bold; margin: 0;"">Was there a person in this image?</p>
                    </div>
                </div>","null","example_question","3","","","","",""
"","","","","","html-keyboard-response","12","365152","0.0-12.0","9EDEC868D1A44566BA439970D5DB2533","019ce7b1-bd67-75bb-8215-6f9a72104705","019ce7a0-0965-7aa7-a556-174d32a8e773","","null","
                <div class=""stimulus-container"">
                    <img src=""images/instructions/movie_4.png"" class=""exp-image"">
                    <div class=""question-area""></div> 
                </div>","null","","","","","","",""
"","","","","","html-button-response","13","366732","0.0-13.0","9EDEC868D1A44566BA439970D5DB2533","019ce7b1-bd67-75bb-8215-6f9a72104705","019ce7a0-0965-7aa7-a556-174d32a8e773","","1579","
                <div class=""stimulus-container"">
                    <img src=""images/instructions/movie_4.png"" class=""exp-image"">
                    <div class=""question-area"">
                        <p style=""font-size: 20px; font-weight: bold; margin: 0;"">Was there a person in this image?</p>
                    </div>
                </div>","0","example_question","4","","","","",""
"","","","","","instructions","14","442267","0.0-14.0","9EDEC868D1A44566BA439970D5DB2533","019ce7b1-bd67-75bb-8215-6f9a72104705","019ce7a0-0965-7aa7-a556-174d32a8e773","[{""page_index"":0,""viewing_time"":75535}]","75535","","","","","","","","",""
"","","","","","html-keyboard-response","15","443269","0.0-15.0","9EDEC868D1A44566BA439970D5DB2533","019ce7b1-bd67-75bb-8215-6f9a72104705","019ce7a0-0965-7aa7-a556-174d32a8e773","","null","<div style=""background-color: gray; width: 100vw; height: 100vh;""></div>","null","","","","","","",""
"","","","","","html-keyboard-response","16","448271","0.0-16.0","9EDEC868D1A44566BA439970D5DB2533","019ce7b1-bd67-75bb-8215-6f9a72104705","019ce7a0-0965-7aa7-a556-174d32a8e773","","null","
                    <div class=""stimulus-container"">
                        <img src=""images/causal_sequence/coin_causal/coin_causal_1.png"" class=""exp-image"">
                        <div class=""question-area""></div> 
                    </div>","null","","","","","","",""
"","","","","","html-button-response","17","449350","0.0-17.0","9EDEC868D1A44566BA439970D5DB2533","019ce7b1-bd67-75bb-8215-6f9a72104705","019ce7a0-0965-7aa7-a556-174d32a8e773","","1078","
                    <div class=""stimulus-container"">
                        <img src=""images/causal_sequence/coin_causal/coin_causal_1.png"" class=""exp-image"">
                        <div class=""question-area"">
                            <p style=""font-size: 20px; font-weight: bold; margin: 0;"">Is there a person in this image?</p>
                        </div>
                    </div>","0","main_causal_task","1","coin_causal","","","",""
"","","","","","html-keyboard-response","18","454354","0.0-18.0","9EDEC868D1A44566BA439970D5DB2533","019ce7b1-bd67-75bb-8215-6f9a72104705","019ce7a0-0965-7aa7-a556-174d32a8e773","","null","
                    <div class=""stimulus-container"">
                        <img src=""images/causal_sequence/coin_causal/coin_causal_2.png"" class=""exp-image"">
                        <div class=""question-area""></div> 
                    </div>","null","","","","","","",""
"","","","","","html-button-response","19","455083","0.0-19.0","9EDEC868D1A44566BA439970D5DB2533","019ce7b1-bd67-75bb-8215-6f9a72104705","019ce7a0-0965-7aa7-a556-174d32a8e773","","728","
                    <div class=""stimulus-container"">
                        <img src=""images/causal_sequence/coin_causal/coin_causal_2.png"" class=""exp-image"">
                        <div class=""question-area"">
                            <p style=""font-size: 20px; font-weight: bold; margin: 0;"">Is there a person in this image?</p>
                        </div>
                    </div>","0","main_causal_task","2","coin_causal","","","",""
"","","","","","html-keyboard-response","20","460098","0.0-20.0","9EDEC868D1A44566BA439970D5DB2533","019ce7b1-bd67-75bb-8215-6f9a72104705","019ce7a0-0965-7aa7-a556-174d32a8e773","","null","
                    <div class=""stimulus-container"">
                        <img src=""images/causal_sequence/coin_causal/coin_causal_3.png"" class=""exp-image"">
                        <div class=""question-area""></div> 
                    </div>","null","","","","","","",""
"","","","","","html-button-response","21","461048","0.0-21.0","9EDEC868D1A44566BA439970D5DB2533","019ce7b1-bd67-75bb-8215-6f9a72104705","019ce7a0-0965-7aa7-a556-174d32a8e773","","949","
                    <div class=""stimulus-container"">
                        <img src=""images/causal_sequence/coin_causal/coin_causal_3.png"" class=""exp-image"">
                        <div class=""question-area"">
                            <p style=""font-size: 20px; font-weight: bold; margin: 0;"">Is there a person in this image?</p>
                        </div>
                    </div>","0","main_causal_task","3","coin_causal","","","",""
"","","","","","html-keyboard-response","22","466051","0.0-22.0","9EDEC868D1A44566BA439970D5DB2533","019ce7b1-bd67-75bb-8215-6f9a72104705","019ce7a0-0965-7aa7-a556-174d32a8e773","","null","
                    <div class=""stimulus-container"">
                        <img src=""images/causal_sequence/coin_causal/coin_causal_4.png"" class=""exp-image"">
                        <div class=""question-area""></div> 
                    </div>","null","","","","","","",""
"","","","","","html-button-response","23","466733","0.0-23.0","9EDEC868D1A44566BA439970D5DB2533","019ce7b1-bd67-75bb-8215-6f9a72104705","019ce7a0-0965-7aa7-a556-174d32a8e773","","681","
                    <div class=""stimulus-container"">
                        <img src=""images/causal_sequence/coin_causal/coin_causal_4.png"" class=""exp-image"">
                        <div class=""question-area"">
                            <p style=""font-size: 20px; font-weight: bold; margin: 0;"">Is there a person in this image?</p>
                        </div>
                    </div>","0","main_causal_task","4","coin_causal","","","",""
"","","","","","html-keyboard-response","24","471744","0.0-24.0","9EDEC868D1A44566BA439970D5DB2533","019ce7b1-bd67-75bb-8215-6f9a72104705","019ce7a0-0965-7aa7-a556-174d32a8e773","","null","
                    <div class=""stimulus-container"">
                        <img src=""images/causal_sequence/coin_causal/coin_causal_5.png"" class=""exp-image"">
                        <div class=""question-area""></div> 
                    </div>","null","","","","","","",""
"","","","","","html-button-response","25","472648","0.0-25.0","9EDEC868D1A44566BA439970D5DB2533","019ce7b1-bd67-75bb-8215-6f9a72104705","019ce7a0-0965-7aa7-a556-174d32a8e773","","903","
                    <div class=""stimulus-container"">
                        <img src=""images/causal_sequence/coin_causal/coin_causal_5.png"" class=""exp-image"">
                        <div class=""question-area"">
                            <p style=""font-size: 20px; font-weight: bold; margin: 0;"">Is there a person in this image?</p>
                        </div>
                    </div>","0","main_causal_task","5","coin_causal","","","",""
"","","","","","html-keyboard-response","26","477652","0.0-26.0","9EDEC868D1A44566BA439970D5DB2533","019ce7b1-bd67-75bb-8215-6f9a72104705","019ce7a0-0965-7aa7-a556-174d32a8e773","","null","
                    <div class=""stimulus-container"">
                        <img src=""images/causal_sequence/coin_causal/coin_causal_6.png"" class=""exp-image"">
                        <div class=""question-area""></div> 
                    </div>","null","","","","","","",""
"","","","","","html-button-response","27","478550","0.0-27.0","9EDEC868D1A44566BA439970D5DB2533","019ce7b1-bd67-75bb-8215-6f9a72104705","019ce7a0-0965-7aa7-a556-174d32a8e773","","897","
                    <div class=""stimulus-container"">
                        <img src=""images/causal_sequence/coin_causal/coin_causal_6.png"" class=""exp-image"">
                        <div class=""question-area"">
                            <p style=""font-size: 20px; font-weight: bold; margin: 0;"">Is there a person in this image?</p>
                        </div>
                    </div>","0","main_causal_task","6","coin_causal","","","",""
"","","","","","html-keyboard-response","28","483551","0.0-28.0","9EDEC868D1A44566BA439970D5DB2533","019ce7b1-bd67-75bb-8215-6f9a72104705","019ce7a0-0965-7aa7-a556-174d32a8e773","","null","
                    <div class=""stimulus-container"">
                        <img src=""images/causal_sequence/coin_causal/coin_causal_7.png"" class=""exp-image"">
                        <div class=""question-area""></div> 
                    </div>","null","","","","","","",""
"","","","","","html-button-response","29","484735","0.0-29.0","9EDEC868D1A44566BA439970D5DB2533","019ce7b1-bd67-75bb-8215-6f9a72104705","019ce7a0-0965-7aa7-a556-174d32a8e773","","1183","
                    <div class=""stimulus-container"">
                        <img src=""images/causal_sequence/coin_causal/coin_causal_7.png"" class=""exp-image"">
                        <div class=""question-area"">
                            <p style=""font-size: 20px; font-weight: bold; margin: 0;"">Is there a person in this image?</p>
                        </div>
                    </div>","1","main_causal_task","7","coin_causal","","","",""
"","","","","","html-keyboard-response","30","489748","0.0-30.0","9EDEC868D1A44566BA439970D5DB2533","019ce7b1-bd67-75bb-8215-6f9a72104705","019ce7a0-0965-7aa7-a556-174d32a8e773","","null","
                    <div class=""stimulus-container"">
                        <img src=""images/causal_sequence/coin_causal/coin_causal_8.png"" class=""exp-image"">
                        <div class=""question-area""></div> 
                    </div>","null","","","","","","",""
"","","","","","html-button-response","31","490467","0.0-31.0","9EDEC868D1A44566BA439970D5DB2533","019ce7b1-bd67-75bb-8215-6f9a72104705","019ce7a0-0965-7aa7-a556-174d32a8e773","","718","
                    <div class=""stimulus-container"">
                        <img src=""images/causal_sequence/coin_causal/coin_causal_8.png"" class=""exp-image"">
                        <div class=""question-area"">
                            <p style=""font-size: 20px; font-weight: bold; margin: 0;"">Is there a person in this image?</p>
                        </div>
                    </div>","0","main_causal_task","8","coin_causal","","","",""
"","","","","","html-keyboard-response","32","495471","0.0-32.0","9EDEC868D1A44566BA439970D5DB2533","019ce7b1-bd67-75bb-8215-6f9a72104705","019ce7a0-0965-7aa7-a556-174d32a8e773","","null","
                    <div class=""stimulus-container"">
                        <img src=""images/causal_sequence/coin_causal/coin_causal_9.png"" class=""exp-image"">
                        <div class=""question-area""></div> 
                    </div>","null","","","","","","",""
"","","","","","html-button-response","33","496264","0.0-33.0","9EDEC868D1A44566BA439970D5DB2533","019ce7b1-bd67-75bb-8215-6f9a72104705","019ce7a0-0965-7aa7-a556-174d32a8e773","","792","
                    <div class=""stimulus-container"">
                        <img src=""images/causal_sequence/coin_causal/coin_causal_9.png"" class=""exp-image"">
                        <div class=""question-area"">
                            <p style=""font-size: 20px; font-weight: bold; margin: 0;"">Is there a person in this image?</p>
                        </div>
                    </div>","0","main_causal_task","9","coin_causal","","","",""
"","","","","","html-keyboard-response","34","497268","0.0-34.0","9EDEC868D1A44566BA439970D5DB2533","019ce7b1-bd67-75bb-8215-6f9a72104705","019ce7a0-0965-7aa7-a556-174d32a8e773","","null","<div style=""background-color: gray; width: 100vw; height: 100vh;""></div>","null","","","","","","",""
"","","","","","html-keyboard-response","35","502269","0.0-35.0","9EDEC868D1A44566BA439970D5DB2533","019ce7b1-bd67-75bb-8215-6f9a72104705","019ce7a0-0965-7aa7-a556-174d32a8e773","","null","
                    <div class=""stimulus-container"">
                        <img src=""images/causal_sequence/dog_causal/dog_causal_1.png"" class=""exp-image"">
                        <div class=""question-area""></div> 
                    </div>","null","","","","","","",""
"","","","","","html-button-response","36","503197","0.0-36.0","9EDEC868D1A44566BA439970D5DB2533","019ce7b1-bd67-75bb-8215-6f9a72104705","019ce7a0-0965-7aa7-a556-174d32a8e773","","927","
                    <div class=""stimulus-container"">
                        <img src=""images/causal_sequence/dog_causal/dog_causal_1.png"" class=""exp-image"">
                        <div class=""question-area"">
                            <p style=""font-size: 20px; font-weight: bold; margin: 0;"">Is there a person in this image?</p>
                        </div>
                    </div>","0","main_causal_task","1","dog_causal","","","",""
"","","","","","html-keyboard-response","37","508206","0.0-37.0","9EDEC868D1A44566BA439970D5DB2533","019ce7b1-bd67-75bb-8215-6f9a72104705","019ce7a0-0965-7aa7-a556-174d32a8e773","","null","
                    <div class=""stimulus-container"">
                        <img src=""images/causal_sequence/dog_causal/dog_causal_2.png"" class=""exp-image"">
                        <div class=""question-area""></div> 
                    </div>","null","","","","","","",""
"","","","","","html-button-response","38","509349","0.0-38.0","9EDEC868D1A44566BA439970D5DB2533","019ce7b1-bd67-75bb-8215-6f9a72104705","019ce7a0-0965-7aa7-a556-174d32a8e773","","1142","
                    <div class=""stimulus-container"">
                        <img src=""images/causal_sequence/dog_causal/dog_causal_2.png"" class=""exp-image"">
                        <div class=""question-area"">
                            <p style=""font-size: 20px; font-weight: bold; margin: 0;"">Is there a person in this image?</p>
                        </div>
                    </div>","0","main_causal_task","2","dog_causal","","","",""
"","","","","","html-keyboard-response","39","514358","0.0-39.0","9EDEC868D1A44566BA439970D5DB2533","019ce7b1-bd67-75bb-8215-6f9a72104705","019ce7a0-0965-7aa7-a556-174d32a8e773","","null","
                    <div class=""stimulus-container"">
                        <img src=""images/causal_sequence/dog_causal/dog_causal_3.png"" class=""exp-image"">
                        <div class=""question-area""></div> 
                    </div>","null","","","","","","",""
"","","","","","html-button-response","40","515118","0.0-40.0","9EDEC868D1A44566BA439970D5DB2533","019ce7b1-bd67-75bb-8215-6f9a72104705","019ce7a0-0965-7aa7-a556-174d32a8e773","","759","
                    <div class=""stimulus-container"">
                        <img src=""images/causal_sequence/dog_causal/dog_causal_3.png"" class=""exp-image"">
                        <div class=""question-area"">
                            <p style=""font-size: 20px; font-weight: bold; margin: 0;"">Is there a person in this image?</p>
                        </div>
                    </div>","0","main_causal_task","3","dog_causal","","","",""
"","","","","","html-keyboard-response","41","520132","0.0-41.0","9EDEC868D1A44566BA439970D5DB2533","019ce7b1-bd67-75bb-8215-6f9a72104705","019ce7a0-0965-7aa7-a556-174d32a8e773","","null","
                    <div class=""stimulus-container"">
                        <img src=""images/causal_sequence/dog_causal/dog_causal_4.png"" class=""exp-image"">
                        <div class=""question-area""></div> 
                    </div>","null","","","","","","",""
"","","","","","html-button-response","42","521484","0.0-42.0","9EDEC868D1A44566BA439970D5DB2533","019ce7b1-bd67-75bb-8215-6f9a72104705","019ce7a0-0965-7aa7-a556-174d32a8e773","","1351","
                    <div class=""stimulus-container"">
                        <img src=""images/causal_sequence/dog_causal/dog_causal_4.png"" class=""exp-image"">
                        <div class=""question-area"">
                            <p style=""font-size: 20px; font-weight: bold; margin: 0;"">Is there a person in this image?</p>
                        </div>
                    </div>","0","main_causal_task","4","dog_causal","","","",""
"","","","","","html-keyboard-response","43","526499","0.0-43.0","9EDEC868D1A44566BA439970D5DB2533","019ce7b1-bd67-75bb-8215-6f9a72104705","019ce7a0-0965-7aa7-a556-174d32a8e773","","null","
                    <div class=""stimulus-container"">
                        <img src=""images/causal_sequence/dog_causal/dog_causal_5.png"" class=""exp-image"">
                        <div class=""question-area""></div> 
                    </div>","null","","","","","","",""
"","","","","","html-button-response","44","527533","0.0-44.0","9EDEC868D1A44566BA439970D5DB2533","019ce7b1-bd67-75bb-8215-6f9a72104705","019ce7a0-0965-7aa7-a556-174d32a8e773","","1033","
                    <div class=""stimulus-container"">
                        <img src=""images/causal_sequence/dog_causal/dog_causal_5.png"" class=""exp-image"">
                        <div class=""question-area"">
                            <p style=""font-size: 20px; font-weight: bold; margin: 0;"">Is there a person in this image?</p>
                        </div>
                    </div>","0","main_causal_task","5","dog_causal","","","",""
"","","","","","html-keyboard-response","45","532534","0.0-45.0","9EDEC868D1A44566BA439970D5DB2533","019ce7b1-bd67-75bb-8215-6f9a72104705","019ce7a0-0965-7aa7-a556-174d32a8e773","","null","
                    <div class=""stimulus-container"">
                        <img src=""images/causal_sequence/dog_causal/dog_causal_6.png"" class=""exp-image"">
                        <div class=""question-area""></div> 
                    </div>","null","","","","","","",""
"","","","","","html-button-response","46","533467","0.0-46.0","9EDEC868D1A44566BA439970D5DB2533","019ce7b1-bd67-75bb-8215-6f9a72104705","019ce7a0-0965-7aa7-a556-174d32a8e773","","933","
                    <div class=""stimulus-container"">
                        <img src=""images/causal_sequence/dog_causal/dog_causal_6.png"" class=""exp-image"">
                        <div class=""question-area"">
                            <p style=""font-size: 20px; font-weight: bold; margin: 0;"">Is there a person in this image?</p>
                        </div>
                    </div>","0","main_causal_task","6","dog_causal","","","",""
"","","","","","html-keyboard-response","47","538483","0.0-47.0","9EDEC868D1A44566BA439970D5DB2533","019ce7b1-bd67-75bb-8215-6f9a72104705","019ce7a0-0965-7aa7-a556-174d32a8e773","","null","
                    <div class=""stimulus-container"">
                        <img src=""images/causal_sequence/dog_causal/dog_causal_7.png"" class=""exp-image"">
                        <div class=""question-area""></div> 
                    </div>","null","","","","","","",""
"","","","","","html-button-response","48","539249","0.0-48.0","9EDEC868D1A44566BA439970D5DB2533","019ce7b1-bd67-75bb-8215-6f9a72104705","019ce7a0-0965-7aa7-a556-174d32a8e773","","766","
                    <div class=""stimulus-container"">
                        <img src=""images/causal_sequence/dog_causal/dog_causal_7.png"" class=""exp-image"">
                        <div class=""question-area"">
                            <p style=""font-size: 20px; font-weight: bold; margin: 0;"">Is there a person in this image?</p>
                        </div>
                    </div>","0","main_causal_task","7","dog_causal","","","",""
"","","","","","html-keyboard-response","49","544254","0.0-49.0","9EDEC868D1A44566BA439970D5DB2533","019ce7b1-bd67-75bb-8215-6f9a72104705","019ce7a0-0965-7aa7-a556-174d32a8e773","","null","
                    <div class=""stimulus-container"">
                        <img src=""images/causal_sequence/dog_causal/dog_causal_8.png"" class=""exp-image"">
                        <div class=""question-area""></div> 
                    </div>","null","","","","","","",""
"","","","","","html-button-response","50","544919","0.0-50.0","9EDEC868D1A44566BA439970D5DB2533","019ce7b1-bd67-75bb-8215-6f9a72104705","019ce7a0-0965-7aa7-a556-174d32a8e773","","664","
                    <div class=""stimulus-container"">
                        <img src=""images/causal_sequence/dog_causal/dog_causal_8.png"" class=""exp-image"">
                        <div class=""question-area"">
                            <p style=""font-size: 20px; font-weight: bold; margin: 0;"">Is there a person in this image?</p>
                        </div>
                    </div>","0","main_causal_task","8","dog_causal","","","",""
"","","","","","html-keyboard-response","51","549934","0.0-51.0","9EDEC868D1A44566BA439970D5DB2533","019ce7b1-bd67-75bb-8215-6f9a72104705","019ce7a0-0965-7aa7-a556-174d32a8e773","","null","
                    <div class=""stimulus-container"">
                        <img src=""images/causal_sequence/dog_causal/dog_causal_9.png"" class=""exp-image"">
                        <div class=""question-area""></div> 
                    </div>","null","","","","","","",""
"","","","","","html-button-response","52","550600","0.0-52.0","9EDEC868D1A44566BA439970D5DB2533","019ce7b1-bd67-75bb-8215-6f9a72104705","019ce7a0-0965-7aa7-a556-174d32a8e773","","665","
                    <div class=""stimulus-container"">
                        <img src=""images/causal_sequence/dog_causal/dog_causal_9.png"" class=""exp-image"">
                        <div class=""question-area"">
                            <p style=""font-size: 20px; font-weight: bold; margin: 0;"">Is there a person in this image?</p>
                        </div>
                    </div>","0","main_causal_task","9","dog_causal","","","",""
"","","","","","html-keyboard-response","53","551605","0.0-53.0","9EDEC868D1A44566BA439970D5DB2533","019ce7b1-bd67-75bb-8215-6f9a72104705","019ce7a0-0965-7aa7-a556-174d32a8e773","","null","<div style=""background-color: gray; width: 100vw; height: 100vh;""></div>","null","","","","","","",""
"","","","","","html-keyboard-response","54","556621","0.0-54.0","9EDEC868D1A44566BA439970D5DB2533","019ce7b1-bd67-75bb-8215-6f9a72104705","019ce7a0-0965-7aa7-a556-174d32a8e773","","null","
                    <div class=""stimulus-container"">
                        <img src=""images/causal_sequence/package_causal/package_causal_1.png"" class=""exp-image"">
                        <div class=""question-area""></div> 
                    </div>","null","","","","","","",""
"","","","","","html-button-response","55","557501","0.0-55.0","9EDEC868D1A44566BA439970D5DB2533","019ce7b1-bd67-75bb-8215-6f9a72104705","019ce7a0-0965-7aa7-a556-174d32a8e773","","880","
                    <div class=""stimulus-container"">
                        <img src=""images/causal_sequence/package_causal/package_causal_1.png"" class=""exp-image"">
                        <div class=""question-area"">
                            <p style=""font-size: 20px; font-weight: bold; margin: 0;"">Is there a person in this image?</p>
                        </div>
                    </div>","0","main_causal_task","1","package_causal","","","",""
"","","","","","html-keyboard-response","56","562513","0.0-56.0","9EDEC868D1A44566BA439970D5DB2533","019ce7b1-bd67-75bb-8215-6f9a72104705","019ce7a0-0965-7aa7-a556-174d32a8e773","","null","
                    <div class=""stimulus-container"">
                        <img src=""images/causal_sequence/package_causal/package_causal_2.png"" class=""exp-image"">
                        <div class=""question-area""></div> 
                    </div>","null","","","","","","",""
"","","","","","html-button-response","57","563319","0.0-57.0","9EDEC868D1A44566BA439970D5DB2533","019ce7b1-bd67-75bb-8215-6f9a72104705","019ce7a0-0965-7aa7-a556-174d32a8e773","","805","
                    <div class=""stimulus-container"">
                        <img src=""images/causal_sequence/package_causal/package_causal_2.png"" class=""exp-image"">
                        <div class=""question-area"">
                            <p style=""font-size: 20px; font-weight: bold; margin: 0;"">Is there a person in this image?</p>
                        </div>
                    </div>","0","main_causal_task","2","package_causal","","","",""
"","","","","","html-keyboard-response","58","568330","0.0-58.0","9EDEC868D1A44566BA439970D5DB2533","019ce7b1-bd67-75bb-8215-6f9a72104705","019ce7a0-0965-7aa7-a556-174d32a8e773","","null","
                    <div class=""stimulus-container"">
                        <img src=""images/causal_sequence/package_causal/package_causal_3.png"" class=""exp-image"">
                        <div class=""question-area""></div> 
                    </div>","null","","","","","","",""
"","","","","","html-button-response","59","569252","0.0-59.0","9EDEC868D1A44566BA439970D5DB2533","019ce7b1-bd67-75bb-8215-6f9a72104705","019ce7a0-0965-7aa7-a556-174d32a8e773","","921","
                    <div class=""stimulus-container"">
                        <img src=""images/causal_sequence/package_causal/package_causal_3.png"" class=""exp-image"">
                        <div class=""question-area"">
                            <p style=""font-size: 20px; font-weight: bold; margin: 0;"">Is there a person in this image?</p>
                        </div>
                    </div>","0","main_causal_task","3","package_causal","","","",""
"","","","","","html-keyboard-response","60","574256","0.0-60.0","9EDEC868D1A44566BA439970D5DB2533","019ce7b1-bd67-75bb-8215-6f9a72104705","019ce7a0-0965-7aa7-a556-174d32a8e773","","null","
                    <div class=""stimulus-container"">
                        <img src=""images/causal_sequence/package_causal/package_causal_4.png"" class=""exp-image"">
                        <div class=""question-area""></div> 
                    </div>","null","","","","","","",""
"","","","","","html-button-response","61","575351","0.0-61.0","9EDEC868D1A44566BA439970D5DB2533","019ce7b1-bd67-75bb-8215-6f9a72104705","019ce7a0-0965-7aa7-a556-174d32a8e773","","1095","
                    <div class=""stimulus-container"">
                        <img src=""images/causal_sequence/package_causal/package_causal_4.png"" class=""exp-image"">
                        <div class=""question-area"">
                            <p style=""font-size: 20px; font-weight: bold; margin: 0;"">Is there a person in this image?</p>
                        </div>
                    </div>","1","main_causal_task","4","package_causal","","","",""
"","","","","","html-keyboard-response","62","580366","0.0-62.0","9EDEC868D1A44566BA439970D5DB2533","019ce7b1-bd67-75bb-8215-6f9a72104705","019ce7a0-0965-7aa7-a556-174d32a8e773","","null","
                    <div class=""stimulus-container"">
                        <img src=""images/causal_sequence/package_causal/package_causal_5.png"" class=""exp-image"">
                        <div class=""question-area""></div> 
                    </div>","null","","","","","","",""
"","","","","","html-button-response","63","581231","0.0-63.0","9EDEC868D1A44566BA439970D5DB2533","019ce7b1-bd67-75bb-8215-6f9a72104705","019ce7a0-0965-7aa7-a556-174d32a8e773","","865","
                    <div class=""stimulus-container"">
                        <img src=""images/causal_sequence/package_causal/package_causal_5.png"" class=""exp-image"">
                        <div class=""question-area"">
                            <p style=""font-size: 20px; font-weight: bold; margin: 0;"">Is there a person in this image?</p>
                        </div>
                    </div>","0","main_causal_task","5","package_causal","","","",""
"","","","","","html-keyboard-response","64","586240","0.0-64.0","9EDEC868D1A44566BA439970D5DB2533","019ce7b1-bd67-75bb-8215-6f9a72104705","019ce7a0-0965-7aa7-a556-174d32a8e773","","null","
                    <div class=""stimulus-container"">
                        <img src=""images/causal_sequence/package_causal/package_causal_6.png"" class=""exp-image"">
                        <div class=""question-area""></div> 
                    </div>","null","","","","","","",""
"","","","","","html-button-response","65","587050","0.0-65.0","9EDEC868D1A44566BA439970D5DB2533","019ce7b1-bd67-75bb-8215-6f9a72104705","019ce7a0-0965-7aa7-a556-174d32a8e773","","810","
                    <div class=""stimulus-container"">
                        <img src=""images/causal_sequence/package_causal/package_causal_6.png"" class=""exp-image"">
                        <div class=""question-area"">
                            <p style=""font-size: 20px; font-weight: bold; margin: 0;"">Is there a person in this image?</p>
                        </div>
                    </div>","0","main_causal_task","6","package_causal","","","",""
"","","","","","html-keyboard-response","66","592067","0.0-66.0","9EDEC868D1A44566BA439970D5DB2533","019ce7b1-bd67-75bb-8215-6f9a72104705","019ce7a0-0965-7aa7-a556-174d32a8e773","","null","
                    <div class=""stimulus-container"">
                        <img src=""images/causal_sequence/package_causal/package_causal_7.png"" class=""exp-image"">
                        <div class=""question-area""></div> 
                    </div>","null","","","","","","",""
"","","","","","html-button-response","67","592985","0.0-67.0","9EDEC868D1A44566BA439970D5DB2533","019ce7b1-bd67-75bb-8215-6f9a72104705","019ce7a0-0965-7aa7-a556-174d32a8e773","","917","
                    <div class=""stimulus-container"">
                        <img src=""images/causal_sequence/package_causal/package_causal_7.png"" class=""exp-image"">
                        <div class=""question-area"">
                            <p style=""font-size: 20px; font-weight: bold; margin: 0;"">Is there a person in this image?</p>
                        </div>
                    </div>","0","main_causal_task","7","package_causal","","","",""
"","","","","","html-keyboard-response","68","597990","0.0-68.0","9EDEC868D1A44566BA439970D5DB2533","019ce7b1-bd67-75bb-8215-6f9a72104705","019ce7a0-0965-7aa7-a556-174d32a8e773","","null","
                    <div class=""stimulus-container"">
                        <img src=""images/causal_sequence/package_causal/package_causal_8.png"" class=""exp-image"">
                        <div class=""question-area""></div> 
                    </div>","null","","","","","","",""
"","","","","","html-button-response","69","598837","0.0-69.0","9EDEC868D1A44566BA439970D5DB2533","019ce7b1-bd67-75bb-8215-6f9a72104705","019ce7a0-0965-7aa7-a556-174d32a8e773","","846","
                    <div class=""stimulus-container"">
                        <img src=""images/causal_sequence/package_causal/package_causal_8.png"" class=""exp-image"">
                        <div class=""question-area"">
                            <p style=""font-size: 20px; font-weight: bold; margin: 0;"">Is there a person in this image?</p>
                        </div>
                    </div>","0","main_causal_task","8","package_causal","","","",""
"","","","","","html-keyboard-response","70","603841","0.0-70.0","9EDEC868D1A44566BA439970D5DB2533","019ce7b1-bd67-75bb-8215-6f9a72104705","019ce7a0-0965-7aa7-a556-174d32a8e773","","null","
                    <div class=""stimulus-container"">
                        <img src=""images/causal_sequence/package_causal/package_causal_9.png"" class=""exp-image"">
                        <div class=""question-area""></div> 
                    </div>","null","","","","","","",""
"","","","","","html-button-response","71","604801","0.0-71.0","9EDEC868D1A44566BA439970D5DB2533","019ce7b1-bd67-75bb-8215-6f9a72104705","019ce7a0-0965-7aa7-a556-174d32a8e773","","959","
                    <div class=""stimulus-container"">
                        <img src=""images/causal_sequence/package_causal/package_causal_9.png"" class=""exp-image"">
                        <div class=""question-area"">
                            <p style=""font-size: 20px; font-weight: bold; margin: 0;"">Is there a person in this image?</p>
                        </div>
                    </div>","0","main_causal_task","9","package_causal","","","",""
"","","","","","html-keyboard-response","72","605808","0.0-72.0","9EDEC868D1A44566BA439970D5DB2533","019ce7b1-bd67-75bb-8215-6f9a72104705","019ce7a0-0965-7aa7-a556-174d32a8e773","","null","<div style=""background-color: gray; width: 100vw; height: 100vh;""></div>","null","","","","","","",""
"","","","","","html-keyboard-response","73","610820","0.0-73.0","9EDEC868D1A44566BA439970D5DB2533","019ce7b1-bd67-75bb-8215-6f9a72104705","019ce7a0-0965-7aa7-a556-174d32a8e773","","null","
                    <div class=""stimulus-container"">
                        <img src=""images/causal_sequence/museum_causal/museum_causal_1.png"" class=""exp-image"">
                        <div class=""question-area""></div> 
                    </div>","null","","","","","","",""
"","","","","","html-button-response","74","611718","0.0-74.0","9EDEC868D1A44566BA439970D5DB2533","019ce7b1-bd67-75bb-8215-6f9a72104705","019ce7a0-0965-7aa7-a556-174d32a8e773","","897","
                    <div class=""stimulus-container"">
                        <img src=""images/causal_sequence/museum_causal/museum_causal_1.png"" class=""exp-image"">
                        <div class=""question-area"">
                            <p style=""font-size: 20px; font-weight: bold; margin: 0;"">Is there a person in this image?</p>
                        </div>
                    </div>","0","main_causal_task","1","museum_causal","","","",""
"","","","","","html-keyboard-response","75","616725","0.0-75.0","9EDEC868D1A44566BA439970D5DB2533","019ce7b1-bd67-75bb-8215-6f9a72104705","019ce7a0-0965-7aa7-a556-174d32a8e773","","null","
                    <div class=""stimulus-container"">
                        <img src=""images/causal_sequence/museum_causal/museum_causal_2.png"" class=""exp-image"">
                        <div class=""question-area""></div> 
                    </div>","null","","","","","","",""
"","","","","","html-button-response","76","617534","0.0-76.0","9EDEC868D1A44566BA439970D5DB2533","019ce7b1-bd67-75bb-8215-6f9a72104705","019ce7a0-0965-7aa7-a556-174d32a8e773","","809","
                    <div class=""stimulus-container"">
                        <img src=""images/causal_sequence/museum_causal/museum_causal_2.png"" class=""exp-image"">
                        <div class=""question-area"">
                            <p style=""font-size: 20px; font-weight: bold; margin: 0;"">Is there a person in this image?</p>
                        </div>
                    </div>","1","main_causal_task","2","museum_causal","","","",""
"","","","","","html-keyboard-response","77","622539","0.0-77.0","9EDEC868D1A44566BA439970D5DB2533","019ce7b1-bd67-75bb-8215-6f9a72104705","019ce7a0-0965-7aa7-a556-174d32a8e773","","null","
                    <div class=""stimulus-container"">
                        <img src=""images/causal_sequence/museum_causal/museum_causal_3.png"" class=""exp-image"">
                        <div class=""question-area""></div> 
                    </div>","null","","","","","","",""
"","","","","","html-button-response","78","623182","0.0-78.0","9EDEC868D1A44566BA439970D5DB2533","019ce7b1-bd67-75bb-8215-6f9a72104705","019ce7a0-0965-7aa7-a556-174d32a8e773","","642","
                    <div class=""stimulus-container"">
                        <img src=""images/causal_sequence/museum_causal/museum_causal_3.png"" class=""exp-image"">
                        <div class=""question-area"">
                            <p style=""font-size: 20px; font-weight: bold; margin: 0;"">Is there a person in this image?</p>
                        </div>
                    </div>","0","main_causal_task","3","museum_causal","","","",""
"","","","","","html-keyboard-response","79","628188","0.0-79.0","9EDEC868D1A44566BA439970D5DB2533","019ce7b1-bd67-75bb-8215-6f9a72104705","019ce7a0-0965-7aa7-a556-174d32a8e773","","null","
                    <div class=""stimulus-container"">
                        <img src=""images/causal_sequence/museum_causal/museum_causal_4.png"" class=""exp-image"">
                        <div class=""question-area""></div> 
                    </div>","null","","","","","","",""
"","","","","","html-button-response","80","629353","0.0-80.0","9EDEC868D1A44566BA439970D5DB2533","019ce7b1-bd67-75bb-8215-6f9a72104705","019ce7a0-0965-7aa7-a556-174d32a8e773","","1164","
                    <div class=""stimulus-container"">
                        <img src=""images/causal_sequence/museum_causal/museum_causal_4.png"" class=""exp-image"">
                        <div class=""question-area"">
                            <p style=""font-size: 20px; font-weight: bold; margin: 0;"">Is there a person in this image?</p>
                        </div>
                    </div>","1","main_causal_task","4","museum_causal","","","",""
"","","","","","html-keyboard-response","81","634360","0.0-81.0","9EDEC868D1A44566BA439970D5DB2533","019ce7b1-bd67-75bb-8215-6f9a72104705","019ce7a0-0965-7aa7-a556-174d32a8e773","","null","
                    <div class=""stimulus-container"">
                        <img src=""images/causal_sequence/museum_causal/museum_causal_5.png"" class=""exp-image"">
                        <div class=""question-area""></div> 
                    </div>","null","","","","","","",""
"","","","","","html-button-response","82","635303","0.0-82.0","9EDEC868D1A44566BA439970D5DB2533","019ce7b1-bd67-75bb-8215-6f9a72104705","019ce7a0-0965-7aa7-a556-174d32a8e773","","942","
                    <div class=""stimulus-container"">
                        <img src=""images/causal_sequence/museum_causal/museum_causal_5.png"" class=""exp-image"">
                        <div class=""question-area"">
                            <p style=""font-size: 20px; font-weight: bold; margin: 0;"">Is there a person in this image?</p>
                        </div>
                    </div>","0","main_causal_task","5","museum_causal","","","",""
"","","","","","html-keyboard-response","83","640315","0.0-83.0","9EDEC868D1A44566BA439970D5DB2533","019ce7b1-bd67-75bb-8215-6f9a72104705","019ce7a0-0965-7aa7-a556-174d32a8e773","","null","
                    <div class=""stimulus-container"">
                        <img src=""images/causal_sequence/museum_causal/museum_causal_6.png"" class=""exp-image"">
                        <div class=""question-area""></div> 
                    </div>","null","","","","","","",""
"","","","","","html-button-response","84","641354","0.0-84.0","9EDEC868D1A44566BA439970D5DB2533","019ce7b1-bd67-75bb-8215-6f9a72104705","019ce7a0-0965-7aa7-a556-174d32a8e773","","1038","
                    <div class=""stimulus-container"">
                        <img src=""images/causal_sequence/museum_causal/museum_causal_6.png"" class=""exp-image"">
                        <div class=""question-area"">
                            <p style=""font-size: 20px; font-weight: bold; margin: 0;"">Is there a person in this image?</p>
                        </div>
                    </div>","0","main_causal_task","6","museum_causal","","","",""
"","","","","","html-keyboard-response","85","646356","0.0-85.0","9EDEC868D1A44566BA439970D5DB2533","019ce7b1-bd67-75bb-8215-6f9a72104705","019ce7a0-0965-7aa7-a556-174d32a8e773","","null","
                    <div class=""stimulus-container"">
                        <img src=""images/causal_sequence/museum_causal/museum_causal_7.png"" class=""exp-image"">
                        <div class=""question-area""></div> 
                    </div>","null","","","","","","",""
"","","","","","html-button-response","86","647385","0.0-86.0","9EDEC868D1A44566BA439970D5DB2533","019ce7b1-bd67-75bb-8215-6f9a72104705","019ce7a0-0965-7aa7-a556-174d32a8e773","","1029","
                    <div class=""stimulus-container"">
                        <img src=""images/causal_sequence/museum_causal/museum_causal_7.png"" class=""exp-image"">
                        <div class=""question-area"">
                            <p style=""font-size: 20px; font-weight: bold; margin: 0;"">Is there a person in this image?</p>
                        </div>
                    </div>","1","main_causal_task","7","museum_causal","","","",""
"","","","","","html-keyboard-response","87","652389","0.0-87.0","9EDEC868D1A44566BA439970D5DB2533","019ce7b1-bd67-75bb-8215-6f9a72104705","019ce7a0-0965-7aa7-a556-174d32a8e773","","null","
                    <div class=""stimulus-container"">
                        <img src=""images/causal_sequence/museum_causal/museum_causal_8.png"" class=""exp-image"">
                        <div class=""question-area""></div> 
                    </div>","null","","","","","","",""
"","","","","","html-button-response","88","653155","0.0-88.0","9EDEC868D1A44566BA439970D5DB2533","019ce7b1-bd67-75bb-8215-6f9a72104705","019ce7a0-0965-7aa7-a556-174d32a8e773","","765","
                    <div class=""stimulus-container"">
                        <img src=""images/causal_sequence/museum_causal/museum_causal_8.png"" class=""exp-image"">
                        <div class=""question-area"">
                            <p style=""font-size: 20px; font-weight: bold; margin: 0;"">Is there a person in this image?</p>
                        </div>
                    </div>","0","main_causal_task","8","museum_causal","","","",""
"","","","","","html-keyboard-response","89","658167","0.0-89.0","9EDEC868D1A44566BA439970D5DB2533","019ce7b1-bd67-75bb-8215-6f9a72104705","019ce7a0-0965-7aa7-a556-174d32a8e773","","null","
                    <div class=""stimulus-container"">
                        <img src=""images/causal_sequence/museum_causal/museum_causal_9.png"" class=""exp-image"">
                        <div class=""question-area""></div> 
                    </div>","null","","","","","","",""
"","","","","","html-button-response","90","659302","0.0-90.0","9EDEC868D1A44566BA439970D5DB2533","019ce7b1-bd67-75bb-8215-6f9a72104705","019ce7a0-0965-7aa7-a556-174d32a8e773","","1134","
                    <div class=""stimulus-container"">
                        <img src=""images/causal_sequence/museum_causal/museum_causal_9.png"" class=""exp-image"">
                        <div class=""question-area"">
                            <p style=""font-size: 20px; font-weight: bold; margin: 0;"">Is there a person in this image?</p>
                        </div>
                    </div>","1","main_causal_task","9","museum_causal","","","",""
"","","","","","html-keyboard-response","91","660308","0.0-91.0","9EDEC868D1A44566BA439970D5DB2533","019ce7b1-bd67-75bb-8215-6f9a72104705","019ce7a0-0965-7aa7-a556-174d32a8e773","","null","<div style=""background-color: gray; width: 100vw; height: 100vh;""></div>","null","","","","","","",""
"","","","","","html-keyboard-response","92","665323","0.0-92.0","9EDEC868D1A44566BA439970D5DB2533","019ce7b1-bd67-75bb-8215-6f9a72104705","019ce7a0-0965-7aa7-a556-174d32a8e773","","null","
                    <div class=""stimulus-container"">
                        <img src=""images/causal_sequence/saving_a_cat_causal/saving_a_cat_causal_1.png"" class=""exp-image"">
                        <div class=""question-area""></div> 
                    </div>","null","","","","","","",""
"","","","","","html-button-response","93","666437","0.0-93.0","9EDEC868D1A44566BA439970D5DB2533","019ce7b1-bd67-75bb-8215-6f9a72104705","019ce7a0-0965-7aa7-a556-174d32a8e773","","1113","
                    <div class=""stimulus-container"">
                        <img src=""images/causal_sequence/saving_a_cat_causal/saving_a_cat_causal_1.png"" class=""exp-image"">
                        <div class=""question-area"">
                            <p style=""font-size: 20px; font-weight: bold; margin: 0;"">Is there a person in this image?</p>
                        </div>
                    </div>","0","main_causal_task","1","saving_a_cat_causal","","","",""
"","","","","","html-keyboard-response","94","671442","0.0-94.0","9EDEC868D1A44566BA439970D5DB2533","019ce7b1-bd67-75bb-8215-6f9a72104705","019ce7a0-0965-7aa7-a556-174d32a8e773","","null","
                    <div class=""stimulus-container"">
                        <img src=""images/causal_sequence/saving_a_cat_causal/saving_a_cat_causal_2.png"" class=""exp-image"">
                        <div class=""question-area""></div> 
                    </div>","null","","","","","","",""
"","","","","","html-button-response","95","672501","0.0-95.0","9EDEC868D1A44566BA439970D5DB2533","019ce7b1-bd67-75bb-8215-6f9a72104705","019ce7a0-0965-7aa7-a556-174d32a8e773","","1058","
                    <div class=""stimulus-container"">
                        <img src=""images/causal_sequence/saving_a_cat_causal/saving_a_cat_causal_2.png"" class=""exp-image"">
                        <div class=""question-area"">
                            <p style=""font-size: 20px; font-weight: bold; margin: 0;"">Is there a person in this image?</p>
                        </div>
                    </div>","1","main_causal_task","2","saving_a_cat_causal","","","",""
"","","","","","html-keyboard-response","96","677506","0.0-96.0","9EDEC868D1A44566BA439970D5DB2533","019ce7b1-bd67-75bb-8215-6f9a72104705","019ce7a0-0965-7aa7-a556-174d32a8e773","","null","
                    <div class=""stimulus-container"">
                        <img src=""images/causal_sequence/saving_a_cat_causal/saving_a_cat_causal_3.png"" class=""exp-image"">
                        <div class=""question-area""></div> 
                    </div>","null","","","","","","",""
"","","","","","html-button-response","97","678605","0.0-97.0","9EDEC868D1A44566BA439970D5DB2533","019ce7b1-bd67-75bb-8215-6f9a72104705","019ce7a0-0965-7aa7-a556-174d32a8e773","","1098","
                    <div class=""stimulus-container"">
                        <img src=""images/causal_sequence/saving_a_cat_causal/saving_a_cat_causal_3.png"" class=""exp-image"">
                        <div class=""question-area"">
                            <p style=""font-size: 20px; font-weight: bold; margin: 0;"">Is there a person in this image?</p>
                        </div>
                    </div>","1","main_causal_task","3","saving_a_cat_causal","","","",""
"","","","","","html-keyboard-response","98","683620","0.0-98.0","9EDEC868D1A44566BA439970D5DB2533","019ce7b1-bd67-75bb-8215-6f9a72104705","019ce7a0-0965-7aa7-a556-174d32a8e773","","null","
                    <div class=""stimulus-container"">
                        <img src=""images/causal_sequence/saving_a_cat_causal/saving_a_cat_causal_4.png"" class=""exp-image"">
                        <div class=""question-area""></div> 
                    </div>","null","","","","","","",""
"","","","","","html-button-response","99","685052","0.0-99.0","9EDEC868D1A44566BA439970D5DB2533","019ce7b1-bd67-75bb-8215-6f9a72104705","019ce7a0-0965-7aa7-a556-174d32a8e773","","1432","
                    <div class=""stimulus-container"">
                        <img src=""images/causal_sequence/saving_a_cat_causal/saving_a_cat_causal_4.png"" class=""exp-image"">
                        <div class=""question-area"">
                            <p style=""font-size: 20px; font-weight: bold; margin: 0;"">Is there a person in this image?</p>
                        </div>
                    </div>","0","main_causal_task","4","saving_a_cat_causal","","","",""
"","","","","","html-keyboard-response","100","690066","0.0-100.0","9EDEC868D1A44566BA439970D5DB2533","019ce7b1-bd67-75bb-8215-6f9a72104705","019ce7a0-0965-7aa7-a556-174d32a8e773","","null","
                    <div class=""stimulus-container"">
                        <img src=""images/causal_sequence/saving_a_cat_causal/saving_a_cat_causal_5.png"" class=""exp-image"">
                        <div class=""question-area""></div> 
                    </div>","null","","","","","","",""
"","","","","","html-button-response","101","690819","0.0-101.0","9EDEC868D1A44566BA439970D5DB2533","019ce7b1-bd67-75bb-8215-6f9a72104705","019ce7a0-0965-7aa7-a556-174d32a8e773","","752","
                    <div class=""stimulus-container"">
                        <img src=""images/causal_sequence/saving_a_cat_causal/saving_a_cat_causal_5.png"" class=""exp-image"">
                        <div class=""question-area"">
                            <p style=""font-size: 20px; font-weight: bold; margin: 0;"">Is there a person in this image?</p>
                        </div>
                    </div>","0","main_causal_task","5","saving_a_cat_causal","","","",""
"","","","","","html-keyboard-response","102","695830","0.0-102.0","9EDEC868D1A44566BA439970D5DB2533","019ce7b1-bd67-75bb-8215-6f9a72104705","019ce7a0-0965-7aa7-a556-174d32a8e773","","null","
                    <div class=""stimulus-container"">
                        <img src=""images/causal_sequence/saving_a_cat_causal/saving_a_cat_causal_6.png"" class=""exp-image"">
                        <div class=""question-area""></div> 
                    </div>","null","","","","","","",""
"","","","","","html-button-response","103","696621","0.0-103.0","9EDEC868D1A44566BA439970D5DB2533","019ce7b1-bd67-75bb-8215-6f9a72104705","019ce7a0-0965-7aa7-a556-174d32a8e773","","790","
                    <div class=""stimulus-container"">
                        <img src=""images/causal_sequence/saving_a_cat_causal/saving_a_cat_causal_6.png"" class=""exp-image"">
                        <div class=""question-area"">
                            <p style=""font-size: 20px; font-weight: bold; margin: 0;"">Is there a person in this image?</p>
                        </div>
                    </div>","0","main_causal_task","6","saving_a_cat_causal","","","",""
"","","","","","html-keyboard-response","104","701633","0.0-104.0","9EDEC868D1A44566BA439970D5DB2533","019ce7b1-bd67-75bb-8215-6f9a72104705","019ce7a0-0965-7aa7-a556-174d32a8e773","","null","
                    <div class=""stimulus-container"">
                        <img src=""images/causal_sequence/saving_a_cat_causal/saving_a_cat_causal_7.png"" class=""exp-image"">
                        <div class=""question-area""></div> 
                    </div>","null","","","","","","",""
"","","","","","html-button-response","105","702285","0.0-105.0","9EDEC868D1A44566BA439970D5DB2533","019ce7b1-bd67-75bb-8215-6f9a72104705","019ce7a0-0965-7aa7-a556-174d32a8e773","","651","
                    <div class=""stimulus-container"">
                        <img src=""images/causal_sequence/saving_a_cat_causal/saving_a_cat_causal_7.png"" class=""exp-image"">
                        <div class=""question-area"">
                            <p style=""font-size: 20px; font-weight: bold; margin: 0;"">Is there a person in this image?</p>
                        </div>
                    </div>","0","main_causal_task","7","saving_a_cat_causal","","","",""
"","","","","","html-keyboard-response","106","707293","0.0-106.0","9EDEC868D1A44566BA439970D5DB2533","019ce7b1-bd67-75bb-8215-6f9a72104705","019ce7a0-0965-7aa7-a556-174d32a8e773","","null","
                    <div class=""stimulus-container"">
                        <img src=""images/causal_sequence/saving_a_cat_causal/saving_a_cat_causal_8.png"" class=""exp-image"">
                        <div class=""question-area""></div> 
                    </div>","null","","","","","","",""
"","","","","","html-button-response","107","708237","0.0-107.0","9EDEC868D1A44566BA439970D5DB2533","019ce7b1-bd67-75bb-8215-6f9a72104705","019ce7a0-0965-7aa7-a556-174d32a8e773","","943","
                    <div class=""stimulus-container"">
                        <img src=""images/causal_sequence/saving_a_cat_causal/saving_a_cat_causal_8.png"" class=""exp-image"">
                        <div class=""question-area"">
                            <p style=""font-size: 20px; font-weight: bold; margin: 0;"">Is there a person in this image?</p>
                        </div>
                    </div>","0","main_causal_task","8","saving_a_cat_causal","","","",""
"","","","","","html-keyboard-response","108","713244","0.0-108.0","9EDEC868D1A44566BA439970D5DB2533","019ce7b1-bd67-75bb-8215-6f9a72104705","019ce7a0-0965-7aa7-a556-174d32a8e773","","null","
                    <div class=""stimulus-container"">
                        <img src=""images/causal_sequence/saving_a_cat_causal/saving_a_cat_causal_9.png"" class=""exp-image"">
                        <div class=""question-area""></div> 
                    </div>","null","","","","","","",""
"","","","","","html-button-response","109","714239","0.0-109.0","9EDEC868D1A44566BA439970D5DB2533","019ce7b1-bd67-75bb-8215-6f9a72104705","019ce7a0-0965-7aa7-a556-174d32a8e773","","994","
                    <div class=""stimulus-container"">
                        <img src=""images/causal_sequence/saving_a_cat_causal/saving_a_cat_causal_9.png"" class=""exp-image"">
                        <div class=""question-area"">
                            <p style=""font-size: 20px; font-weight: bold; margin: 0;"">Is there a person in this image?</p>
                        </div>
                    </div>","0","main_causal_task","9","saving_a_cat_causal","","","",""
"","","","","","html-keyboard-response","110","715241","0.0-110.0","9EDEC868D1A44566BA439970D5DB2533","019ce7b1-bd67-75bb-8215-6f9a72104705","019ce7a0-0965-7aa7-a556-174d32a8e773","","null","<div style=""background-color: gray; width: 100vw; height: 100vh;""></div>","null","","","","","","",""
"","","","","","html-keyboard-response","111","720244","0.0-111.0","9EDEC868D1A44566BA439970D5DB2533","019ce7b1-bd67-75bb-8215-6f9a72104705","019ce7a0-0965-7aa7-a556-174d32a8e773","","null","
                    <div class=""stimulus-container"">
                        <img src=""images/causal_sequence/the_performance_causal/the_performance_causal_1.png"" class=""exp-image"">
                        <div class=""question-area""></div> 
                    </div>","null","","","","","","",""
"","","","","","html-button-response","112","721371","0.0-112.0","9EDEC868D1A44566BA439970D5DB2533","019ce7b1-bd67-75bb-8215-6f9a72104705","019ce7a0-0965-7aa7-a556-174d32a8e773","","1127","
                    <div class=""stimulus-container"">
                        <img src=""images/causal_sequence/the_performance_causal/the_performance_causal_1.png"" class=""exp-image"">
                        <div class=""question-area"">
                            <p style=""font-size: 20px; font-weight: bold; margin: 0;"">Is there a person in this image?</p>
                        </div>
                    </div>","0","main_causal_task","1","the_performance_causal","","","",""
"","","","","","html-keyboard-response","113","726385","0.0-113.0","9EDEC868D1A44566BA439970D5DB2533","019ce7b1-bd67-75bb-8215-6f9a72104705","019ce7a0-0965-7aa7-a556-174d32a8e773","","null","
                    <div class=""stimulus-container"">
                        <img src=""images/causal_sequence/the_performance_causal/the_performance_causal_2.png"" class=""exp-image"">
                        <div class=""question-area""></div> 
                    </div>","null","","","","","","",""
"","","","","","html-button-response","114","727319","0.0-114.0","9EDEC868D1A44566BA439970D5DB2533","019ce7b1-bd67-75bb-8215-6f9a72104705","019ce7a0-0965-7aa7-a556-174d32a8e773","","933","
                    <div class=""stimulus-container"">
                        <img src=""images/causal_sequence/the_performance_causal/the_performance_causal_2.png"" class=""exp-image"">
                        <div class=""question-area"">
                            <p style=""font-size: 20px; font-weight: bold; margin: 0;"">Is there a person in this image?</p>
                        </div>
                    </div>","0","main_causal_task","2","the_performance_causal","","","",""
"","","","","","html-keyboard-response","115","732333","0.0-115.0","9EDEC868D1A44566BA439970D5DB2533","019ce7b1-bd67-75bb-8215-6f9a72104705","019ce7a0-0965-7aa7-a556-174d32a8e773","","null","
                    <div class=""stimulus-container"">
                        <img src=""images/causal_sequence/the_performance_causal/the_performance_causal_3.png"" class=""exp-image"">
                        <div class=""question-area""></div> 
                    </div>","null","","","","","","",""
"","","","","","html-button-response","116","733105","0.0-116.0","9EDEC868D1A44566BA439970D5DB2533","019ce7b1-bd67-75bb-8215-6f9a72104705","019ce7a0-0965-7aa7-a556-174d32a8e773","","771","
                    <div class=""stimulus-container"">
                        <img src=""images/causal_sequence/the_performance_causal/the_performance_causal_3.png"" class=""exp-image"">
                        <div class=""question-area"">
                            <p style=""font-size: 20px; font-weight: bold; margin: 0;"">Is there a person in this image?</p>
                        </div>
                    </div>","0","main_causal_task","3","the_performance_causal","","","",""
"","","","","","html-keyboard-response","117","738119","0.0-117.0","9EDEC868D1A44566BA439970D5DB2533","019ce7b1-bd67-75bb-8215-6f9a72104705","019ce7a0-0965-7aa7-a556-174d32a8e773","","null","
                    <div class=""stimulus-container"">
                        <img src=""images/causal_sequence/the_performance_causal/the_performance_causal_4.png"" class=""exp-image"">
                        <div class=""question-area""></div> 
                    </div>","null","","","","","","",""
"","","","","","html-button-response","118","738706","0.0-118.0","9EDEC868D1A44566BA439970D5DB2533","019ce7b1-bd67-75bb-8215-6f9a72104705","019ce7a0-0965-7aa7-a556-174d32a8e773","","587","
                    <div class=""stimulus-container"">
                        <img src=""images/causal_sequence/the_performance_causal/the_performance_causal_4.png"" class=""exp-image"">
                        <div class=""question-area"">
                            <p style=""font-size: 20px; font-weight: bold; margin: 0;"">Is there a person in this image?</p>
                        </div>
                    </div>","0","main_causal_task","4","the_performance_causal","","","",""
"","","","","","html-keyboard-response","119","743722","0.0-119.0","9EDEC868D1A44566BA439970D5DB2533","019ce7b1-bd67-75bb-8215-6f9a72104705","019ce7a0-0965-7aa7-a556-174d32a8e773","","null","
                    <div class=""stimulus-container"">
                        <img src=""images/causal_sequence/the_performance_causal/the_performance_causal_5.png"" class=""exp-image"">
                        <div class=""question-area""></div> 
                    </div>","null","","","","","","",""
"","","","","","html-button-response","120","744471","0.0-120.0","9EDEC868D1A44566BA439970D5DB2533","019ce7b1-bd67-75bb-8215-6f9a72104705","019ce7a0-0965-7aa7-a556-174d32a8e773","","748","
                    <div class=""stimulus-container"">
                        <img src=""images/causal_sequence/the_performance_causal/the_performance_causal_5.png"" class=""exp-image"">
                        <div class=""question-area"">
                            <p style=""font-size: 20px; font-weight: bold; margin: 0;"">Is there a person in this image?</p>
                        </div>
                    </div>","0","main_causal_task","5","the_performance_causal","","","",""
"","","","","","html-keyboard-response","121","749472","0.0-121.0","9EDEC868D1A44566BA439970D5DB2533","019ce7b1-bd67-75bb-8215-6f9a72104705","019ce7a0-0965-7aa7-a556-174d32a8e773","","null","
                    <div class=""stimulus-container"">
                        <img src=""images/causal_sequence/the_performance_causal/the_performance_causal_6.png"" class=""exp-image"">
                        <div class=""question-area""></div> 
                    </div>","null","","","","","","",""
"","","","","","html-button-response","122","750222","0.0-122.0","9EDEC868D1A44566BA439970D5DB2533","019ce7b1-bd67-75bb-8215-6f9a72104705","019ce7a0-0965-7aa7-a556-174d32a8e773","","749","
                    <div class=""stimulus-container"">
                        <img src=""images/causal_sequence/the_performance_causal/the_performance_causal_6.png"" class=""exp-image"">
                        <div class=""question-area"">
                            <p style=""font-size: 20px; font-weight: bold; margin: 0;"">Is there a person in this image?</p>
                        </div>
                    </div>","0","main_causal_task","6","the_performance_causal","","","",""
"","","","","","html-keyboard-response","123","755237","0.0-123.0","9EDEC868D1A44566BA439970D5DB2533","019ce7b1-bd67-75bb-8215-6f9a72104705","019ce7a0-0965-7aa7-a556-174d32a8e773","","null","
                    <div class=""stimulus-container"">
                        <img src=""images/causal_sequence/the_performance_causal/the_performance_causal_7.png"" class=""exp-image"">
                        <div class=""question-area""></div> 
                    </div>","null","","","","","","",""
"","","","","","html-button-response","124","756170","0.0-124.0","9EDEC868D1A44566BA439970D5DB2533","019ce7b1-bd67-75bb-8215-6f9a72104705","019ce7a0-0965-7aa7-a556-174d32a8e773","","932","
                    <div class=""stimulus-container"">
                        <img src=""images/causal_sequence/the_performance_causal/the_performance_causal_7.png"" class=""exp-image"">
                        <div class=""question-area"">
                            <p style=""font-size: 20px; font-weight: bold; margin: 0;"">Is there a person in this image?</p>
                        </div>
                    </div>","0","main_causal_task","7","the_performance_causal","","","",""
"","","","","","html-keyboard-response","125","761183","0.0-125.0","9EDEC868D1A44566BA439970D5DB2533","019ce7b1-bd67-75bb-8215-6f9a72104705","019ce7a0-0965-7aa7-a556-174d32a8e773","","null","
                    <div class=""stimulus-container"">
                        <img src=""images/causal_sequence/the_performance_causal/the_performance_causal_8.png"" class=""exp-image"">
                        <div class=""question-area""></div> 
                    </div>","null","","","","","","",""
"","","","","","html-button-response","126","761919","0.0-126.0","9EDEC868D1A44566BA439970D5DB2533","019ce7b1-bd67-75bb-8215-6f9a72104705","019ce7a0-0965-7aa7-a556-174d32a8e773","","735","
                    <div class=""stimulus-container"">
                        <img src=""images/causal_sequence/the_performance_causal/the_performance_causal_8.png"" class=""exp-image"">
                        <div class=""question-area"">
                            <p style=""font-size: 20px; font-weight: bold; margin: 0;"">Is there a person in this image?</p>
                        </div>
                    </div>","0","main_causal_task","8","the_performance_causal","","","",""
"","","","","","html-keyboard-response","127","766925","0.0-127.0","9EDEC868D1A44566BA439970D5DB2533","019ce7b1-bd67-75bb-8215-6f9a72104705","019ce7a0-0965-7aa7-a556-174d32a8e773","","null","
                    <div class=""stimulus-container"">
                        <img src=""images/causal_sequence/the_performance_causal/the_performance_causal_9.png"" class=""exp-image"">
                        <div class=""question-area""></div> 
                    </div>","null","","","","","","",""
"","","","","","html-button-response","128","767606","0.0-128.0","9EDEC868D1A44566BA439970D5DB2533","019ce7b1-bd67-75bb-8215-6f9a72104705","019ce7a0-0965-7aa7-a556-174d32a8e773","","681","
                    <div class=""stimulus-container"">
                        <img src=""images/causal_sequence/the_performance_causal/the_performance_causal_9.png"" class=""exp-image"">
                        <div class=""question-area"">
                            <p style=""font-size: 20px; font-weight: bold; margin: 0;"">Is there a person in this image?</p>
                        </div>
                    </div>","0","main_causal_task","9","the_performance_causal","","","",""
"","","","","","instructions","129","769370","0.0-129.0","9EDEC868D1A44566BA439970D5DB2533","019ce7b1-bd67-75bb-8215-6f9a72104705","019ce7a0-0965-7aa7-a556-174d32a8e773","[{""page_index"":0,""viewing_time"":1763}]","1763","","","","","","","","",""
"","","","","","instructions","130","777203","0.0-130.0","9EDEC868D1A44566BA439970D5DB2533","019ce7b1-bd67-75bb-8215-6f9a72104705","019ce7a0-0965-7aa7-a556-174d32a8e773","[{""page_index"":0,""viewing_time"":7833}]","7833","","","","","","","","",""
"","","","","","html-keyboard-response","131","778212","0.0-131.0","9EDEC868D1A44566BA439970D5DB2533","019ce7b1-bd67-75bb-8215-6f9a72104705","019ce7a0-0965-7aa7-a556-174d32a8e773","","null","
        <div class=""stimulus-container"" style=""display: flex; align-items: center; justify-content: center; gap: 30px;"">
            <img src=""images/instructions/movie_1.png"" class=""exp-image"">
            <div style=""font-size: 40px; font-weight: bold; color: green; border: 5px solid green; padding: 25px; border-radius: 15px; background-color: #f0fff0;"">
                WORTH<br>$1
            </div>
        </div>
        <div class=""question-area""></div>","null","","","","","","",""
"","","","","","html-button-response","132","779340","0.0-132.0","9EDEC868D1A44566BA439970D5DB2533","019ce7b1-bd67-75bb-8215-6f9a72104705","019ce7a0-0965-7aa7-a556-174d32a8e773","","1127","
        <div class=""stimulus-container"" style=""display: flex; align-items: center; justify-content: center; gap: 30px;"">
            <img src=""images/instructions/movie_1.png"" class=""exp-image"">
            <div style=""font-size: 40px; font-weight: bold; color: green; border: 5px solid green; padding: 25px; border-radius: 15px; background-color: #f0fff0;"">
                WORTH<br>$1
            </div>
        </div>
        <div class=""question-area"">
            <p style=""font-size: 20px; font-weight: bold; margin: 0;"">Was there a person in this image?</p>
        </div>","0","","","","","","",""
"","","","","","instructions","133","784488","0.0-133.0","9EDEC868D1A44566BA439970D5DB2533","019ce7b1-bd67-75bb-8215-6f9a72104705","019ce7a0-0965-7aa7-a556-174d32a8e773","[{""page_index"":0,""viewing_time"":5148}]","5148","","","","","","","","",""
"","","","","","html-keyboard-response","134","794494","0.0-134.0","9EDEC868D1A44566BA439970D5DB2533","019ce7b1-bd67-75bb-8215-6f9a72104705","019ce7a0-0965-7aa7-a556-174d32a8e773","","null","
            <div class=""stimulus-container"" style=""display: flex; align-items: center; justify-content: center; gap: 30px;"">
                <img src=""images/causal_sequence/coin_causal/coin_causal_3.png"" class=""exp-image"">
                <div style=""font-size: 40px; font-weight: bold; color: green; border: 5px solid green; padding: 25px; border-radius: 15px; background-color: #f0fff0;"">
                    WORTH<br>$1
                </div>
            </div>
            <div class=""question-area""></div>","null","","","","","","",""
"","","","","","html-button-response","135","795539","0.0-135.0","9EDEC868D1A44566BA439970D5DB2533","019ce7b1-bd67-75bb-8215-6f9a72104705","019ce7a0-0965-7aa7-a556-174d32a8e773","","1045","
            <div class=""stimulus-container"" style=""display: flex; align-items: center; justify-content: center; gap: 30px;"">
                <img src=""images/causal_sequence/coin_causal/coin_causal_3.png"" class=""exp-image"">
                <div style=""font-size: 40px; font-weight: bold; color: green; border: 5px solid green; padding: 25px; border-radius: 15px; background-color: #f0fff0;"">
                    WORTH<br>$1
                </div>
            </div>
            <div class=""question-area"">
                <p style=""font-size: 20px; font-weight: bold; margin: 0;"">Was there a person in this image?</p>
            </div>","0","part2_value_learning","","coin_causal","3","","",""
"","","","","","html-keyboard-response","136","805540","0.0-136.0","9EDEC868D1A44566BA439970D5DB2533","019ce7b1-bd67-75bb-8215-6f9a72104705","019ce7a0-0965-7aa7-a556-174d32a8e773","","null","
            <div class=""stimulus-container"" style=""display: flex; align-items: center; justify-content: center; gap: 30px;"">
                <img src=""images/causal_sequence/the_performance_causal/the_performance_causal_6.png"" class=""exp-image"">
                <div style=""font-size: 40px; font-weight: bold; color: green; border: 5px solid green; padding: 25px; border-radius: 15px; background-color: #f0fff0;"">
                    WORTH<br>$1
                </div>
            </div>
            <div class=""question-area""></div>","null","","","","","","",""
"","","","","","html-button-response","137","806574","0.0-137.0","9EDEC868D1A44566BA439970D5DB2533","019ce7b1-bd67-75bb-8215-6f9a72104705","019ce7a0-0965-7aa7-a556-174d32a8e773","","1033","
            <div class=""stimulus-container"" style=""display: flex; align-items: center; justify-content: center; gap: 30px;"">
                <img src=""images/causal_sequence/the_performance_causal/the_performance_causal_6.png"" class=""exp-image"">
                <div style=""font-size: 40px; font-weight: bold; color: green; border: 5px solid green; padding: 25px; border-radius: 15px; background-color: #f0fff0;"">
                    WORTH<br>$1
                </div>
            </div>
            <div class=""question-area"">
                <p style=""font-size: 20px; font-weight: bold; margin: 0;"">Was there a person in this image?</p>
            </div>","0","part2_value_learning","","the_performance_causal","6","","",""
"","","","","","html-keyboard-response","138","816579","0.0-138.0","9EDEC868D1A44566BA439970D5DB2533","019ce7b1-bd67-75bb-8215-6f9a72104705","019ce7a0-0965-7aa7-a556-174d32a8e773","","null","
            <div class=""stimulus-container"" style=""display: flex; align-items: center; justify-content: center; gap: 30px;"">
                <img src=""images/causal_sequence/museum_causal/museum_causal_3.png"" class=""exp-image"">
                <div style=""font-size: 40px; font-weight: bold; color: green; border: 5px solid green; padding: 25px; border-radius: 15px; background-color: #f0fff0;"">
                    WORTH<br>$1
                </div>
            </div>
            <div class=""question-area""></div>","null","","","","","","",""
"","","","","","html-button-response","139","817704","0.0-139.0","9EDEC868D1A44566BA439970D5DB2533","019ce7b1-bd67-75bb-8215-6f9a72104705","019ce7a0-0965-7aa7-a556-174d32a8e773","","1124","
            <div class=""stimulus-container"" style=""display: flex; align-items: center; justify-content: center; gap: 30px;"">
                <img src=""images/causal_sequence/museum_causal/museum_causal_3.png"" class=""exp-image"">
                <div style=""font-size: 40px; font-weight: bold; color: green; border: 5px solid green; padding: 25px; border-radius: 15px; background-color: #f0fff0;"">
                    WORTH<br>$1
                </div>
            </div>
            <div class=""question-area"">
                <p style=""font-size: 20px; font-weight: bold; margin: 0;"">Was there a person in this image?</p>
            </div>","0","part2_value_learning","","museum_causal","3","","",""
"","","","","","html-keyboard-response","140","827717","0.0-140.0","9EDEC868D1A44566BA439970D5DB2533","019ce7b1-bd67-75bb-8215-6f9a72104705","019ce7a0-0965-7aa7-a556-174d32a8e773","","null","
            <div class=""stimulus-container"" style=""display: flex; align-items: center; justify-content: center; gap: 30px;"">
                <img src=""images/causal_sequence/saving_a_cat_causal/saving_a_cat_causal_6.png"" class=""exp-image"">
                <div style=""font-size: 40px; font-weight: bold; color: green; border: 5px solid green; padding: 25px; border-radius: 15px; background-color: #f0fff0;"">
                    WORTH<br>$1
                </div>
            </div>
            <div class=""question-area""></div>","null","","","","","","",""
"","","","","","html-button-response","141","828773","0.0-141.0","9EDEC868D1A44566BA439970D5DB2533","019ce7b1-bd67-75bb-8215-6f9a72104705","019ce7a0-0965-7aa7-a556-174d32a8e773","","1055","
            <div class=""stimulus-container"" style=""display: flex; align-items: center; justify-content: center; gap: 30px;"">
                <img src=""images/causal_sequence/saving_a_cat_causal/saving_a_cat_causal_6.png"" class=""exp-image"">
                <div style=""font-size: 40px; font-weight: bold; color: green; border: 5px solid green; padding: 25px; border-radius: 15px; background-color: #f0fff0;"">
                    WORTH<br>$1
                </div>
            </div>
            <div class=""question-area"">
                <p style=""font-size: 20px; font-weight: bold; margin: 0;"">Was there a person in this image?</p>
            </div>","0","part2_value_learning","","saving_a_cat_causal","6","","",""
"","","","","","html-keyboard-response","142","838781","0.0-142.0","9EDEC868D1A44566BA439970D5DB2533","019ce7b1-bd67-75bb-8215-6f9a72104705","019ce7a0-0965-7aa7-a556-174d32a8e773","","null","
            <div class=""stimulus-container"" style=""display: flex; align-items: center; justify-content: center; gap: 30px;"">
                <img src=""images/causal_sequence/package_causal/package_causal_6.png"" class=""exp-image"">
                <div style=""font-size: 40px; font-weight: bold; color: green; border: 5px solid green; padding: 25px; border-radius: 15px; background-color: #f0fff0;"">
                    WORTH<br>$1
                </div>
            </div>
            <div class=""question-area""></div>","null","","","","","","",""
"","","","","","html-button-response","143","839691","0.0-143.0","9EDEC868D1A44566BA439970D5DB2533","019ce7b1-bd67-75bb-8215-6f9a72104705","019ce7a0-0965-7aa7-a556-174d32a8e773","","909","
            <div class=""stimulus-container"" style=""display: flex; align-items: center; justify-content: center; gap: 30px;"">
                <img src=""images/causal_sequence/package_causal/package_causal_6.png"" class=""exp-image"">
                <div style=""font-size: 40px; font-weight: bold; color: green; border: 5px solid green; padding: 25px; border-radius: 15px; background-color: #f0fff0;"">
                    WORTH<br>$1
                </div>
            </div>
            <div class=""question-area"">
                <p style=""font-size: 20px; font-weight: bold; margin: 0;"">Was there a person in this image?</p>
            </div>","0","part2_value_learning","","package_causal","6","","",""
"","","","","","html-keyboard-response","144","849703","0.0-144.0","9EDEC868D1A44566BA439970D5DB2533","019ce7b1-bd67-75bb-8215-6f9a72104705","019ce7a0-0965-7aa7-a556-174d32a8e773","","null","
            <div class=""stimulus-container"" style=""display: flex; align-items: center; justify-content: center; gap: 30px;"">
                <img src=""images/causal_sequence/dog_causal/dog_causal_5.png"" class=""exp-image"">
                <div style=""font-size: 40px; font-weight: bold; color: green; border: 5px solid green; padding: 25px; border-radius: 15px; background-color: #f0fff0;"">
                    WORTH<br>$1
                </div>
            </div>
            <div class=""question-area""></div>","null","","","","","","",""
"","","","","","html-button-response","145","850673","0.0-145.0","9EDEC868D1A44566BA439970D5DB2533","019ce7b1-bd67-75bb-8215-6f9a72104705","019ce7a0-0965-7aa7-a556-174d32a8e773","","969","
            <div class=""stimulus-container"" style=""display: flex; align-items: center; justify-content: center; gap: 30px;"">
                <img src=""images/causal_sequence/dog_causal/dog_causal_5.png"" class=""exp-image"">
                <div style=""font-size: 40px; font-weight: bold; color: green; border: 5px solid green; padding: 25px; border-radius: 15px; background-color: #f0fff0;"">
                    WORTH<br>$1
                </div>
            </div>
            <div class=""question-area"">
                <p style=""font-size: 20px; font-weight: bold; margin: 0;"">Was there a person in this image?</p>
            </div>","0","part2_value_learning","","dog_causal","5","","",""
"","","","","","instructions","146","852508","0.0-146.0","9EDEC868D1A44566BA439970D5DB2533","019ce7b1-bd67-75bb-8215-6f9a72104705","019ce7a0-0965-7aa7-a556-174d32a8e773","[{""page_index"":0,""viewing_time"":1835}]","1835","","","","","","","","",""
"","","","","","instructions","147","854858","0.0-147.0","9EDEC868D1A44566BA439970D5DB2533","019ce7b1-bd67-75bb-8215-6f9a72104705","019ce7a0-0965-7aa7-a556-174d32a8e773","[{""page_index"":0,""viewing_time"":2349}]","2350","","","","","","","","",""
"","","","","","html-keyboard-response","148","864873","0.0-148.0-0.0","9EDEC868D1A44566BA439970D5DB2533","019ce7b1-bd67-75bb-8215-6f9a72104705","019ce7a0-0965-7aa7-a556-174d32a8e773","","null","
                        <div style=""font-family: Arial; margin-bottom: 20px;""><h3>Which image is more valuable?</h3></div>
                        <div class=""stimulus-container"" style=""display: flex; width: 1100px; justify-content: center; gap: 50px;"">
                            <img src=""images/causal_sequence/the_performance_causal/the_performance_causal_4.png"" class=""exp-image"">
                            <img src=""images/causal_sequence/the_performance_causal/the_performance_causal_8.png"" class=""exp-image"">
                        </div>","null","","","","","","",""
"","","","","","html-button-response","149","866057","0.0-148.0-1.0","9EDEC868D1A44566BA439970D5DB2533","019ce7b1-bd67-75bb-8215-6f9a72104705","019ce7a0-0965-7aa7-a556-174d32a8e773","","1182","
                        <div style=""font-family: Arial; margin-bottom: 20px;""><h3>Which image is more valuable?</h3></div>
                        <div class=""stimulus-container"" style=""display: flex; width: 1100px; justify-content: center; gap: 50px;"">
                            <img src=""images/causal_sequence/the_performance_causal/the_performance_causal_4.png"" class=""exp-image"">
                            <img src=""images/causal_sequence/the_performance_causal/the_performance_causal_8.png"" class=""exp-image"">
                        </div>","1","part3_final_choice","","the_performance_causal","","6","8","2"
"","","","","","html-keyboard-response","150","876065","0.0-149.0-0.0","9EDEC868D1A44566BA439970D5DB2533","019ce7b1-bd67-75bb-8215-6f9a72104705","019ce7a0-0965-7aa7-a556-174d32a8e773","","null","
                        <div style=""font-family: Arial; margin-bottom: 20px;""><h3>Which image is more valuable?</h3></div>
                        <div class=""stimulus-container"" style=""display: flex; width: 1100px; justify-content: center; gap: 50px;"">
                            <img src=""images/causal_sequence/coin_causal/coin_causal_5.png"" class=""exp-image"">
                            <img src=""images/causal_sequence/coin_causal/coin_causal_1.png"" class=""exp-image"">
                        </div>","null","","","","","","",""
"","","","","","html-button-response","151","877072","0.0-149.0-1.0","9EDEC868D1A44566BA439970D5DB2533","019ce7b1-bd67-75bb-8215-6f9a72104705","019ce7a0-0965-7aa7-a556-174d32a8e773","","1006","
                        <div style=""font-family: Arial; margin-bottom: 20px;""><h3>Which image is more valuable?</h3></div>
                        <div class=""stimulus-container"" style=""display: flex; width: 1100px; justify-content: center; gap: 50px;"">
                            <img src=""images/causal_sequence/coin_causal/coin_causal_5.png"" class=""exp-image"">
                            <img src=""images/causal_sequence/coin_causal/coin_causal_1.png"" class=""exp-image"">
                        </div>","0","part3_final_choice","","coin_causal","","3","5","2"
"","","","","","html-keyboard-response","152","887081","0.0-150.0-0.0","9EDEC868D1A44566BA439970D5DB2533","019ce7b1-bd67-75bb-8215-6f9a72104705","019ce7a0-0965-7aa7-a556-174d32a8e773","","null","
                        <div style=""font-family: Arial; margin-bottom: 20px;""><h3>Which image is more valuable?</h3></div>
                        <div class=""stimulus-container"" style=""display: flex; width: 1100px; justify-content: center; gap: 50px;"">
                            <img src=""images/causal_sequence/museum_causal/museum_causal_5.png"" class=""exp-image"">
                            <img src=""images/causal_sequence/museum_causal/museum_causal_1.png"" class=""exp-image"">
                        </div>","null","","","","","","",""
"","","","","","html-button-response","153","888171","0.0-150.0-1.0","9EDEC868D1A44566BA439970D5DB2533","019ce7b1-bd67-75bb-8215-6f9a72104705","019ce7a0-0965-7aa7-a556-174d32a8e773","","1089","
                        <div style=""font-family: Arial; margin-bottom: 20px;""><h3>Which image is more valuable?</h3></div>
                        <div class=""stimulus-container"" style=""display: flex; width: 1100px; justify-content: center; gap: 50px;"">
                            <img src=""images/causal_sequence/museum_causal/museum_causal_5.png"" class=""exp-image"">
                            <img src=""images/causal_sequence/museum_causal/museum_causal_1.png"" class=""exp-image"">
                        </div>","0","part3_final_choice","","museum_causal","","3","5","2"
"","","","","","html-keyboard-response","154","898176","0.0-151.0-0.0","9EDEC868D1A44566BA439970D5DB2533","019ce7b1-bd67-75bb-8215-6f9a72104705","019ce7a0-0965-7aa7-a556-174d32a8e773","","null","
                        <div style=""font-family: Arial; margin-bottom: 20px;""><h3>Which image is more valuable?</h3></div>
                        <div class=""stimulus-container"" style=""display: flex; width: 1100px; justify-content: center; gap: 50px;"">
                            <img src=""images/causal_sequence/package_causal/package_causal_4.png"" class=""exp-image"">
                            <img src=""images/causal_sequence/package_causal/package_causal_8.png"" class=""exp-image"">
                        </div>","null","","","","","","",""
"","","","","","html-button-response","155","899189","0.0-151.0-1.0","9EDEC868D1A44566BA439970D5DB2533","019ce7b1-bd67-75bb-8215-6f9a72104705","019ce7a0-0965-7aa7-a556-174d32a8e773","","1012","
                        <div style=""font-family: Arial; margin-bottom: 20px;""><h3>Which image is more valuable?</h3></div>
                        <div class=""stimulus-container"" style=""display: flex; width: 1100px; justify-content: center; gap: 50px;"">
                            <img src=""images/causal_sequence/package_causal/package_causal_4.png"" class=""exp-image"">
                            <img src=""images/causal_sequence/package_causal/package_causal_8.png"" class=""exp-image"">
                        </div>","1","part3_final_choice","","package_causal","","6","8","2"
"","","","","","html-keyboard-response","156","909194","0.0-152.0-0.0","9EDEC868D1A44566BA439970D5DB2533","019ce7b1-bd67-75bb-8215-6f9a72104705","019ce7a0-0965-7aa7-a556-174d32a8e773","","null","
                        <div style=""font-family: Arial; margin-bottom: 20px;""><h3>Which image is more valuable?</h3></div>
                        <div class=""stimulus-container"" style=""display: flex; width: 1100px; justify-content: center; gap: 50px;"">
                            <img src=""images/causal_sequence/dog_causal/dog_causal_3.png"" class=""exp-image"">
                            <img src=""images/causal_sequence/dog_causal/dog_causal_7.png"" class=""exp-image"">
                        </div>","null","","","","","","",""
"","","","","","html-button-response","157","911521","0.0-152.0-1.0","9EDEC868D1A44566BA439970D5DB2533","019ce7b1-bd67-75bb-8215-6f9a72104705","019ce7a0-0965-7aa7-a556-174d32a8e773","","2327","
                        <div style=""font-family: Arial; margin-bottom: 20px;""><h3>Which image is more valuable?</h3></div>
                        <div class=""stimulus-container"" style=""display: flex; width: 1100px; justify-content: center; gap: 50px;"">
                            <img src=""images/causal_sequence/dog_causal/dog_causal_3.png"" class=""exp-image"">
                            <img src=""images/causal_sequence/dog_causal/dog_causal_7.png"" class=""exp-image"">
                        </div>","0","part3_final_choice","","dog_causal","","5","3","-2"
"","","","","","html-keyboard-response","158","921523","0.0-153.0-0.0","9EDEC868D1A44566BA439970D5DB2533","019ce7b1-bd67-75bb-8215-6f9a72104705","019ce7a0-0965-7aa7-a556-174d32a8e773","","null","
                        <div style=""font-family: Arial; margin-bottom: 20px;""><h3>Which image is more valuable?</h3></div>
                        <div class=""stimulus-container"" style=""display: flex; width: 1100px; justify-content: center; gap: 50px;"">
                            <img src=""images/causal_sequence/saving_a_cat_causal/saving_a_cat_causal_8.png"" class=""exp-image"">
                            <img src=""images/causal_sequence/saving_a_cat_causal/saving_a_cat_causal_4.png"" class=""exp-image"">
                        </div>","null","","","","","","",""
"","","","","","html-button-response","159","922623","0.0-153.0-1.0","9EDEC868D1A44566BA439970D5DB2533","019ce7b1-bd67-75bb-8215-6f9a72104705","019ce7a0-0965-7aa7-a556-174d32a8e773","","1099","
                        <div style=""font-family: Arial; margin-bottom: 20px;""><h3>Which image is more valuable?</h3></div>
                        <div class=""stimulus-container"" style=""display: flex; width: 1100px; justify-content: center; gap: 50px;"">
                            <img src=""images/causal_sequence/saving_a_cat_causal/saving_a_cat_causal_8.png"" class=""exp-image"">
                            <img src=""images/causal_sequence/saving_a_cat_causal/saving_a_cat_causal_4.png"" class=""exp-image"">
                        </div>","0","part3_final_choice","","saving_a_cat_causal","","6","8","2"
"","","","","","survey-text","160","947218","0.0-154.0","9EDEC868D1A44566BA439970D5DB2533","019ce7b1-bd67-75bb-8215-6f9a72104705","019ce7a0-0965-7aa7-a556-174d32a8e773","","24588","","{""gender"":""Female"",""age"":""31"",""decision_strategy"":""based on what was happening "",""consistency_check"":""same set of logic!""}","demographics_and_strategy","","","","","",""
"","","","","","instructions","161","953674","0.0-155.0","9EDEC868D1A44566BA439970D5DB2533","019ce7b1-bd67-75bb-8215-6f9a72104705","019ce7a0-0965-7aa7-a556-174d32a8e773","[{""page_index"":0,""viewing_time"":6456}]","6456","","","","","","","","",""
