"success","timeout","failed_images","failed_audio","failed_video","trial_type","trial_index","time_elapsed","internal_node_id","subject_id","study_id","session_id","view_history","rt","stimulus","response","task","image_index","folder","sequence_type","presentation_order","valuable_image_index","reward_type","distance_from_x","target_X","chosen_image_index","is_x_plus_dist","correct_choice"
"true","false","[]","[]","[]","preload","0","19058","0.0-0.0","93E210356AE04741BCEB79430C16C38E","019daca4-7943-7729-a325-3c78911a212a","019dac5b-243f-7307-af64-a10f53f1ef70","","","","","","","","","","","","","","","",""
"","","","","","instructions","1","24568","0.0-1.0","93E210356AE04741BCEB79430C16C38E","019daca4-7943-7729-a325-3c78911a212a","019dac5b-243f-7307-af64-a10f53f1ef70","[{""page_index"":0,""viewing_time"":5509}]","5509","","","","","","","","","","","","","",""
"","","","","","instructions","2","40629","0.0-2.0","93E210356AE04741BCEB79430C16C38E","019daca4-7943-7729-a325-3c78911a212a","019dac5b-243f-7307-af64-a10f53f1ef70","[{""page_index"":0,""viewing_time"":16061}]","16061","","","","","","","","","","","","","",""
"true","","","","","fullscreen","3","48394","0.0-3.0","93E210356AE04741BCEB79430C16C38E","019daca4-7943-7729-a325-3c78911a212a","019dac5b-243f-7307-af64-a10f53f1ef70","","6762","","","","","","","","","","","","","",""
"","","","","","instructions","4","75888","0.0-4.0","93E210356AE04741BCEB79430C16C38E","019daca4-7943-7729-a325-3c78911a212a","019dac5b-243f-7307-af64-a10f53f1ef70","[{""page_index"":0,""viewing_time"":27494}]","27494","","","","","","","","","","","","","",""
"","","","","","instructions","5","104260","0.0-5.0","93E210356AE04741BCEB79430C16C38E","019daca4-7943-7729-a325-3c78911a212a","019dac5b-243f-7307-af64-a10f53f1ef70","[{""page_index"":0,""viewing_time"":28371}]","28372","","","","","","","","","","","","","",""
"","","","","","html-keyboard-response","6","108276","0.0-6.0","93E210356AE04741BCEB79430C16C38E","019daca4-7943-7729-a325-3c78911a212a","019dac5b-243f-7307-af64-a10f53f1ef70","","null","
                <div class=""stimulus-container"">
                    <img src=""images/instructions/movie_1.png"" class=""exp-image"">
                    <div class=""question-area""></div> 
                </div>","null","","","","","","","","","","","",""
"","","","","","html-button-response","7","110013","0.0-7.0","93E210356AE04741BCEB79430C16C38E","019daca4-7943-7729-a325-3c78911a212a","019dac5b-243f-7307-af64-a10f53f1ef70","","1735","
                <div class=""stimulus-container"">
                    <img src=""images/instructions/movie_1.png"" class=""exp-image"">
                    <div class=""question-area"">
                        <p style=""font-size: 20px; font-weight: bold; margin: 0;"">Was there a person in this image?</p>
                    </div>
                </div>","0","example_question","1","","","","","","","","","",""
"","","","","","html-keyboard-response","8","114030","0.0-8.0","93E210356AE04741BCEB79430C16C38E","019daca4-7943-7729-a325-3c78911a212a","019dac5b-243f-7307-af64-a10f53f1ef70","","null","
                <div class=""stimulus-container"">
                    <img src=""images/instructions/movie_2.png"" class=""exp-image"">
                    <div class=""question-area""></div> 
                </div>","null","","","","","","","","","","","",""
"","","","","","html-button-response","9","114770","0.0-9.0","93E210356AE04741BCEB79430C16C38E","019daca4-7943-7729-a325-3c78911a212a","019dac5b-243f-7307-af64-a10f53f1ef70","","738","
                <div class=""stimulus-container"">
                    <img src=""images/instructions/movie_2.png"" class=""exp-image"">
                    <div class=""question-area"">
                        <p style=""font-size: 20px; font-weight: bold; margin: 0;"">Was there a person in this image?</p>
                    </div>
                </div>","0","example_question","2","","","","","","","","","",""
"","","","","","html-keyboard-response","10","118773","0.0-10.0","93E210356AE04741BCEB79430C16C38E","019daca4-7943-7729-a325-3c78911a212a","019dac5b-243f-7307-af64-a10f53f1ef70","","null","
                <div class=""stimulus-container"">
                    <img src=""images/instructions/movie_3.png"" class=""exp-image"">
                    <div class=""question-area""></div> 
                </div>","null","","","","","","","","","","","",""
"","","","","","html-button-response","11","119453","0.0-11.0","93E210356AE04741BCEB79430C16C38E","019daca4-7943-7729-a325-3c78911a212a","019dac5b-243f-7307-af64-a10f53f1ef70","","678","
                <div class=""stimulus-container"">
                    <img src=""images/instructions/movie_3.png"" class=""exp-image"">
                    <div class=""question-area"">
                        <p style=""font-size: 20px; font-weight: bold; margin: 0;"">Was there a person in this image?</p>
                    </div>
                </div>","0","example_question","3","","","","","","","","","",""
"","","","","","html-keyboard-response","12","123465","0.0-12.0","93E210356AE04741BCEB79430C16C38E","019daca4-7943-7729-a325-3c78911a212a","019dac5b-243f-7307-af64-a10f53f1ef70","","null","
                <div class=""stimulus-container"">
                    <img src=""images/instructions/movie_4.png"" class=""exp-image"">
                    <div class=""question-area""></div> 
                </div>","null","","","","","","","","","","","",""
"","","","","","html-button-response","13","124101","0.0-13.0","93E210356AE04741BCEB79430C16C38E","019daca4-7943-7729-a325-3c78911a212a","019dac5b-243f-7307-af64-a10f53f1ef70","","635","
                <div class=""stimulus-container"">
                    <img src=""images/instructions/movie_4.png"" class=""exp-image"">
                    <div class=""question-area"">
                        <p style=""font-size: 20px; font-weight: bold; margin: 0;"">Was there a person in this image?</p>
                    </div>
                </div>","0","example_question","4","","","","","","","","","",""
"","","","","","instructions","14","126468","0.0-14.0","93E210356AE04741BCEB79430C16C38E","019daca4-7943-7729-a325-3c78911a212a","019dac5b-243f-7307-af64-a10f53f1ef70","[{""page_index"":0,""viewing_time"":2367}]","2367","","","","","","","","","","","","","",""
"","","","","","instructions","15","132422","0.0-15.0","93E210356AE04741BCEB79430C16C38E","019daca4-7943-7729-a325-3c78911a212a","019dac5b-243f-7307-af64-a10f53f1ef70","[{""page_index"":0,""viewing_time"":5954}]","5954","","","","","","","","","","","","","",""
"","","","","","html-keyboard-response","16","137424","0.0-16.0","93E210356AE04741BCEB79430C16C38E","019daca4-7943-7729-a325-3c78911a212a","019dac5b-243f-7307-af64-a10f53f1ef70","","null","<div style=""background-color: white; width: 100vw; height: 100vh;""></div>","null","","","","","","","","","","","",""
"","","","","","html-keyboard-response","17","142427","0.0-17.0","93E210356AE04741BCEB79430C16C38E","019daca4-7943-7729-a325-3c78911a212a","019dac5b-243f-7307-af64-a10f53f1ef70","","null","
                <div class=""stimulus-container"">
                    <img src=""images/causal_sequence/coin_causal/coin_causal_1.png"" class=""exp-image"">
                    <div class=""question-area""></div> 
                </div>","null","","","","","","","","","","","",""
"","","","","","html-button-response","18","143359","0.0-18.0","93E210356AE04741BCEB79430C16C38E","019daca4-7943-7729-a325-3c78911a212a","019dac5b-243f-7307-af64-a10f53f1ef70","","931","
                <div class=""stimulus-container"">
                    <img src=""images/causal_sequence/coin_causal/coin_causal_1.png"" class=""exp-image"">
                    <div class=""question-area"">
                        <p style=""font-size: 20px; font-weight: bold; margin: 0;"">Is there a person in this image?</p>
                    </div>
                </div>","0","main_experiment_trial","1","coin_causal","causal_sequence","chronological","","","","","","",""
"","","","","","html-keyboard-response","19","148373","0.0-19.0","93E210356AE04741BCEB79430C16C38E","019daca4-7943-7729-a325-3c78911a212a","019dac5b-243f-7307-af64-a10f53f1ef70","","null","
                <div class=""stimulus-container"">
                    <img src=""images/causal_sequence/coin_causal/coin_causal_2.png"" class=""exp-image"">
                    <div class=""question-area""></div> 
                </div>","null","","","","","","","","","","","",""
"","","","","","html-button-response","20","150077","0.0-20.0","93E210356AE04741BCEB79430C16C38E","019daca4-7943-7729-a325-3c78911a212a","019dac5b-243f-7307-af64-a10f53f1ef70","","1703","
                <div class=""stimulus-container"">
                    <img src=""images/causal_sequence/coin_causal/coin_causal_2.png"" class=""exp-image"">
                    <div class=""question-area"">
                        <p style=""font-size: 20px; font-weight: bold; margin: 0;"">Is there a person in this image?</p>
                    </div>
                </div>","0","main_experiment_trial","2","coin_causal","causal_sequence","chronological","","","","","","",""
"","","","","","html-keyboard-response","21","155095","0.0-21.0","93E210356AE04741BCEB79430C16C38E","019daca4-7943-7729-a325-3c78911a212a","019dac5b-243f-7307-af64-a10f53f1ef70","","null","
                <div class=""stimulus-container"">
                    <img src=""images/causal_sequence/coin_causal/coin_causal_3.png"" class=""exp-image"">
                    <div class=""question-area""></div> 
                </div>","null","","","","","","","","","","","",""
"","","","","","html-button-response","22","155844","0.0-22.0","93E210356AE04741BCEB79430C16C38E","019daca4-7943-7729-a325-3c78911a212a","019dac5b-243f-7307-af64-a10f53f1ef70","","747","
                <div class=""stimulus-container"">
                    <img src=""images/causal_sequence/coin_causal/coin_causal_3.png"" class=""exp-image"">
                    <div class=""question-area"">
                        <p style=""font-size: 20px; font-weight: bold; margin: 0;"">Is there a person in this image?</p>
                    </div>
                </div>","0","main_experiment_trial","3","coin_causal","causal_sequence","chronological","","","","","","",""
"","","","","","html-keyboard-response","23","160848","0.0-23.0","93E210356AE04741BCEB79430C16C38E","019daca4-7943-7729-a325-3c78911a212a","019dac5b-243f-7307-af64-a10f53f1ef70","","null","
                <div class=""stimulus-container"">
                    <img src=""images/causal_sequence/coin_causal/coin_causal_4.png"" class=""exp-image"">
                    <div class=""question-area""></div> 
                </div>","null","","","","","","","","","","","",""
"","","","","","html-button-response","24","162914","0.0-24.0","93E210356AE04741BCEB79430C16C38E","019daca4-7943-7729-a325-3c78911a212a","019dac5b-243f-7307-af64-a10f53f1ef70","","2066","
                <div class=""stimulus-container"">
                    <img src=""images/causal_sequence/coin_causal/coin_causal_4.png"" class=""exp-image"">
                    <div class=""question-area"">
                        <p style=""font-size: 20px; font-weight: bold; margin: 0;"">Is there a person in this image?</p>
                    </div>
                </div>","0","main_experiment_trial","4","coin_causal","causal_sequence","chronological","","","","","","",""
"","","","","","html-keyboard-response","25","167916","0.0-25.0","93E210356AE04741BCEB79430C16C38E","019daca4-7943-7729-a325-3c78911a212a","019dac5b-243f-7307-af64-a10f53f1ef70","","null","
                <div class=""stimulus-container"">
                    <img src=""images/causal_sequence/coin_causal/coin_causal_5.png"" class=""exp-image"">
                    <div class=""question-area""></div> 
                </div>","null","","","","","","","","","","","",""
"","","","","","html-button-response","26","168910","0.0-26.0","93E210356AE04741BCEB79430C16C38E","019daca4-7943-7729-a325-3c78911a212a","019dac5b-243f-7307-af64-a10f53f1ef70","","992","
                <div class=""stimulus-container"">
                    <img src=""images/causal_sequence/coin_causal/coin_causal_5.png"" class=""exp-image"">
                    <div class=""question-area"">
                        <p style=""font-size: 20px; font-weight: bold; margin: 0;"">Is there a person in this image?</p>
                    </div>
                </div>","0","main_experiment_trial","5","coin_causal","causal_sequence","chronological","","","","","","",""
"","","","","","html-keyboard-response","27","173912","0.0-27.0","93E210356AE04741BCEB79430C16C38E","019daca4-7943-7729-a325-3c78911a212a","019dac5b-243f-7307-af64-a10f53f1ef70","","null","
                <div class=""stimulus-container"">
                    <img src=""images/causal_sequence/coin_causal/coin_causal_6.png"" class=""exp-image"">
                    <div class=""question-area""></div> 
                </div>","null","","","","","","","","","","","",""
"","","","","","html-button-response","28","174762","0.0-28.0","93E210356AE04741BCEB79430C16C38E","019daca4-7943-7729-a325-3c78911a212a","019dac5b-243f-7307-af64-a10f53f1ef70","","849","
                <div class=""stimulus-container"">
                    <img src=""images/causal_sequence/coin_causal/coin_causal_6.png"" class=""exp-image"">
                    <div class=""question-area"">
                        <p style=""font-size: 20px; font-weight: bold; margin: 0;"">Is there a person in this image?</p>
                    </div>
                </div>","0","main_experiment_trial","6","coin_causal","causal_sequence","chronological","","","","","","",""
"","","","","","html-keyboard-response","29","179774","0.0-29.0","93E210356AE04741BCEB79430C16C38E","019daca4-7943-7729-a325-3c78911a212a","019dac5b-243f-7307-af64-a10f53f1ef70","","null","
                <div class=""stimulus-container"">
                    <img src=""images/causal_sequence/coin_causal/coin_causal_7.png"" class=""exp-image"">
                    <div class=""question-area""></div> 
                </div>","null","","","","","","","","","","","",""
"","","","","","html-button-response","30","180558","0.0-30.0","93E210356AE04741BCEB79430C16C38E","019daca4-7943-7729-a325-3c78911a212a","019dac5b-243f-7307-af64-a10f53f1ef70","","783","
                <div class=""stimulus-container"">
                    <img src=""images/causal_sequence/coin_causal/coin_causal_7.png"" class=""exp-image"">
                    <div class=""question-area"">
                        <p style=""font-size: 20px; font-weight: bold; margin: 0;"">Is there a person in this image?</p>
                    </div>
                </div>","1","main_experiment_trial","7","coin_causal","causal_sequence","chronological","","","","","","",""
"","","","","","html-keyboard-response","31","185567","0.0-31.0","93E210356AE04741BCEB79430C16C38E","019daca4-7943-7729-a325-3c78911a212a","019dac5b-243f-7307-af64-a10f53f1ef70","","null","
                <div class=""stimulus-container"">
                    <img src=""images/causal_sequence/coin_causal/coin_causal_8.png"" class=""exp-image"">
                    <div class=""question-area""></div> 
                </div>","null","","","","","","","","","","","",""
"","","","","","html-button-response","32","187026","0.0-32.0","93E210356AE04741BCEB79430C16C38E","019daca4-7943-7729-a325-3c78911a212a","019dac5b-243f-7307-af64-a10f53f1ef70","","1458","
                <div class=""stimulus-container"">
                    <img src=""images/causal_sequence/coin_causal/coin_causal_8.png"" class=""exp-image"">
                    <div class=""question-area"">
                        <p style=""font-size: 20px; font-weight: bold; margin: 0;"">Is there a person in this image?</p>
                    </div>
                </div>","0","main_experiment_trial","8","coin_causal","causal_sequence","chronological","","","","","","",""
"","","","","","html-keyboard-response","33","192036","0.0-33.0","93E210356AE04741BCEB79430C16C38E","019daca4-7943-7729-a325-3c78911a212a","019dac5b-243f-7307-af64-a10f53f1ef70","","null","
                <div class=""stimulus-container"">
                    <img src=""images/causal_sequence/coin_causal/coin_causal_9.png"" class=""exp-image"">
                    <div class=""question-area""></div> 
                </div>","null","","","","","","","","","","","",""
"","","","","","html-button-response","34","192971","0.0-34.0","93E210356AE04741BCEB79430C16C38E","019daca4-7943-7729-a325-3c78911a212a","019dac5b-243f-7307-af64-a10f53f1ef70","","934","
                <div class=""stimulus-container"">
                    <img src=""images/causal_sequence/coin_causal/coin_causal_9.png"" class=""exp-image"">
                    <div class=""question-area"">
                        <p style=""font-size: 20px; font-weight: bold; margin: 0;"">Is there a person in this image?</p>
                    </div>
                </div>","0","main_experiment_trial","9","coin_causal","causal_sequence","chronological","","","","","","",""
"","","","","","html-keyboard-response","35","197982","0.0-35.0","93E210356AE04741BCEB79430C16C38E","019daca4-7943-7729-a325-3c78911a212a","019dac5b-243f-7307-af64-a10f53f1ef70","","null","
                <div class=""stimulus-container"">
                    <img src=""images/causal_sequence/coin_causal/coin_causal_ten.png"" class=""exp-image"">
                    <div class=""question-area""></div> 
                </div>","null","","","","","","","","","","","",""
"","","","","","html-button-response","36","199712","0.0-36.0","93E210356AE04741BCEB79430C16C38E","019daca4-7943-7729-a325-3c78911a212a","019dac5b-243f-7307-af64-a10f53f1ef70","","1729","
                <div class=""stimulus-container"">
                    <img src=""images/causal_sequence/coin_causal/coin_causal_ten.png"" class=""exp-image"">
                    <div class=""question-area"">
                        <p style=""font-size: 20px; font-weight: bold; margin: 0;"">Is there a person in this image?</p>
                    </div>
                </div>","0","main_experiment_trial","ten","coin_causal","causal_sequence","chronological","","","","","","",""
"","","","","","html-keyboard-response","37","204725","0.0-37.0","93E210356AE04741BCEB79430C16C38E","019daca4-7943-7729-a325-3c78911a212a","019dac5b-243f-7307-af64-a10f53f1ef70","","null","<div style=""background-color: white; width: 100vw; height: 100vh;""></div>","null","","","","","","","","","","","",""
"","","","","","html-keyboard-response","38","209733","0.0-38.0","93E210356AE04741BCEB79430C16C38E","019daca4-7943-7729-a325-3c78911a212a","019dac5b-243f-7307-af64-a10f53f1ef70","","null","
                <div class=""stimulus-container"">
                    <img src=""images/semantic_sequence/visiting_cities_semantic/visiting_cities_semantic_1.png"" class=""exp-image"">
                    <div class=""question-area""></div> 
                </div>","null","","","","","","","","","","","",""
"","","","","","html-button-response","39","210718","0.0-39.0","93E210356AE04741BCEB79430C16C38E","019daca4-7943-7729-a325-3c78911a212a","019dac5b-243f-7307-af64-a10f53f1ef70","","984","
                <div class=""stimulus-container"">
                    <img src=""images/semantic_sequence/visiting_cities_semantic/visiting_cities_semantic_1.png"" class=""exp-image"">
                    <div class=""question-area"">
                        <p style=""font-size: 20px; font-weight: bold; margin: 0;"">Is there a person in this image?</p>
                    </div>
                </div>","0","main_experiment_trial","1","visiting_cities_semantic","semantic_sequence","chronological","","","","","","",""
"","","","","","html-keyboard-response","40","215722","0.0-40.0","93E210356AE04741BCEB79430C16C38E","019daca4-7943-7729-a325-3c78911a212a","019dac5b-243f-7307-af64-a10f53f1ef70","","null","
                <div class=""stimulus-container"">
                    <img src=""images/semantic_sequence/visiting_cities_semantic/visiting_cities_semantic_2.png"" class=""exp-image"">
                    <div class=""question-area""></div> 
                </div>","null","","","","","","","","","","","",""
"","","","","","html-button-response","41","216542","0.0-41.0","93E210356AE04741BCEB79430C16C38E","019daca4-7943-7729-a325-3c78911a212a","019dac5b-243f-7307-af64-a10f53f1ef70","","819","
                <div class=""stimulus-container"">
                    <img src=""images/semantic_sequence/visiting_cities_semantic/visiting_cities_semantic_2.png"" class=""exp-image"">
                    <div class=""question-area"">
                        <p style=""font-size: 20px; font-weight: bold; margin: 0;"">Is there a person in this image?</p>
                    </div>
                </div>","1","main_experiment_trial","2","visiting_cities_semantic","semantic_sequence","chronological","","","","","","",""
"","","","","","html-keyboard-response","42","221559","0.0-42.0","93E210356AE04741BCEB79430C16C38E","019daca4-7943-7729-a325-3c78911a212a","019dac5b-243f-7307-af64-a10f53f1ef70","","null","
                <div class=""stimulus-container"">
                    <img src=""images/semantic_sequence/visiting_cities_semantic/visiting_cities_semantic_3.png"" class=""exp-image"">
                    <div class=""question-area""></div> 
                </div>","null","","","","","","","","","","","",""
"","","","","","html-button-response","43","222495","0.0-43.0","93E210356AE04741BCEB79430C16C38E","019daca4-7943-7729-a325-3c78911a212a","019dac5b-243f-7307-af64-a10f53f1ef70","","935","
                <div class=""stimulus-container"">
                    <img src=""images/semantic_sequence/visiting_cities_semantic/visiting_cities_semantic_3.png"" class=""exp-image"">
                    <div class=""question-area"">
                        <p style=""font-size: 20px; font-weight: bold; margin: 0;"">Is there a person in this image?</p>
                    </div>
                </div>","1","main_experiment_trial","3","visiting_cities_semantic","semantic_sequence","chronological","","","","","","",""
"","","","","","html-keyboard-response","44","227499","0.0-44.0","93E210356AE04741BCEB79430C16C38E","019daca4-7943-7729-a325-3c78911a212a","019dac5b-243f-7307-af64-a10f53f1ef70","","null","
                <div class=""stimulus-container"">
                    <img src=""images/semantic_sequence/visiting_cities_semantic/visiting_cities_semantic_4.png"" class=""exp-image"">
                    <div class=""question-area""></div> 
                </div>","null","","","","","","","","","","","",""
"","","","","","html-button-response","45","230305","0.0-45.0","93E210356AE04741BCEB79430C16C38E","019daca4-7943-7729-a325-3c78911a212a","019dac5b-243f-7307-af64-a10f53f1ef70","","2805","
                <div class=""stimulus-container"">
                    <img src=""images/semantic_sequence/visiting_cities_semantic/visiting_cities_semantic_4.png"" class=""exp-image"">
                    <div class=""question-area"">
                        <p style=""font-size: 20px; font-weight: bold; margin: 0;"">Is there a person in this image?</p>
                    </div>
                </div>","1","main_experiment_trial","4","visiting_cities_semantic","semantic_sequence","chronological","","","","","","",""
"","","","","","html-keyboard-response","46","235307","0.0-46.0","93E210356AE04741BCEB79430C16C38E","019daca4-7943-7729-a325-3c78911a212a","019dac5b-243f-7307-af64-a10f53f1ef70","","null","
                <div class=""stimulus-container"">
                    <img src=""images/semantic_sequence/visiting_cities_semantic/visiting_cities_semantic_5.png"" class=""exp-image"">
                    <div class=""question-area""></div> 
                </div>","null","","","","","","","","","","","",""
"","","","","","html-button-response","47","238322","0.0-47.0","93E210356AE04741BCEB79430C16C38E","019daca4-7943-7729-a325-3c78911a212a","019dac5b-243f-7307-af64-a10f53f1ef70","","null","
                <div class=""stimulus-container"">
                    <img src=""images/semantic_sequence/visiting_cities_semantic/visiting_cities_semantic_5.png"" class=""exp-image"">
                    <div class=""question-area"">
                        <p style=""font-size: 20px; font-weight: bold; margin: 0;"">Is there a person in this image?</p>
                    </div>
                </div>","null","main_experiment_trial","5","visiting_cities_semantic","semantic_sequence","chronological","","","","","","",""
"","","","","","html-keyboard-response","48","243337","0.0-48.0","93E210356AE04741BCEB79430C16C38E","019daca4-7943-7729-a325-3c78911a212a","019dac5b-243f-7307-af64-a10f53f1ef70","","null","
                <div class=""stimulus-container"">
                    <img src=""images/semantic_sequence/visiting_cities_semantic/visiting_cities_semantic_6.png"" class=""exp-image"">
                    <div class=""question-area""></div> 
                </div>","null","","","","","","","","","","","",""
"","","","","","html-button-response","49","246342","0.0-49.0","93E210356AE04741BCEB79430C16C38E","019daca4-7943-7729-a325-3c78911a212a","019dac5b-243f-7307-af64-a10f53f1ef70","","null","
                <div class=""stimulus-container"">
                    <img src=""images/semantic_sequence/visiting_cities_semantic/visiting_cities_semantic_6.png"" class=""exp-image"">
                    <div class=""question-area"">
                        <p style=""font-size: 20px; font-weight: bold; margin: 0;"">Is there a person in this image?</p>
                    </div>
                </div>","null","main_experiment_trial","6","visiting_cities_semantic","semantic_sequence","chronological","","","","","","",""
"","","","","","html-keyboard-response","50","251358","0.0-50.0","93E210356AE04741BCEB79430C16C38E","019daca4-7943-7729-a325-3c78911a212a","019dac5b-243f-7307-af64-a10f53f1ef70","","null","
                <div class=""stimulus-container"">
                    <img src=""images/semantic_sequence/visiting_cities_semantic/visiting_cities_semantic_7.png"" class=""exp-image"">
                    <div class=""question-area""></div> 
                </div>","null","","","","","","","","","","","",""
"","","","","","html-button-response","51","253053","0.0-51.0","93E210356AE04741BCEB79430C16C38E","019daca4-7943-7729-a325-3c78911a212a","019dac5b-243f-7307-af64-a10f53f1ef70","","1693","
                <div class=""stimulus-container"">
                    <img src=""images/semantic_sequence/visiting_cities_semantic/visiting_cities_semantic_7.png"" class=""exp-image"">
                    <div class=""question-area"">
                        <p style=""font-size: 20px; font-weight: bold; margin: 0;"">Is there a person in this image?</p>
                    </div>
                </div>","0","main_experiment_trial","7","visiting_cities_semantic","semantic_sequence","chronological","","","","","","",""
"","","","","","html-keyboard-response","52","258063","0.0-52.0","93E210356AE04741BCEB79430C16C38E","019daca4-7943-7729-a325-3c78911a212a","019dac5b-243f-7307-af64-a10f53f1ef70","","null","
                <div class=""stimulus-container"">
                    <img src=""images/semantic_sequence/visiting_cities_semantic/visiting_cities_semantic_8.png"" class=""exp-image"">
                    <div class=""question-area""></div> 
                </div>","null","","","","","","","","","","","",""
"","","","","","html-button-response","53","260031","0.0-53.0","93E210356AE04741BCEB79430C16C38E","019daca4-7943-7729-a325-3c78911a212a","019dac5b-243f-7307-af64-a10f53f1ef70","","1968","
                <div class=""stimulus-container"">
                    <img src=""images/semantic_sequence/visiting_cities_semantic/visiting_cities_semantic_8.png"" class=""exp-image"">
                    <div class=""question-area"">
                        <p style=""font-size: 20px; font-weight: bold; margin: 0;"">Is there a person in this image?</p>
                    </div>
                </div>","0","main_experiment_trial","8","visiting_cities_semantic","semantic_sequence","chronological","","","","","","",""
"","","","","","html-keyboard-response","54","265036","0.0-54.0","93E210356AE04741BCEB79430C16C38E","019daca4-7943-7729-a325-3c78911a212a","019dac5b-243f-7307-af64-a10f53f1ef70","","null","
                <div class=""stimulus-container"">
                    <img src=""images/semantic_sequence/visiting_cities_semantic/visiting_cities_semantic_9.png"" class=""exp-image"">
                    <div class=""question-area""></div> 
                </div>","null","","","","","","","","","","","",""
"","","","","","html-button-response","55","266128","0.0-55.0","93E210356AE04741BCEB79430C16C38E","019daca4-7943-7729-a325-3c78911a212a","019dac5b-243f-7307-af64-a10f53f1ef70","","1091","
                <div class=""stimulus-container"">
                    <img src=""images/semantic_sequence/visiting_cities_semantic/visiting_cities_semantic_9.png"" class=""exp-image"">
                    <div class=""question-area"">
                        <p style=""font-size: 20px; font-weight: bold; margin: 0;"">Is there a person in this image?</p>
                    </div>
                </div>","0","main_experiment_trial","9","visiting_cities_semantic","semantic_sequence","chronological","","","","","","",""
"","","","","","html-keyboard-response","56","271136","0.0-56.0","93E210356AE04741BCEB79430C16C38E","019daca4-7943-7729-a325-3c78911a212a","019dac5b-243f-7307-af64-a10f53f1ef70","","null","
                <div class=""stimulus-container"">
                    <img src=""images/semantic_sequence/visiting_cities_semantic/visiting_cities_semantic_ten.png"" class=""exp-image"">
                    <div class=""question-area""></div> 
                </div>","null","","","","","","","","","","","",""
"","","","","","html-button-response","57","271930","0.0-57.0","93E210356AE04741BCEB79430C16C38E","019daca4-7943-7729-a325-3c78911a212a","019dac5b-243f-7307-af64-a10f53f1ef70","","793","
                <div class=""stimulus-container"">
                    <img src=""images/semantic_sequence/visiting_cities_semantic/visiting_cities_semantic_ten.png"" class=""exp-image"">
                    <div class=""question-area"">
                        <p style=""font-size: 20px; font-weight: bold; margin: 0;"">Is there a person in this image?</p>
                    </div>
                </div>","1","main_experiment_trial","ten","visiting_cities_semantic","semantic_sequence","chronological","","","","","","",""
"","","","","","html-keyboard-response","58","276933","0.0-58.0","93E210356AE04741BCEB79430C16C38E","019daca4-7943-7729-a325-3c78911a212a","019dac5b-243f-7307-af64-a10f53f1ef70","","null","<div style=""background-color: white; width: 100vw; height: 100vh;""></div>","null","","","","","","","","","","","",""
"","","","","","html-keyboard-response","59","281942","0.0-59.0","93E210356AE04741BCEB79430C16C38E","019daca4-7943-7729-a325-3c78911a212a","019dac5b-243f-7307-af64-a10f53f1ef70","","null","
                <div class=""stimulus-container"">
                    <img src=""images/causal_sequence/saving_a_cat_causal/saving_a_cat_causal_1.png"" class=""exp-image"">
                    <div class=""question-area""></div> 
                </div>","null","","","","","","","","","","","",""
"","","","","","html-button-response","60","282748","0.0-60.0","93E210356AE04741BCEB79430C16C38E","019daca4-7943-7729-a325-3c78911a212a","019dac5b-243f-7307-af64-a10f53f1ef70","","806","
                <div class=""stimulus-container"">
                    <img src=""images/causal_sequence/saving_a_cat_causal/saving_a_cat_causal_1.png"" class=""exp-image"">
                    <div class=""question-area"">
                        <p style=""font-size: 20px; font-weight: bold; margin: 0;"">Is there a person in this image?</p>
                    </div>
                </div>","0","main_experiment_trial","1","saving_a_cat_causal","causal_sequence","chronological","","","","","","",""
"","","","","","html-keyboard-response","61","287753","0.0-61.0","93E210356AE04741BCEB79430C16C38E","019daca4-7943-7729-a325-3c78911a212a","019dac5b-243f-7307-af64-a10f53f1ef70","","null","
                <div class=""stimulus-container"">
                    <img src=""images/causal_sequence/saving_a_cat_causal/saving_a_cat_causal_2.png"" class=""exp-image"">
                    <div class=""question-area""></div> 
                </div>","null","","","","","","","","","","","",""
"","","","","","html-button-response","62","289072","0.0-62.0","93E210356AE04741BCEB79430C16C38E","019daca4-7943-7729-a325-3c78911a212a","019dac5b-243f-7307-af64-a10f53f1ef70","","1317","
                <div class=""stimulus-container"">
                    <img src=""images/causal_sequence/saving_a_cat_causal/saving_a_cat_causal_2.png"" class=""exp-image"">
                    <div class=""question-area"">
                        <p style=""font-size: 20px; font-weight: bold; margin: 0;"">Is there a person in this image?</p>
                    </div>
                </div>","1","main_experiment_trial","2","saving_a_cat_causal","causal_sequence","chronological","","","","","","",""
"","","","","","html-keyboard-response","63","294085","0.0-63.0","93E210356AE04741BCEB79430C16C38E","019daca4-7943-7729-a325-3c78911a212a","019dac5b-243f-7307-af64-a10f53f1ef70","","null","
                <div class=""stimulus-container"">
                    <img src=""images/causal_sequence/saving_a_cat_causal/saving_a_cat_causal_3.png"" class=""exp-image"">
                    <div class=""question-area""></div> 
                </div>","null","","","","","","","","","","","",""
"","","","","","html-button-response","64","294874","0.0-64.0","93E210356AE04741BCEB79430C16C38E","019daca4-7943-7729-a325-3c78911a212a","019dac5b-243f-7307-af64-a10f53f1ef70","","789","
                <div class=""stimulus-container"">
                    <img src=""images/causal_sequence/saving_a_cat_causal/saving_a_cat_causal_3.png"" class=""exp-image"">
                    <div class=""question-area"">
                        <p style=""font-size: 20px; font-weight: bold; margin: 0;"">Is there a person in this image?</p>
                    </div>
                </div>","1","main_experiment_trial","3","saving_a_cat_causal","causal_sequence","chronological","","","","","","",""
"","","","","","html-keyboard-response","65","299880","0.0-65.0","93E210356AE04741BCEB79430C16C38E","019daca4-7943-7729-a325-3c78911a212a","019dac5b-243f-7307-af64-a10f53f1ef70","","null","
                <div class=""stimulus-container"">
                    <img src=""images/causal_sequence/saving_a_cat_causal/saving_a_cat_causal_4.png"" class=""exp-image"">
                    <div class=""question-area""></div> 
                </div>","null","","","","","","","","","","","",""
"","","","","","html-button-response","66","301309","0.0-66.0","93E210356AE04741BCEB79430C16C38E","019daca4-7943-7729-a325-3c78911a212a","019dac5b-243f-7307-af64-a10f53f1ef70","","1428","
                <div class=""stimulus-container"">
                    <img src=""images/causal_sequence/saving_a_cat_causal/saving_a_cat_causal_4.png"" class=""exp-image"">
                    <div class=""question-area"">
                        <p style=""font-size: 20px; font-weight: bold; margin: 0;"">Is there a person in this image?</p>
                    </div>
                </div>","0","main_experiment_trial","4","saving_a_cat_causal","causal_sequence","chronological","","","","","","",""
"","","","","","html-keyboard-response","67","306325","0.0-67.0","93E210356AE04741BCEB79430C16C38E","019daca4-7943-7729-a325-3c78911a212a","019dac5b-243f-7307-af64-a10f53f1ef70","","null","
                <div class=""stimulus-container"">
                    <img src=""images/causal_sequence/saving_a_cat_causal/saving_a_cat_causal_5.png"" class=""exp-image"">
                    <div class=""question-area""></div> 
                </div>","null","","","","","","","","","","","",""
"","","","","","html-button-response","68","308551","0.0-68.0","93E210356AE04741BCEB79430C16C38E","019daca4-7943-7729-a325-3c78911a212a","019dac5b-243f-7307-af64-a10f53f1ef70","","2224","
                <div class=""stimulus-container"">
                    <img src=""images/causal_sequence/saving_a_cat_causal/saving_a_cat_causal_5.png"" class=""exp-image"">
                    <div class=""question-area"">
                        <p style=""font-size: 20px; font-weight: bold; margin: 0;"">Is there a person in this image?</p>
                    </div>
                </div>","0","main_experiment_trial","5","saving_a_cat_causal","causal_sequence","chronological","","","","","","",""
"","","","","","html-keyboard-response","69","313554","0.0-69.0","93E210356AE04741BCEB79430C16C38E","019daca4-7943-7729-a325-3c78911a212a","019dac5b-243f-7307-af64-a10f53f1ef70","","null","
                <div class=""stimulus-container"">
                    <img src=""images/causal_sequence/saving_a_cat_causal/saving_a_cat_causal_6.png"" class=""exp-image"">
                    <div class=""question-area""></div> 
                </div>","null","","","","","","","","","","","",""
"","","","","","html-button-response","70","315220","0.0-70.0","93E210356AE04741BCEB79430C16C38E","019daca4-7943-7729-a325-3c78911a212a","019dac5b-243f-7307-af64-a10f53f1ef70","","1665","
                <div class=""stimulus-container"">
                    <img src=""images/causal_sequence/saving_a_cat_causal/saving_a_cat_causal_6.png"" class=""exp-image"">
                    <div class=""question-area"">
                        <p style=""font-size: 20px; font-weight: bold; margin: 0;"">Is there a person in this image?</p>
                    </div>
                </div>","0","main_experiment_trial","6","saving_a_cat_causal","causal_sequence","chronological","","","","","","",""
"","","","","","html-keyboard-response","71","320229","0.0-71.0","93E210356AE04741BCEB79430C16C38E","019daca4-7943-7729-a325-3c78911a212a","019dac5b-243f-7307-af64-a10f53f1ef70","","null","
                <div class=""stimulus-container"">
                    <img src=""images/causal_sequence/saving_a_cat_causal/saving_a_cat_causal_7.png"" class=""exp-image"">
                    <div class=""question-area""></div> 
                </div>","null","","","","","","","","","","","",""
"","","","","","html-button-response","72","321916","0.0-72.0","93E210356AE04741BCEB79430C16C38E","019daca4-7943-7729-a325-3c78911a212a","019dac5b-243f-7307-af64-a10f53f1ef70","","1685","
                <div class=""stimulus-container"">
                    <img src=""images/causal_sequence/saving_a_cat_causal/saving_a_cat_causal_7.png"" class=""exp-image"">
                    <div class=""question-area"">
                        <p style=""font-size: 20px; font-weight: bold; margin: 0;"">Is there a person in this image?</p>
                    </div>
                </div>","0","main_experiment_trial","7","saving_a_cat_causal","causal_sequence","chronological","","","","","","",""
"","","","","","html-keyboard-response","73","326922","0.0-73.0","93E210356AE04741BCEB79430C16C38E","019daca4-7943-7729-a325-3c78911a212a","019dac5b-243f-7307-af64-a10f53f1ef70","","null","
                <div class=""stimulus-container"">
                    <img src=""images/causal_sequence/saving_a_cat_causal/saving_a_cat_causal_8.png"" class=""exp-image"">
                    <div class=""question-area""></div> 
                </div>","null","","","","","","","","","","","",""
"","","","","","html-button-response","74","329160","0.0-74.0","93E210356AE04741BCEB79430C16C38E","019daca4-7943-7729-a325-3c78911a212a","019dac5b-243f-7307-af64-a10f53f1ef70","","2236","
                <div class=""stimulus-container"">
                    <img src=""images/causal_sequence/saving_a_cat_causal/saving_a_cat_causal_8.png"" class=""exp-image"">
                    <div class=""question-area"">
                        <p style=""font-size: 20px; font-weight: bold; margin: 0;"">Is there a person in this image?</p>
                    </div>
                </div>","0","main_experiment_trial","8","saving_a_cat_causal","causal_sequence","chronological","","","","","","",""
"","","","","","html-keyboard-response","75","334164","0.0-75.0","93E210356AE04741BCEB79430C16C38E","019daca4-7943-7729-a325-3c78911a212a","019dac5b-243f-7307-af64-a10f53f1ef70","","null","
                <div class=""stimulus-container"">
                    <img src=""images/causal_sequence/saving_a_cat_causal/saving_a_cat_causal_9.png"" class=""exp-image"">
                    <div class=""question-area""></div> 
                </div>","null","","","","","","","","","","","",""
"","","","","","html-button-response","76","335084","0.0-76.0","93E210356AE04741BCEB79430C16C38E","019daca4-7943-7729-a325-3c78911a212a","019dac5b-243f-7307-af64-a10f53f1ef70","","918","
                <div class=""stimulus-container"">
                    <img src=""images/causal_sequence/saving_a_cat_causal/saving_a_cat_causal_9.png"" class=""exp-image"">
                    <div class=""question-area"">
                        <p style=""font-size: 20px; font-weight: bold; margin: 0;"">Is there a person in this image?</p>
                    </div>
                </div>","0","main_experiment_trial","9","saving_a_cat_causal","causal_sequence","chronological","","","","","","",""
"","","","","","html-keyboard-response","77","340090","0.0-77.0","93E210356AE04741BCEB79430C16C38E","019daca4-7943-7729-a325-3c78911a212a","019dac5b-243f-7307-af64-a10f53f1ef70","","null","
                <div class=""stimulus-container"">
                    <img src=""images/causal_sequence/saving_a_cat_causal/saving_a_cat_causal_ten.png"" class=""exp-image"">
                    <div class=""question-area""></div> 
                </div>","null","","","","","","","","","","","",""
"","","","","","html-button-response","78","341108","0.0-78.0","93E210356AE04741BCEB79430C16C38E","019daca4-7943-7729-a325-3c78911a212a","019dac5b-243f-7307-af64-a10f53f1ef70","","1016","
                <div class=""stimulus-container"">
                    <img src=""images/causal_sequence/saving_a_cat_causal/saving_a_cat_causal_ten.png"" class=""exp-image"">
                    <div class=""question-area"">
                        <p style=""font-size: 20px; font-weight: bold; margin: 0;"">Is there a person in this image?</p>
                    </div>
                </div>","0","main_experiment_trial","ten","saving_a_cat_causal","causal_sequence","chronological","","","","","","",""
"","","","","","html-keyboard-response","79","346122","0.0-79.0","93E210356AE04741BCEB79430C16C38E","019daca4-7943-7729-a325-3c78911a212a","019dac5b-243f-7307-af64-a10f53f1ef70","","null","<div style=""background-color: white; width: 100vw; height: 100vh;""></div>","null","","","","","","","","","","","",""
"","","","","","html-keyboard-response","80","351130","0.0-80.0","93E210356AE04741BCEB79430C16C38E","019daca4-7943-7729-a325-3c78911a212a","019dac5b-243f-7307-af64-a10f53f1ef70","","null","
                <div class=""stimulus-container"">
                    <img src=""images/semantic_sequence/physical_activity_semantic/physical_activity_semantic_1.png"" class=""exp-image"">
                    <div class=""question-area""></div> 
                </div>","null","","","","","","","","","","","",""
"","","","","","html-button-response","81","351943","0.0-81.0","93E210356AE04741BCEB79430C16C38E","019daca4-7943-7729-a325-3c78911a212a","019dac5b-243f-7307-af64-a10f53f1ef70","","812","
                <div class=""stimulus-container"">
                    <img src=""images/semantic_sequence/physical_activity_semantic/physical_activity_semantic_1.png"" class=""exp-image"">
                    <div class=""question-area"">
                        <p style=""font-size: 20px; font-weight: bold; margin: 0;"">Is there a person in this image?</p>
                    </div>
                </div>","0","main_experiment_trial","1","physical_activity_semantic","semantic_sequence","chronological","","","","","","",""
"","","","","","html-keyboard-response","82","356951","0.0-82.0","93E210356AE04741BCEB79430C16C38E","019daca4-7943-7729-a325-3c78911a212a","019dac5b-243f-7307-af64-a10f53f1ef70","","null","
                <div class=""stimulus-container"">
                    <img src=""images/semantic_sequence/physical_activity_semantic/physical_activity_semantic_2.png"" class=""exp-image"">
                    <div class=""question-area""></div> 
                </div>","null","","","","","","","","","","","",""
"","","","","","html-button-response","83","357623","0.0-83.0","93E210356AE04741BCEB79430C16C38E","019daca4-7943-7729-a325-3c78911a212a","019dac5b-243f-7307-af64-a10f53f1ef70","","672","
                <div class=""stimulus-container"">
                    <img src=""images/semantic_sequence/physical_activity_semantic/physical_activity_semantic_2.png"" class=""exp-image"">
                    <div class=""question-area"">
                        <p style=""font-size: 20px; font-weight: bold; margin: 0;"">Is there a person in this image?</p>
                    </div>
                </div>","0","main_experiment_trial","2","physical_activity_semantic","semantic_sequence","chronological","","","","","","",""
"","","","","","html-keyboard-response","84","362632","0.0-84.0","93E210356AE04741BCEB79430C16C38E","019daca4-7943-7729-a325-3c78911a212a","019dac5b-243f-7307-af64-a10f53f1ef70","","null","
                <div class=""stimulus-container"">
                    <img src=""images/semantic_sequence/physical_activity_semantic/physical_activity_semantic_3.png"" class=""exp-image"">
                    <div class=""question-area""></div> 
                </div>","null","","","","","","","","","","","",""
"","","","","","html-button-response","85","364251","0.0-85.0","93E210356AE04741BCEB79430C16C38E","019daca4-7943-7729-a325-3c78911a212a","019dac5b-243f-7307-af64-a10f53f1ef70","","1617","
                <div class=""stimulus-container"">
                    <img src=""images/semantic_sequence/physical_activity_semantic/physical_activity_semantic_3.png"" class=""exp-image"">
                    <div class=""question-area"">
                        <p style=""font-size: 20px; font-weight: bold; margin: 0;"">Is there a person in this image?</p>
                    </div>
                </div>","0","main_experiment_trial","3","physical_activity_semantic","semantic_sequence","chronological","","","","","","",""
"","","","","","html-keyboard-response","86","369255","0.0-86.0","93E210356AE04741BCEB79430C16C38E","019daca4-7943-7729-a325-3c78911a212a","019dac5b-243f-7307-af64-a10f53f1ef70","","null","
                <div class=""stimulus-container"">
                    <img src=""images/semantic_sequence/physical_activity_semantic/physical_activity_semantic_4.png"" class=""exp-image"">
                    <div class=""question-area""></div> 
                </div>","null","","","","","","","","","","","",""
"","","","","","html-button-response","87","370770","0.0-87.0","93E210356AE04741BCEB79430C16C38E","019daca4-7943-7729-a325-3c78911a212a","019dac5b-243f-7307-af64-a10f53f1ef70","","1514","
                <div class=""stimulus-container"">
                    <img src=""images/semantic_sequence/physical_activity_semantic/physical_activity_semantic_4.png"" class=""exp-image"">
                    <div class=""question-area"">
                        <p style=""font-size: 20px; font-weight: bold; margin: 0;"">Is there a person in this image?</p>
                    </div>
                </div>","0","main_experiment_trial","4","physical_activity_semantic","semantic_sequence","chronological","","","","","","",""
"","","","","","html-keyboard-response","88","375784","0.0-88.0","93E210356AE04741BCEB79430C16C38E","019daca4-7943-7729-a325-3c78911a212a","019dac5b-243f-7307-af64-a10f53f1ef70","","null","
                <div class=""stimulus-container"">
                    <img src=""images/semantic_sequence/physical_activity_semantic/physical_activity_semantic_5.png"" class=""exp-image"">
                    <div class=""question-area""></div> 
                </div>","null","","","","","","","","","","","",""
"","","","","","html-button-response","89","376598","0.0-89.0","93E210356AE04741BCEB79430C16C38E","019daca4-7943-7729-a325-3c78911a212a","019dac5b-243f-7307-af64-a10f53f1ef70","","813","
                <div class=""stimulus-container"">
                    <img src=""images/semantic_sequence/physical_activity_semantic/physical_activity_semantic_5.png"" class=""exp-image"">
                    <div class=""question-area"">
                        <p style=""font-size: 20px; font-weight: bold; margin: 0;"">Is there a person in this image?</p>
                    </div>
                </div>","0","main_experiment_trial","5","physical_activity_semantic","semantic_sequence","chronological","","","","","","",""
"","","","","","html-keyboard-response","90","381615","0.0-90.0","93E210356AE04741BCEB79430C16C38E","019daca4-7943-7729-a325-3c78911a212a","019dac5b-243f-7307-af64-a10f53f1ef70","","null","
                <div class=""stimulus-container"">
                    <img src=""images/semantic_sequence/physical_activity_semantic/physical_activity_semantic_6.png"" class=""exp-image"">
                    <div class=""question-area""></div> 
                </div>","null","","","","","","","","","","","",""
"","","","","","html-button-response","91","384288","0.0-91.0","93E210356AE04741BCEB79430C16C38E","019daca4-7943-7729-a325-3c78911a212a","019dac5b-243f-7307-af64-a10f53f1ef70","","2672","
                <div class=""stimulus-container"">
                    <img src=""images/semantic_sequence/physical_activity_semantic/physical_activity_semantic_6.png"" class=""exp-image"">
                    <div class=""question-area"">
                        <p style=""font-size: 20px; font-weight: bold; margin: 0;"">Is there a person in this image?</p>
                    </div>
                </div>","0","main_experiment_trial","6","physical_activity_semantic","semantic_sequence","chronological","","","","","","",""
"","","","","","html-keyboard-response","92","389289","0.0-92.0","93E210356AE04741BCEB79430C16C38E","019daca4-7943-7729-a325-3c78911a212a","019dac5b-243f-7307-af64-a10f53f1ef70","","null","
                <div class=""stimulus-container"">
                    <img src=""images/semantic_sequence/physical_activity_semantic/physical_activity_semantic_7.png"" class=""exp-image"">
                    <div class=""question-area""></div> 
                </div>","null","","","","","","","","","","","",""
"","","","","","html-button-response","93","391653","0.0-93.0","93E210356AE04741BCEB79430C16C38E","019daca4-7943-7729-a325-3c78911a212a","019dac5b-243f-7307-af64-a10f53f1ef70","","2363","
                <div class=""stimulus-container"">
                    <img src=""images/semantic_sequence/physical_activity_semantic/physical_activity_semantic_7.png"" class=""exp-image"">
                    <div class=""question-area"">
                        <p style=""font-size: 20px; font-weight: bold; margin: 0;"">Is there a person in this image?</p>
                    </div>
                </div>","0","main_experiment_trial","7","physical_activity_semantic","semantic_sequence","chronological","","","","","","",""
"","","","","","html-keyboard-response","94","396658","0.0-94.0","93E210356AE04741BCEB79430C16C38E","019daca4-7943-7729-a325-3c78911a212a","019dac5b-243f-7307-af64-a10f53f1ef70","","null","
                <div class=""stimulus-container"">
                    <img src=""images/semantic_sequence/physical_activity_semantic/physical_activity_semantic_8.png"" class=""exp-image"">
                    <div class=""question-area""></div> 
                </div>","null","","","","","","","","","","","",""
"","","","","","html-button-response","95","397619","0.0-95.0","93E210356AE04741BCEB79430C16C38E","019daca4-7943-7729-a325-3c78911a212a","019dac5b-243f-7307-af64-a10f53f1ef70","","961","
                <div class=""stimulus-container"">
                    <img src=""images/semantic_sequence/physical_activity_semantic/physical_activity_semantic_8.png"" class=""exp-image"">
                    <div class=""question-area"">
                        <p style=""font-size: 20px; font-weight: bold; margin: 0;"">Is there a person in this image?</p>
                    </div>
                </div>","0","main_experiment_trial","8","physical_activity_semantic","semantic_sequence","chronological","","","","","","",""
"","","","","","html-keyboard-response","96","402621","0.0-96.0","93E210356AE04741BCEB79430C16C38E","019daca4-7943-7729-a325-3c78911a212a","019dac5b-243f-7307-af64-a10f53f1ef70","","null","
                <div class=""stimulus-container"">
                    <img src=""images/semantic_sequence/physical_activity_semantic/physical_activity_semantic_9.png"" class=""exp-image"">
                    <div class=""question-area""></div> 
                </div>","null","","","","","","","","","","","",""
"","","","","","html-button-response","97","403758","0.0-97.0","93E210356AE04741BCEB79430C16C38E","019daca4-7943-7729-a325-3c78911a212a","019dac5b-243f-7307-af64-a10f53f1ef70","","1135","
                <div class=""stimulus-container"">
                    <img src=""images/semantic_sequence/physical_activity_semantic/physical_activity_semantic_9.png"" class=""exp-image"">
                    <div class=""question-area"">
                        <p style=""font-size: 20px; font-weight: bold; margin: 0;"">Is there a person in this image?</p>
                    </div>
                </div>","0","main_experiment_trial","9","physical_activity_semantic","semantic_sequence","chronological","","","","","","",""
"","","","","","html-keyboard-response","98","408766","0.0-98.0","93E210356AE04741BCEB79430C16C38E","019daca4-7943-7729-a325-3c78911a212a","019dac5b-243f-7307-af64-a10f53f1ef70","","null","
                <div class=""stimulus-container"">
                    <img src=""images/semantic_sequence/physical_activity_semantic/physical_activity_semantic_ten.png"" class=""exp-image"">
                    <div class=""question-area""></div> 
                </div>","null","","","","","","","","","","","",""
"","","","","","html-button-response","99","409846","0.0-99.0","93E210356AE04741BCEB79430C16C38E","019daca4-7943-7729-a325-3c78911a212a","019dac5b-243f-7307-af64-a10f53f1ef70","","1078","
                <div class=""stimulus-container"">
                    <img src=""images/semantic_sequence/physical_activity_semantic/physical_activity_semantic_ten.png"" class=""exp-image"">
                    <div class=""question-area"">
                        <p style=""font-size: 20px; font-weight: bold; margin: 0;"">Is there a person in this image?</p>
                    </div>
                </div>","0","main_experiment_trial","ten","physical_activity_semantic","semantic_sequence","chronological","","","","","","",""
"","","","","","html-keyboard-response","100","414863","0.0-100.0","93E210356AE04741BCEB79430C16C38E","019daca4-7943-7729-a325-3c78911a212a","019dac5b-243f-7307-af64-a10f53f1ef70","","null","<div style=""background-color: white; width: 100vw; height: 100vh;""></div>","null","","","","","","","","","","","",""
"","","","","","html-keyboard-response","101","419865","0.0-101.0","93E210356AE04741BCEB79430C16C38E","019daca4-7943-7729-a325-3c78911a212a","019dac5b-243f-7307-af64-a10f53f1ef70","","null","
                <div class=""stimulus-container"">
                    <img src=""images/semantic_sequence/kitchen_operations_semantic/kitchen_operations_semantic_1.png"" class=""exp-image"">
                    <div class=""question-area""></div> 
                </div>","null","","","","","","","","","","","",""
"","","","","","html-button-response","102","422880","0.0-102.0","93E210356AE04741BCEB79430C16C38E","019daca4-7943-7729-a325-3c78911a212a","019dac5b-243f-7307-af64-a10f53f1ef70","","null","
                <div class=""stimulus-container"">
                    <img src=""images/semantic_sequence/kitchen_operations_semantic/kitchen_operations_semantic_1.png"" class=""exp-image"">
                    <div class=""question-area"">
                        <p style=""font-size: 20px; font-weight: bold; margin: 0;"">Is there a person in this image?</p>
                    </div>
                </div>","null","main_experiment_trial","1","kitchen_operations_semantic","semantic_sequence","chronological","","","","","","",""
"","","","","","html-keyboard-response","103","427884","0.0-103.0","93E210356AE04741BCEB79430C16C38E","019daca4-7943-7729-a325-3c78911a212a","019dac5b-243f-7307-af64-a10f53f1ef70","","null","
                <div class=""stimulus-container"">
                    <img src=""images/semantic_sequence/kitchen_operations_semantic/kitchen_operations_semantic_2.png"" class=""exp-image"">
                    <div class=""question-area""></div> 
                </div>","null","","","","","","","","","","","",""
"","","","","","html-button-response","104","429345","0.0-104.0","93E210356AE04741BCEB79430C16C38E","019daca4-7943-7729-a325-3c78911a212a","019dac5b-243f-7307-af64-a10f53f1ef70","","1459","
                <div class=""stimulus-container"">
                    <img src=""images/semantic_sequence/kitchen_operations_semantic/kitchen_operations_semantic_2.png"" class=""exp-image"">
                    <div class=""question-area"">
                        <p style=""font-size: 20px; font-weight: bold; margin: 0;"">Is there a person in this image?</p>
                    </div>
                </div>","0","main_experiment_trial","2","kitchen_operations_semantic","semantic_sequence","chronological","","","","","","",""
"","","","","","html-keyboard-response","105","434352","0.0-105.0","93E210356AE04741BCEB79430C16C38E","019daca4-7943-7729-a325-3c78911a212a","019dac5b-243f-7307-af64-a10f53f1ef70","","null","
                <div class=""stimulus-container"">
                    <img src=""images/semantic_sequence/kitchen_operations_semantic/kitchen_operations_semantic_3.png"" class=""exp-image"">
                    <div class=""question-area""></div> 
                </div>","null","","","","","","","","","","","",""
"","","","","","html-button-response","106","435763","0.0-106.0","93E210356AE04741BCEB79430C16C38E","019daca4-7943-7729-a325-3c78911a212a","019dac5b-243f-7307-af64-a10f53f1ef70","","1410","
                <div class=""stimulus-container"">
                    <img src=""images/semantic_sequence/kitchen_operations_semantic/kitchen_operations_semantic_3.png"" class=""exp-image"">
                    <div class=""question-area"">
                        <p style=""font-size: 20px; font-weight: bold; margin: 0;"">Is there a person in this image?</p>
                    </div>
                </div>","0","main_experiment_trial","3","kitchen_operations_semantic","semantic_sequence","chronological","","","","","","",""
"","","","","","html-keyboard-response","107","440772","0.0-107.0","93E210356AE04741BCEB79430C16C38E","019daca4-7943-7729-a325-3c78911a212a","019dac5b-243f-7307-af64-a10f53f1ef70","","null","
                <div class=""stimulus-container"">
                    <img src=""images/semantic_sequence/kitchen_operations_semantic/kitchen_operations_semantic_4.png"" class=""exp-image"">
                    <div class=""question-area""></div> 
                </div>","null","","","","","","","","","","","",""
"","","","","","html-button-response","108","441760","0.0-108.0","93E210356AE04741BCEB79430C16C38E","019daca4-7943-7729-a325-3c78911a212a","019dac5b-243f-7307-af64-a10f53f1ef70","","986","
                <div class=""stimulus-container"">
                    <img src=""images/semantic_sequence/kitchen_operations_semantic/kitchen_operations_semantic_4.png"" class=""exp-image"">
                    <div class=""question-area"">
                        <p style=""font-size: 20px; font-weight: bold; margin: 0;"">Is there a person in this image?</p>
                    </div>
                </div>","0","main_experiment_trial","4","kitchen_operations_semantic","semantic_sequence","chronological","","","","","","",""
"","","","","","html-keyboard-response","109","446763","0.0-109.0","93E210356AE04741BCEB79430C16C38E","019daca4-7943-7729-a325-3c78911a212a","019dac5b-243f-7307-af64-a10f53f1ef70","","null","
                <div class=""stimulus-container"">
                    <img src=""images/semantic_sequence/kitchen_operations_semantic/kitchen_operations_semantic_5.png"" class=""exp-image"">
                    <div class=""question-area""></div> 
                </div>","null","","","","","","","","","","","",""
"","","","","","html-button-response","110","447212","0.0-110.0","93E210356AE04741BCEB79430C16C38E","019daca4-7943-7729-a325-3c78911a212a","019dac5b-243f-7307-af64-a10f53f1ef70","","448","
                <div class=""stimulus-container"">
                    <img src=""images/semantic_sequence/kitchen_operations_semantic/kitchen_operations_semantic_5.png"" class=""exp-image"">
                    <div class=""question-area"">
                        <p style=""font-size: 20px; font-weight: bold; margin: 0;"">Is there a person in this image?</p>
                    </div>
                </div>","0","main_experiment_trial","5","kitchen_operations_semantic","semantic_sequence","chronological","","","","","","",""
"","","","","","html-keyboard-response","111","452228","0.0-111.0","93E210356AE04741BCEB79430C16C38E","019daca4-7943-7729-a325-3c78911a212a","019dac5b-243f-7307-af64-a10f53f1ef70","","null","
                <div class=""stimulus-container"">
                    <img src=""images/semantic_sequence/kitchen_operations_semantic/kitchen_operations_semantic_6.png"" class=""exp-image"">
                    <div class=""question-area""></div> 
                </div>","null","","","","","","","","","","","",""
"","","","","","html-button-response","112","452856","0.0-112.0","93E210356AE04741BCEB79430C16C38E","019daca4-7943-7729-a325-3c78911a212a","019dac5b-243f-7307-af64-a10f53f1ef70","","627","
                <div class=""stimulus-container"">
                    <img src=""images/semantic_sequence/kitchen_operations_semantic/kitchen_operations_semantic_6.png"" class=""exp-image"">
                    <div class=""question-area"">
                        <p style=""font-size: 20px; font-weight: bold; margin: 0;"">Is there a person in this image?</p>
                    </div>
                </div>","0","main_experiment_trial","6","kitchen_operations_semantic","semantic_sequence","chronological","","","","","","",""
"","","","","","html-keyboard-response","113","457867","0.0-113.0","93E210356AE04741BCEB79430C16C38E","019daca4-7943-7729-a325-3c78911a212a","019dac5b-243f-7307-af64-a10f53f1ef70","","null","
                <div class=""stimulus-container"">
                    <img src=""images/semantic_sequence/kitchen_operations_semantic/kitchen_operations_semantic_7.png"" class=""exp-image"">
                    <div class=""question-area""></div> 
                </div>","null","","","","","","","","","","","",""
"","","","","","html-button-response","114","458723","0.0-114.0","93E210356AE04741BCEB79430C16C38E","019daca4-7943-7729-a325-3c78911a212a","019dac5b-243f-7307-af64-a10f53f1ef70","","854","
                <div class=""stimulus-container"">
                    <img src=""images/semantic_sequence/kitchen_operations_semantic/kitchen_operations_semantic_7.png"" class=""exp-image"">
                    <div class=""question-area"">
                        <p style=""font-size: 20px; font-weight: bold; margin: 0;"">Is there a person in this image?</p>
                    </div>
                </div>","0","main_experiment_trial","7","kitchen_operations_semantic","semantic_sequence","chronological","","","","","","",""
"","","","","","html-keyboard-response","115","463728","0.0-115.0","93E210356AE04741BCEB79430C16C38E","019daca4-7943-7729-a325-3c78911a212a","019dac5b-243f-7307-af64-a10f53f1ef70","","null","
                <div class=""stimulus-container"">
                    <img src=""images/semantic_sequence/kitchen_operations_semantic/kitchen_operations_semantic_8.png"" class=""exp-image"">
                    <div class=""question-area""></div> 
                </div>","null","","","","","","","","","","","",""
"","","","","","html-button-response","116","464941","0.0-116.0","93E210356AE04741BCEB79430C16C38E","019daca4-7943-7729-a325-3c78911a212a","019dac5b-243f-7307-af64-a10f53f1ef70","","1212","
                <div class=""stimulus-container"">
                    <img src=""images/semantic_sequence/kitchen_operations_semantic/kitchen_operations_semantic_8.png"" class=""exp-image"">
                    <div class=""question-area"">
                        <p style=""font-size: 20px; font-weight: bold; margin: 0;"">Is there a person in this image?</p>
                    </div>
                </div>","0","main_experiment_trial","8","kitchen_operations_semantic","semantic_sequence","chronological","","","","","","",""
"","","","","","html-keyboard-response","117","469949","0.0-117.0","93E210356AE04741BCEB79430C16C38E","019daca4-7943-7729-a325-3c78911a212a","019dac5b-243f-7307-af64-a10f53f1ef70","","null","
                <div class=""stimulus-container"">
                    <img src=""images/semantic_sequence/kitchen_operations_semantic/kitchen_operations_semantic_9.png"" class=""exp-image"">
                    <div class=""question-area""></div> 
                </div>","null","","","","","","","","","","","",""
"","","","","","html-button-response","118","471983","0.0-118.0","93E210356AE04741BCEB79430C16C38E","019daca4-7943-7729-a325-3c78911a212a","019dac5b-243f-7307-af64-a10f53f1ef70","","2032","
                <div class=""stimulus-container"">
                    <img src=""images/semantic_sequence/kitchen_operations_semantic/kitchen_operations_semantic_9.png"" class=""exp-image"">
                    <div class=""question-area"">
                        <p style=""font-size: 20px; font-weight: bold; margin: 0;"">Is there a person in this image?</p>
                    </div>
                </div>","0","main_experiment_trial","9","kitchen_operations_semantic","semantic_sequence","chronological","","","","","","",""
"","","","","","html-keyboard-response","119","476992","0.0-119.0","93E210356AE04741BCEB79430C16C38E","019daca4-7943-7729-a325-3c78911a212a","019dac5b-243f-7307-af64-a10f53f1ef70","","null","
                <div class=""stimulus-container"">
                    <img src=""images/semantic_sequence/kitchen_operations_semantic/kitchen_operations_semantic_ten.png"" class=""exp-image"">
                    <div class=""question-area""></div> 
                </div>","null","","","","","","","","","","","",""
"","","","","","html-button-response","120","479061","0.0-120.0","93E210356AE04741BCEB79430C16C38E","019daca4-7943-7729-a325-3c78911a212a","019dac5b-243f-7307-af64-a10f53f1ef70","","2069","
                <div class=""stimulus-container"">
                    <img src=""images/semantic_sequence/kitchen_operations_semantic/kitchen_operations_semantic_ten.png"" class=""exp-image"">
                    <div class=""question-area"">
                        <p style=""font-size: 20px; font-weight: bold; margin: 0;"">Is there a person in this image?</p>
                    </div>
                </div>","0","main_experiment_trial","ten","kitchen_operations_semantic","semantic_sequence","chronological","","","","","","",""
"","","","","","html-keyboard-response","121","484067","0.0-121.0","93E210356AE04741BCEB79430C16C38E","019daca4-7943-7729-a325-3c78911a212a","019dac5b-243f-7307-af64-a10f53f1ef70","","null","<div style=""background-color: white; width: 100vw; height: 100vh;""></div>","null","","","","","","","","","","","",""
"","","","","","html-keyboard-response","122","489072","0.0-122.0","93E210356AE04741BCEB79430C16C38E","019daca4-7943-7729-a325-3c78911a212a","019dac5b-243f-7307-af64-a10f53f1ef70","","null","
                <div class=""stimulus-container"">
                    <img src=""images/semantic_sequence/housework_semantic/housework_semantic_1.png"" class=""exp-image"">
                    <div class=""question-area""></div> 
                </div>","null","","","","","","","","","","","",""
"","","","","","html-button-response","123","489883","0.0-123.0","93E210356AE04741BCEB79430C16C38E","019daca4-7943-7729-a325-3c78911a212a","019dac5b-243f-7307-af64-a10f53f1ef70","","810","
                <div class=""stimulus-container"">
                    <img src=""images/semantic_sequence/housework_semantic/housework_semantic_1.png"" class=""exp-image"">
                    <div class=""question-area"">
                        <p style=""font-size: 20px; font-weight: bold; margin: 0;"">Is there a person in this image?</p>
                    </div>
                </div>","0","main_experiment_trial","1","housework_semantic","semantic_sequence","chronological","","","","","","",""
"","","","","","html-keyboard-response","124","494887","0.0-124.0","93E210356AE04741BCEB79430C16C38E","019daca4-7943-7729-a325-3c78911a212a","019dac5b-243f-7307-af64-a10f53f1ef70","","null","
                <div class=""stimulus-container"">
                    <img src=""images/semantic_sequence/housework_semantic/housework_semantic_2.png"" class=""exp-image"">
                    <div class=""question-area""></div> 
                </div>","null","","","","","","","","","","","",""
"","","","","","html-button-response","125","496473","0.0-125.0","93E210356AE04741BCEB79430C16C38E","019daca4-7943-7729-a325-3c78911a212a","019dac5b-243f-7307-af64-a10f53f1ef70","","1585","
                <div class=""stimulus-container"">
                    <img src=""images/semantic_sequence/housework_semantic/housework_semantic_2.png"" class=""exp-image"">
                    <div class=""question-area"">
                        <p style=""font-size: 20px; font-weight: bold; margin: 0;"">Is there a person in this image?</p>
                    </div>
                </div>","0","main_experiment_trial","2","housework_semantic","semantic_sequence","chronological","","","","","","",""
"","","","","","html-keyboard-response","126","501476","0.0-126.0","93E210356AE04741BCEB79430C16C38E","019daca4-7943-7729-a325-3c78911a212a","019dac5b-243f-7307-af64-a10f53f1ef70","","null","
                <div class=""stimulus-container"">
                    <img src=""images/semantic_sequence/housework_semantic/housework_semantic_3.png"" class=""exp-image"">
                    <div class=""question-area""></div> 
                </div>","null","","","","","","","","","","","",""
"","","","","","html-button-response","127","502691","0.0-127.0","93E210356AE04741BCEB79430C16C38E","019daca4-7943-7729-a325-3c78911a212a","019dac5b-243f-7307-af64-a10f53f1ef70","","1213","
                <div class=""stimulus-container"">
                    <img src=""images/semantic_sequence/housework_semantic/housework_semantic_3.png"" class=""exp-image"">
                    <div class=""question-area"">
                        <p style=""font-size: 20px; font-weight: bold; margin: 0;"">Is there a person in this image?</p>
                    </div>
                </div>","0","main_experiment_trial","3","housework_semantic","semantic_sequence","chronological","","","","","","",""
"","","","","","html-keyboard-response","128","507692","0.0-128.0","93E210356AE04741BCEB79430C16C38E","019daca4-7943-7729-a325-3c78911a212a","019dac5b-243f-7307-af64-a10f53f1ef70","","null","
                <div class=""stimulus-container"">
                    <img src=""images/semantic_sequence/housework_semantic/housework_semantic_4.png"" class=""exp-image"">
                    <div class=""question-area""></div> 
                </div>","null","","","","","","","","","","","",""
"","","","","","html-button-response","129","508822","0.0-129.0","93E210356AE04741BCEB79430C16C38E","019daca4-7943-7729-a325-3c78911a212a","019dac5b-243f-7307-af64-a10f53f1ef70","","1129","
                <div class=""stimulus-container"">
                    <img src=""images/semantic_sequence/housework_semantic/housework_semantic_4.png"" class=""exp-image"">
                    <div class=""question-area"">
                        <p style=""font-size: 20px; font-weight: bold; margin: 0;"">Is there a person in this image?</p>
                    </div>
                </div>","0","main_experiment_trial","4","housework_semantic","semantic_sequence","chronological","","","","","","",""
"","","","","","html-keyboard-response","130","513835","0.0-130.0","93E210356AE04741BCEB79430C16C38E","019daca4-7943-7729-a325-3c78911a212a","019dac5b-243f-7307-af64-a10f53f1ef70","","null","
                <div class=""stimulus-container"">
                    <img src=""images/semantic_sequence/housework_semantic/housework_semantic_5.png"" class=""exp-image"">
                    <div class=""question-area""></div> 
                </div>","null","","","","","","","","","","","",""
"","","","","","html-button-response","131","515371","0.0-131.0","93E210356AE04741BCEB79430C16C38E","019daca4-7943-7729-a325-3c78911a212a","019dac5b-243f-7307-af64-a10f53f1ef70","","1534","
                <div class=""stimulus-container"">
                    <img src=""images/semantic_sequence/housework_semantic/housework_semantic_5.png"" class=""exp-image"">
                    <div class=""question-area"">
                        <p style=""font-size: 20px; font-weight: bold; margin: 0;"">Is there a person in this image?</p>
                    </div>
                </div>","0","main_experiment_trial","5","housework_semantic","semantic_sequence","chronological","","","","","","",""
"","","","","","html-keyboard-response","132","520382","0.0-132.0","93E210356AE04741BCEB79430C16C38E","019daca4-7943-7729-a325-3c78911a212a","019dac5b-243f-7307-af64-a10f53f1ef70","","null","
                <div class=""stimulus-container"">
                    <img src=""images/semantic_sequence/housework_semantic/housework_semantic_6.png"" class=""exp-image"">
                    <div class=""question-area""></div> 
                </div>","null","","","","","","","","","","","",""
"","","","","","html-button-response","133","523116","0.0-133.0","93E210356AE04741BCEB79430C16C38E","019daca4-7943-7729-a325-3c78911a212a","019dac5b-243f-7307-af64-a10f53f1ef70","","2733","
                <div class=""stimulus-container"">
                    <img src=""images/semantic_sequence/housework_semantic/housework_semantic_6.png"" class=""exp-image"">
                    <div class=""question-area"">
                        <p style=""font-size: 20px; font-weight: bold; margin: 0;"">Is there a person in this image?</p>
                    </div>
                </div>","0","main_experiment_trial","6","housework_semantic","semantic_sequence","chronological","","","","","","",""
"","","","","","html-keyboard-response","134","528133","0.0-134.0","93E210356AE04741BCEB79430C16C38E","019daca4-7943-7729-a325-3c78911a212a","019dac5b-243f-7307-af64-a10f53f1ef70","","null","
                <div class=""stimulus-container"">
                    <img src=""images/semantic_sequence/housework_semantic/housework_semantic_7.png"" class=""exp-image"">
                    <div class=""question-area""></div> 
                </div>","null","","","","","","","","","","","",""
"","","","","","html-button-response","135","531145","0.0-135.0","93E210356AE04741BCEB79430C16C38E","019daca4-7943-7729-a325-3c78911a212a","019dac5b-243f-7307-af64-a10f53f1ef70","","null","
                <div class=""stimulus-container"">
                    <img src=""images/semantic_sequence/housework_semantic/housework_semantic_7.png"" class=""exp-image"">
                    <div class=""question-area"">
                        <p style=""font-size: 20px; font-weight: bold; margin: 0;"">Is there a person in this image?</p>
                    </div>
                </div>","null","main_experiment_trial","7","housework_semantic","semantic_sequence","chronological","","","","","","",""
"","","","","","html-keyboard-response","136","536151","0.0-136.0","93E210356AE04741BCEB79430C16C38E","019daca4-7943-7729-a325-3c78911a212a","019dac5b-243f-7307-af64-a10f53f1ef70","","null","
                <div class=""stimulus-container"">
                    <img src=""images/semantic_sequence/housework_semantic/housework_semantic_8.png"" class=""exp-image"">
                    <div class=""question-area""></div> 
                </div>","null","","","","","","","","","","","",""
"","","","","","html-button-response","137","538433","0.0-137.0","93E210356AE04741BCEB79430C16C38E","019daca4-7943-7729-a325-3c78911a212a","019dac5b-243f-7307-af64-a10f53f1ef70","","2281","
                <div class=""stimulus-container"">
                    <img src=""images/semantic_sequence/housework_semantic/housework_semantic_8.png"" class=""exp-image"">
                    <div class=""question-area"">
                        <p style=""font-size: 20px; font-weight: bold; margin: 0;"">Is there a person in this image?</p>
                    </div>
                </div>","0","main_experiment_trial","8","housework_semantic","semantic_sequence","chronological","","","","","","",""
"","","","","","html-keyboard-response","138","543443","0.0-138.0","93E210356AE04741BCEB79430C16C38E","019daca4-7943-7729-a325-3c78911a212a","019dac5b-243f-7307-af64-a10f53f1ef70","","null","
                <div class=""stimulus-container"">
                    <img src=""images/semantic_sequence/housework_semantic/housework_semantic_9.png"" class=""exp-image"">
                    <div class=""question-area""></div> 
                </div>","null","","","","","","","","","","","",""
"","","","","","html-button-response","139","546445","0.0-139.0","93E210356AE04741BCEB79430C16C38E","019daca4-7943-7729-a325-3c78911a212a","019dac5b-243f-7307-af64-a10f53f1ef70","","null","
                <div class=""stimulus-container"">
                    <img src=""images/semantic_sequence/housework_semantic/housework_semantic_9.png"" class=""exp-image"">
                    <div class=""question-area"">
                        <p style=""font-size: 20px; font-weight: bold; margin: 0;"">Is there a person in this image?</p>
                    </div>
                </div>","null","main_experiment_trial","9","housework_semantic","semantic_sequence","chronological","","","","","","",""
"","","","","","html-keyboard-response","140","551452","0.0-140.0","93E210356AE04741BCEB79430C16C38E","019daca4-7943-7729-a325-3c78911a212a","019dac5b-243f-7307-af64-a10f53f1ef70","","null","
                <div class=""stimulus-container"">
                    <img src=""images/semantic_sequence/housework_semantic/housework_semantic_ten.png"" class=""exp-image"">
                    <div class=""question-area""></div> 
                </div>","null","","","","","","","","","","","",""
"","","","","","html-button-response","141","552557","0.0-141.0","93E210356AE04741BCEB79430C16C38E","019daca4-7943-7729-a325-3c78911a212a","019dac5b-243f-7307-af64-a10f53f1ef70","","1103","
                <div class=""stimulus-container"">
                    <img src=""images/semantic_sequence/housework_semantic/housework_semantic_ten.png"" class=""exp-image"">
                    <div class=""question-area"">
                        <p style=""font-size: 20px; font-weight: bold; margin: 0;"">Is there a person in this image?</p>
                    </div>
                </div>","0","main_experiment_trial","ten","housework_semantic","semantic_sequence","chronological","","","","","","",""
"","","","","","html-keyboard-response","142","557564","0.0-142.0","93E210356AE04741BCEB79430C16C38E","019daca4-7943-7729-a325-3c78911a212a","019dac5b-243f-7307-af64-a10f53f1ef70","","null","<div style=""background-color: white; width: 100vw; height: 100vh;""></div>","null","","","","","","","","","","","",""
"","","","","","html-keyboard-response","143","562573","0.0-143.0","93E210356AE04741BCEB79430C16C38E","019daca4-7943-7729-a325-3c78911a212a","019dac5b-243f-7307-af64-a10f53f1ef70","","null","
                <div class=""stimulus-container"">
                    <img src=""images/causal_sequence/package_causal/package_causal_1.png"" class=""exp-image"">
                    <div class=""question-area""></div> 
                </div>","null","","","","","","","","","","","",""
"","","","","","html-button-response","144","563222","0.0-144.0","93E210356AE04741BCEB79430C16C38E","019daca4-7943-7729-a325-3c78911a212a","019dac5b-243f-7307-af64-a10f53f1ef70","","648","
                <div class=""stimulus-container"">
                    <img src=""images/causal_sequence/package_causal/package_causal_1.png"" class=""exp-image"">
                    <div class=""question-area"">
                        <p style=""font-size: 20px; font-weight: bold; margin: 0;"">Is there a person in this image?</p>
                    </div>
                </div>","0","main_experiment_trial","1","package_causal","causal_sequence","chronological","","","","","","",""
"","","","","","html-keyboard-response","145","568239","0.0-145.0","93E210356AE04741BCEB79430C16C38E","019daca4-7943-7729-a325-3c78911a212a","019dac5b-243f-7307-af64-a10f53f1ef70","","null","
                <div class=""stimulus-container"">
                    <img src=""images/causal_sequence/package_causal/package_causal_2.png"" class=""exp-image"">
                    <div class=""question-area""></div> 
                </div>","null","","","","","","","","","","","",""
"","","","","","html-button-response","146","568898","0.0-146.0","93E210356AE04741BCEB79430C16C38E","019daca4-7943-7729-a325-3c78911a212a","019dac5b-243f-7307-af64-a10f53f1ef70","","659","
                <div class=""stimulus-container"">
                    <img src=""images/causal_sequence/package_causal/package_causal_2.png"" class=""exp-image"">
                    <div class=""question-area"">
                        <p style=""font-size: 20px; font-weight: bold; margin: 0;"">Is there a person in this image?</p>
                    </div>
                </div>","0","main_experiment_trial","2","package_causal","causal_sequence","chronological","","","","","","",""
"","","","","","html-keyboard-response","147","573903","0.0-147.0","93E210356AE04741BCEB79430C16C38E","019daca4-7943-7729-a325-3c78911a212a","019dac5b-243f-7307-af64-a10f53f1ef70","","null","
                <div class=""stimulus-container"">
                    <img src=""images/causal_sequence/package_causal/package_causal_3.png"" class=""exp-image"">
                    <div class=""question-area""></div> 
                </div>","null","","","","","","","","","","","",""
"","","","","","html-button-response","148","574682","0.0-148.0","93E210356AE04741BCEB79430C16C38E","019daca4-7943-7729-a325-3c78911a212a","019dac5b-243f-7307-af64-a10f53f1ef70","","778","
                <div class=""stimulus-container"">
                    <img src=""images/causal_sequence/package_causal/package_causal_3.png"" class=""exp-image"">
                    <div class=""question-area"">
                        <p style=""font-size: 20px; font-weight: bold; margin: 0;"">Is there a person in this image?</p>
                    </div>
                </div>","0","main_experiment_trial","3","package_causal","causal_sequence","chronological","","","","","","",""
"","","","","","html-keyboard-response","149","579688","0.0-149.0","93E210356AE04741BCEB79430C16C38E","019daca4-7943-7729-a325-3c78911a212a","019dac5b-243f-7307-af64-a10f53f1ef70","","null","
                <div class=""stimulus-container"">
                    <img src=""images/causal_sequence/package_causal/package_causal_4.png"" class=""exp-image"">
                    <div class=""question-area""></div> 
                </div>","null","","","","","","","","","","","",""
"","","","","","html-button-response","150","581604","0.0-150.0","93E210356AE04741BCEB79430C16C38E","019daca4-7943-7729-a325-3c78911a212a","019dac5b-243f-7307-af64-a10f53f1ef70","","1915","
                <div class=""stimulus-container"">
                    <img src=""images/causal_sequence/package_causal/package_causal_4.png"" class=""exp-image"">
                    <div class=""question-area"">
                        <p style=""font-size: 20px; font-weight: bold; margin: 0;"">Is there a person in this image?</p>
                    </div>
                </div>","1","main_experiment_trial","4","package_causal","causal_sequence","chronological","","","","","","",""
"","","","","","html-keyboard-response","151","586607","0.0-151.0","93E210356AE04741BCEB79430C16C38E","019daca4-7943-7729-a325-3c78911a212a","019dac5b-243f-7307-af64-a10f53f1ef70","","null","
                <div class=""stimulus-container"">
                    <img src=""images/causal_sequence/package_causal/package_causal_5.png"" class=""exp-image"">
                    <div class=""question-area""></div> 
                </div>","null","","","","","","","","","","","",""
"","","","","","html-button-response","152","587584","0.0-152.0","93E210356AE04741BCEB79430C16C38E","019daca4-7943-7729-a325-3c78911a212a","019dac5b-243f-7307-af64-a10f53f1ef70","","975","
                <div class=""stimulus-container"">
                    <img src=""images/causal_sequence/package_causal/package_causal_5.png"" class=""exp-image"">
                    <div class=""question-area"">
                        <p style=""font-size: 20px; font-weight: bold; margin: 0;"">Is there a person in this image?</p>
                    </div>
                </div>","0","main_experiment_trial","5","package_causal","causal_sequence","chronological","","","","","","",""
"","","","","","html-keyboard-response","153","592593","0.0-153.0","93E210356AE04741BCEB79430C16C38E","019daca4-7943-7729-a325-3c78911a212a","019dac5b-243f-7307-af64-a10f53f1ef70","","null","
                <div class=""stimulus-container"">
                    <img src=""images/causal_sequence/package_causal/package_causal_6.png"" class=""exp-image"">
                    <div class=""question-area""></div> 
                </div>","null","","","","","","","","","","","",""
"","","","","","html-button-response","154","593376","0.0-154.0","93E210356AE04741BCEB79430C16C38E","019daca4-7943-7729-a325-3c78911a212a","019dac5b-243f-7307-af64-a10f53f1ef70","","781","
                <div class=""stimulus-container"">
                    <img src=""images/causal_sequence/package_causal/package_causal_6.png"" class=""exp-image"">
                    <div class=""question-area"">
                        <p style=""font-size: 20px; font-weight: bold; margin: 0;"">Is there a person in this image?</p>
                    </div>
                </div>","0","main_experiment_trial","6","package_causal","causal_sequence","chronological","","","","","","",""
"","","","","","html-keyboard-response","155","598388","0.0-155.0","93E210356AE04741BCEB79430C16C38E","019daca4-7943-7729-a325-3c78911a212a","019dac5b-243f-7307-af64-a10f53f1ef70","","null","
                <div class=""stimulus-container"">
                    <img src=""images/causal_sequence/package_causal/package_causal_7.png"" class=""exp-image"">
                    <div class=""question-area""></div> 
                </div>","null","","","","","","","","","","","",""
"","","","","","html-button-response","156","599242","0.0-156.0","93E210356AE04741BCEB79430C16C38E","019daca4-7943-7729-a325-3c78911a212a","019dac5b-243f-7307-af64-a10f53f1ef70","","853","
                <div class=""stimulus-container"">
                    <img src=""images/causal_sequence/package_causal/package_causal_7.png"" class=""exp-image"">
                    <div class=""question-area"">
                        <p style=""font-size: 20px; font-weight: bold; margin: 0;"">Is there a person in this image?</p>
                    </div>
                </div>","0","main_experiment_trial","7","package_causal","causal_sequence","chronological","","","","","","",""
"","","","","","html-keyboard-response","157","604255","0.0-157.0","93E210356AE04741BCEB79430C16C38E","019daca4-7943-7729-a325-3c78911a212a","019dac5b-243f-7307-af64-a10f53f1ef70","","null","
                <div class=""stimulus-container"">
                    <img src=""images/causal_sequence/package_causal/package_causal_8.png"" class=""exp-image"">
                    <div class=""question-area""></div> 
                </div>","null","","","","","","","","","","","",""
"","","","","","html-button-response","158","604788","0.0-158.0","93E210356AE04741BCEB79430C16C38E","019daca4-7943-7729-a325-3c78911a212a","019dac5b-243f-7307-af64-a10f53f1ef70","","532","
                <div class=""stimulus-container"">
                    <img src=""images/causal_sequence/package_causal/package_causal_8.png"" class=""exp-image"">
                    <div class=""question-area"">
                        <p style=""font-size: 20px; font-weight: bold; margin: 0;"">Is there a person in this image?</p>
                    </div>
                </div>","0","main_experiment_trial","8","package_causal","causal_sequence","chronological","","","","","","",""
"","","","","","html-keyboard-response","159","609793","0.0-159.0","93E210356AE04741BCEB79430C16C38E","019daca4-7943-7729-a325-3c78911a212a","019dac5b-243f-7307-af64-a10f53f1ef70","","null","
                <div class=""stimulus-container"">
                    <img src=""images/causal_sequence/package_causal/package_causal_9.png"" class=""exp-image"">
                    <div class=""question-area""></div> 
                </div>","null","","","","","","","","","","","",""
"","","","","","html-button-response","160","610419","0.0-160.0","93E210356AE04741BCEB79430C16C38E","019daca4-7943-7729-a325-3c78911a212a","019dac5b-243f-7307-af64-a10f53f1ef70","","625","
                <div class=""stimulus-container"">
                    <img src=""images/causal_sequence/package_causal/package_causal_9.png"" class=""exp-image"">
                    <div class=""question-area"">
                        <p style=""font-size: 20px; font-weight: bold; margin: 0;"">Is there a person in this image?</p>
                    </div>
                </div>","0","main_experiment_trial","9","package_causal","causal_sequence","chronological","","","","","","",""
"","","","","","html-keyboard-response","161","615420","0.0-161.0","93E210356AE04741BCEB79430C16C38E","019daca4-7943-7729-a325-3c78911a212a","019dac5b-243f-7307-af64-a10f53f1ef70","","null","
                <div class=""stimulus-container"">
                    <img src=""images/causal_sequence/package_causal/package_causal_ten.png"" class=""exp-image"">
                    <div class=""question-area""></div> 
                </div>","null","","","","","","","","","","","",""
"","","","","","html-button-response","162","616159","0.0-162.0","93E210356AE04741BCEB79430C16C38E","019daca4-7943-7729-a325-3c78911a212a","019dac5b-243f-7307-af64-a10f53f1ef70","","738","
                <div class=""stimulus-container"">
                    <img src=""images/causal_sequence/package_causal/package_causal_ten.png"" class=""exp-image"">
                    <div class=""question-area"">
                        <p style=""font-size: 20px; font-weight: bold; margin: 0;"">Is there a person in this image?</p>
                    </div>
                </div>","0","main_experiment_trial","ten","package_causal","causal_sequence","chronological","","","","","","",""
"","","","","","html-keyboard-response","163","621168","0.0-163.0","93E210356AE04741BCEB79430C16C38E","019daca4-7943-7729-a325-3c78911a212a","019dac5b-243f-7307-af64-a10f53f1ef70","","null","<div style=""background-color: white; width: 100vw; height: 100vh;""></div>","null","","","","","","","","","","","",""
"","","","","","html-keyboard-response","164","626176","0.0-164.0","93E210356AE04741BCEB79430C16C38E","019daca4-7943-7729-a325-3c78911a212a","019dac5b-243f-7307-af64-a10f53f1ef70","","null","
                <div class=""stimulus-container"">
                    <img src=""images/causal_sequence/dog_causal/dog_causal_1.png"" class=""exp-image"">
                    <div class=""question-area""></div> 
                </div>","null","","","","","","","","","","","",""
"","","","","","html-button-response","165","626935","0.0-165.0","93E210356AE04741BCEB79430C16C38E","019daca4-7943-7729-a325-3c78911a212a","019dac5b-243f-7307-af64-a10f53f1ef70","","758","
                <div class=""stimulus-container"">
                    <img src=""images/causal_sequence/dog_causal/dog_causal_1.png"" class=""exp-image"">
                    <div class=""question-area"">
                        <p style=""font-size: 20px; font-weight: bold; margin: 0;"">Is there a person in this image?</p>
                    </div>
                </div>","0","main_experiment_trial","1","dog_causal","causal_sequence","chronological","","","","","","",""
"","","","","","html-keyboard-response","166","631940","0.0-166.0","93E210356AE04741BCEB79430C16C38E","019daca4-7943-7729-a325-3c78911a212a","019dac5b-243f-7307-af64-a10f53f1ef70","","null","
                <div class=""stimulus-container"">
                    <img src=""images/causal_sequence/dog_causal/dog_causal_2.png"" class=""exp-image"">
                    <div class=""question-area""></div> 
                </div>","null","","","","","","","","","","","",""
"","","","","","html-button-response","167","633190","0.0-167.0","93E210356AE04741BCEB79430C16C38E","019daca4-7943-7729-a325-3c78911a212a","019dac5b-243f-7307-af64-a10f53f1ef70","","1249","
                <div class=""stimulus-container"">
                    <img src=""images/causal_sequence/dog_causal/dog_causal_2.png"" class=""exp-image"">
                    <div class=""question-area"">
                        <p style=""font-size: 20px; font-weight: bold; margin: 0;"">Is there a person in this image?</p>
                    </div>
                </div>","0","main_experiment_trial","2","dog_causal","causal_sequence","chronological","","","","","","",""
"","","","","","html-keyboard-response","168","638196","0.0-168.0","93E210356AE04741BCEB79430C16C38E","019daca4-7943-7729-a325-3c78911a212a","019dac5b-243f-7307-af64-a10f53f1ef70","","null","
                <div class=""stimulus-container"">
                    <img src=""images/causal_sequence/dog_causal/dog_causal_3.png"" class=""exp-image"">
                    <div class=""question-area""></div> 
                </div>","null","","","","","","","","","","","",""
"","","","","","html-button-response","169","638854","0.0-169.0","93E210356AE04741BCEB79430C16C38E","019daca4-7943-7729-a325-3c78911a212a","019dac5b-243f-7307-af64-a10f53f1ef70","","656","
                <div class=""stimulus-container"">
                    <img src=""images/causal_sequence/dog_causal/dog_causal_3.png"" class=""exp-image"">
                    <div class=""question-area"">
                        <p style=""font-size: 20px; font-weight: bold; margin: 0;"">Is there a person in this image?</p>
                    </div>
                </div>","0","main_experiment_trial","3","dog_causal","causal_sequence","chronological","","","","","","",""
"","","","","","html-keyboard-response","170","643870","0.0-170.0","93E210356AE04741BCEB79430C16C38E","019daca4-7943-7729-a325-3c78911a212a","019dac5b-243f-7307-af64-a10f53f1ef70","","null","
                <div class=""stimulus-container"">
                    <img src=""images/causal_sequence/dog_causal/dog_causal_4.png"" class=""exp-image"">
                    <div class=""question-area""></div> 
                </div>","null","","","","","","","","","","","",""
"","","","","","html-button-response","171","644350","0.0-171.0","93E210356AE04741BCEB79430C16C38E","019daca4-7943-7729-a325-3c78911a212a","019dac5b-243f-7307-af64-a10f53f1ef70","","480","
                <div class=""stimulus-container"">
                    <img src=""images/causal_sequence/dog_causal/dog_causal_4.png"" class=""exp-image"">
                    <div class=""question-area"">
                        <p style=""font-size: 20px; font-weight: bold; margin: 0;"">Is there a person in this image?</p>
                    </div>
                </div>","0","main_experiment_trial","4","dog_causal","causal_sequence","chronological","","","","","","",""
"","","","","","html-keyboard-response","172","649358","0.0-172.0","93E210356AE04741BCEB79430C16C38E","019daca4-7943-7729-a325-3c78911a212a","019dac5b-243f-7307-af64-a10f53f1ef70","","null","
                <div class=""stimulus-container"">
                    <img src=""images/causal_sequence/dog_causal/dog_causal_5.png"" class=""exp-image"">
                    <div class=""question-area""></div> 
                </div>","null","","","","","","","","","","","",""
"","","","","","html-button-response","173","650043","0.0-173.0","93E210356AE04741BCEB79430C16C38E","019daca4-7943-7729-a325-3c78911a212a","019dac5b-243f-7307-af64-a10f53f1ef70","","684","
                <div class=""stimulus-container"">
                    <img src=""images/causal_sequence/dog_causal/dog_causal_5.png"" class=""exp-image"">
                    <div class=""question-area"">
                        <p style=""font-size: 20px; font-weight: bold; margin: 0;"">Is there a person in this image?</p>
                    </div>
                </div>","0","main_experiment_trial","5","dog_causal","causal_sequence","chronological","","","","","","",""
"","","","","","html-keyboard-response","174","655049","0.0-174.0","93E210356AE04741BCEB79430C16C38E","019daca4-7943-7729-a325-3c78911a212a","019dac5b-243f-7307-af64-a10f53f1ef70","","null","
                <div class=""stimulus-container"">
                    <img src=""images/causal_sequence/dog_causal/dog_causal_6.png"" class=""exp-image"">
                    <div class=""question-area""></div> 
                </div>","null","","","","","","","","","","","",""
"","","","","","html-button-response","175","655524","0.0-175.0","93E210356AE04741BCEB79430C16C38E","019daca4-7943-7729-a325-3c78911a212a","019dac5b-243f-7307-af64-a10f53f1ef70","","474","
                <div class=""stimulus-container"">
                    <img src=""images/causal_sequence/dog_causal/dog_causal_6.png"" class=""exp-image"">
                    <div class=""question-area"">
                        <p style=""font-size: 20px; font-weight: bold; margin: 0;"">Is there a person in this image?</p>
                    </div>
                </div>","0","main_experiment_trial","6","dog_causal","causal_sequence","chronological","","","","","","",""
"","","","","","html-keyboard-response","176","660532","0.0-176.0","93E210356AE04741BCEB79430C16C38E","019daca4-7943-7729-a325-3c78911a212a","019dac5b-243f-7307-af64-a10f53f1ef70","","null","
                <div class=""stimulus-container"">
                    <img src=""images/causal_sequence/dog_causal/dog_causal_7.png"" class=""exp-image"">
                    <div class=""question-area""></div> 
                </div>","null","","","","","","","","","","","",""
