"success","timeout","failed_images","failed_audio","failed_video","trial_type","trial_index","time_elapsed","internal_node_id","subject_id","study_id","session_id","view_history","rt","stimulus","response","task","image_index","folder","sequence_type","valuable_image_index","reward_type","chosen_image_index","target_X","correct_choice"
"true","false","[]","[]","[]","preload","0","3592","0.0-0.0","AF7404639EA04A159395FC72203B3983","019cf716-4c30-7bf7-83dd-31fb192efe38","019cf6fe-235e-7d95-bb9b-b011d2fe188e","","","","","","","","","","","","",""
"","","","","","instructions","1","6278","0.0-1.0","AF7404639EA04A159395FC72203B3983","019cf716-4c30-7bf7-83dd-31fb192efe38","019cf6fe-235e-7d95-bb9b-b011d2fe188e","[{""page_index"":0,""viewing_time"":2685}]","2685","","","","","","","","","","",""
"","","","","","instructions","2","15727","0.0-2.0","AF7404639EA04A159395FC72203B3983","019cf716-4c30-7bf7-83dd-31fb192efe38","019cf6fe-235e-7d95-bb9b-b011d2fe188e","[{""page_index"":0,""viewing_time"":9449}]","9449","","","","","","","","","","",""
"true","","","","","fullscreen","3","19173","0.0-3.0","AF7404639EA04A159395FC72203B3983","019cf716-4c30-7bf7-83dd-31fb192efe38","019cf6fe-235e-7d95-bb9b-b011d2fe188e","","2446","","","","","","","","","","",""
"","","","","","instructions","4","27425","0.0-4.0","AF7404639EA04A159395FC72203B3983","019cf716-4c30-7bf7-83dd-31fb192efe38","019cf6fe-235e-7d95-bb9b-b011d2fe188e","[{""page_index"":0,""viewing_time"":8251}]","8251","","","","","","","","","","",""
"","","","","","instructions","5","47942","0.0-5.0","AF7404639EA04A159395FC72203B3983","019cf716-4c30-7bf7-83dd-31fb192efe38","019cf6fe-235e-7d95-bb9b-b011d2fe188e","[{""page_index"":0,""viewing_time"":20517}]","20517","","","","","","","","","","",""
"","","","","","html-keyboard-response","6","51944","0.0-6.0","AF7404639EA04A159395FC72203B3983","019cf716-4c30-7bf7-83dd-31fb192efe38","019cf6fe-235e-7d95-bb9b-b011d2fe188e","","null","
                <div class=""stimulus-container"">
                    <img src=""images/instructions/movie_1.png"" class=""exp-image"">
                    <div class=""question-area""></div> 
                </div>","null","","","","","","","","",""
"","","","","","html-button-response","7","54618","0.0-7.0","AF7404639EA04A159395FC72203B3983","019cf716-4c30-7bf7-83dd-31fb192efe38","019cf6fe-235e-7d95-bb9b-b011d2fe188e","","2673","
                <div class=""stimulus-container"">
                    <img src=""images/instructions/movie_1.png"" class=""exp-image"">
                    <div class=""question-area"">
                        <p style=""font-size: 20px; font-weight: bold; margin: 0;"">Was there a person in this image?</p>
                    </div>
                </div>","0","example_question","1","","","","","","",""
"","","","","","html-keyboard-response","8","58619","0.0-8.0","AF7404639EA04A159395FC72203B3983","019cf716-4c30-7bf7-83dd-31fb192efe38","019cf6fe-235e-7d95-bb9b-b011d2fe188e","","null","
                <div class=""stimulus-container"">
                    <img src=""images/instructions/movie_2.png"" class=""exp-image"">
                    <div class=""question-area""></div> 
                </div>","null","","","","","","","","",""
"","","","","","html-button-response","9","61008","0.0-9.0","AF7404639EA04A159395FC72203B3983","019cf716-4c30-7bf7-83dd-31fb192efe38","019cf6fe-235e-7d95-bb9b-b011d2fe188e","","2388","
                <div class=""stimulus-container"">
                    <img src=""images/instructions/movie_2.png"" class=""exp-image"">
                    <div class=""question-area"">
                        <p style=""font-size: 20px; font-weight: bold; margin: 0;"">Was there a person in this image?</p>
                    </div>
                </div>","1","example_question","2","","","","","","",""
"","","","","","html-keyboard-response","10","65008","0.0-10.0","AF7404639EA04A159395FC72203B3983","019cf716-4c30-7bf7-83dd-31fb192efe38","019cf6fe-235e-7d95-bb9b-b011d2fe188e","","null","
                <div class=""stimulus-container"">
                    <img src=""images/instructions/movie_3.png"" class=""exp-image"">
                    <div class=""question-area""></div> 
                </div>","null","","","","","","","","",""
"","","","","","html-button-response","11","65686","0.0-11.0","AF7404639EA04A159395FC72203B3983","019cf716-4c30-7bf7-83dd-31fb192efe38","019cf6fe-235e-7d95-bb9b-b011d2fe188e","","677","
                <div class=""stimulus-container"">
                    <img src=""images/instructions/movie_3.png"" class=""exp-image"">
                    <div class=""question-area"">
                        <p style=""font-size: 20px; font-weight: bold; margin: 0;"">Was there a person in this image?</p>
                    </div>
                </div>","0","example_question","3","","","","","","",""
"","","","","","html-keyboard-response","12","69687","0.0-12.0","AF7404639EA04A159395FC72203B3983","019cf716-4c30-7bf7-83dd-31fb192efe38","019cf6fe-235e-7d95-bb9b-b011d2fe188e","","null","
                <div class=""stimulus-container"">
                    <img src=""images/instructions/movie_4.png"" class=""exp-image"">
                    <div class=""question-area""></div> 
                </div>","null","","","","","","","","",""
"","","","","","html-button-response","13","70555","0.0-13.0","AF7404639EA04A159395FC72203B3983","019cf716-4c30-7bf7-83dd-31fb192efe38","019cf6fe-235e-7d95-bb9b-b011d2fe188e","","867","
                <div class=""stimulus-container"">
                    <img src=""images/instructions/movie_4.png"" class=""exp-image"">
                    <div class=""question-area"">
                        <p style=""font-size: 20px; font-weight: bold; margin: 0;"">Was there a person in this image?</p>
                    </div>
                </div>","0","example_question","4","","","","","","",""
"","","","","","instructions","14","72984","0.0-14.0","AF7404639EA04A159395FC72203B3983","019cf716-4c30-7bf7-83dd-31fb192efe38","019cf6fe-235e-7d95-bb9b-b011d2fe188e","[{""page_index"":0,""viewing_time"":2429}]","2429","","","","","","","","","","",""
"","","","","","instructions","15","78013","0.0-15.0","AF7404639EA04A159395FC72203B3983","019cf716-4c30-7bf7-83dd-31fb192efe38","019cf6fe-235e-7d95-bb9b-b011d2fe188e","[{""page_index"":0,""viewing_time"":5028}]","5028","","","","","","","","","","",""
"","","","","","html-keyboard-response","16","79013","0.0-16.0","AF7404639EA04A159395FC72203B3983","019cf716-4c30-7bf7-83dd-31fb192efe38","019cf6fe-235e-7d95-bb9b-b011d2fe188e","","null","<div style=""background-color: white; width: 100vw; height: 100vh;""></div>","null","","","","","","","","",""
"","","","","","html-keyboard-response","17","84015","0.0-17.0","AF7404639EA04A159395FC72203B3983","019cf716-4c30-7bf7-83dd-31fb192efe38","019cf6fe-235e-7d95-bb9b-b011d2fe188e","","null","
                <div class=""stimulus-container"">
                    <img src=""images/causal_sequence/museum_causal/museum_causal_1.png"" class=""exp-image"">
                    <div class=""question-area""></div> 
                </div>","null","","","","","","","","",""
"","","","","","html-button-response","18","85079","0.0-18.0","AF7404639EA04A159395FC72203B3983","019cf716-4c30-7bf7-83dd-31fb192efe38","019cf6fe-235e-7d95-bb9b-b011d2fe188e","","1063","
                <div class=""stimulus-container"">
                    <img src=""images/causal_sequence/museum_causal/museum_causal_1.png"" class=""exp-image"">
                    <div class=""question-area"">
                        <p style=""font-size: 20px; font-weight: bold; margin: 0;"">Is there a person in this image?</p>
                    </div>
                </div>","0","main_experiment_trial","1","museum_causal","causal_sequence","","","","",""
"","","","","","html-keyboard-response","19","90080","0.0-19.0","AF7404639EA04A159395FC72203B3983","019cf716-4c30-7bf7-83dd-31fb192efe38","019cf6fe-235e-7d95-bb9b-b011d2fe188e","","null","
                <div class=""stimulus-container"">
                    <img src=""images/causal_sequence/museum_causal/museum_causal_2.png"" class=""exp-image"">
                    <div class=""question-area""></div> 
                </div>","null","","","","","","","","",""
"","","","","","html-button-response","20","90972","0.0-20.0","AF7404639EA04A159395FC72203B3983","019cf716-4c30-7bf7-83dd-31fb192efe38","019cf6fe-235e-7d95-bb9b-b011d2fe188e","","891","
                <div class=""stimulus-container"">
                    <img src=""images/causal_sequence/museum_causal/museum_causal_2.png"" class=""exp-image"">
                    <div class=""question-area"">
                        <p style=""font-size: 20px; font-weight: bold; margin: 0;"">Is there a person in this image?</p>
                    </div>
                </div>","0","main_experiment_trial","2","museum_causal","causal_sequence","","","","",""
"","","","","","html-keyboard-response","21","95973","0.0-21.0","AF7404639EA04A159395FC72203B3983","019cf716-4c30-7bf7-83dd-31fb192efe38","019cf6fe-235e-7d95-bb9b-b011d2fe188e","","null","
                <div class=""stimulus-container"">
                    <img src=""images/causal_sequence/museum_causal/museum_causal_3.png"" class=""exp-image"">
                    <div class=""question-area""></div> 
                </div>","null","","","","","","","","",""
"","","","","","html-button-response","22","96897","0.0-22.0","AF7404639EA04A159395FC72203B3983","019cf716-4c30-7bf7-83dd-31fb192efe38","019cf6fe-235e-7d95-bb9b-b011d2fe188e","","923","
                <div class=""stimulus-container"">
                    <img src=""images/causal_sequence/museum_causal/museum_causal_3.png"" class=""exp-image"">
                    <div class=""question-area"">
                        <p style=""font-size: 20px; font-weight: bold; margin: 0;"">Is there a person in this image?</p>
                    </div>
                </div>","0","main_experiment_trial","3","museum_causal","causal_sequence","","","","",""
"","","","","","html-keyboard-response","23","101898","0.0-23.0","AF7404639EA04A159395FC72203B3983","019cf716-4c30-7bf7-83dd-31fb192efe38","019cf6fe-235e-7d95-bb9b-b011d2fe188e","","null","
                <div class=""stimulus-container"">
                    <img src=""images/causal_sequence/museum_causal/museum_causal_4.png"" class=""exp-image"">
                    <div class=""question-area""></div> 
                </div>","null","","","","","","","","",""
"","","","","","html-button-response","24","103815","0.0-24.0","AF7404639EA04A159395FC72203B3983","019cf716-4c30-7bf7-83dd-31fb192efe38","019cf6fe-235e-7d95-bb9b-b011d2fe188e","","1916","
                <div class=""stimulus-container"">
                    <img src=""images/causal_sequence/museum_causal/museum_causal_4.png"" class=""exp-image"">
                    <div class=""question-area"">
                        <p style=""font-size: 20px; font-weight: bold; margin: 0;"">Is there a person in this image?</p>
                    </div>
                </div>","1","main_experiment_trial","4","museum_causal","causal_sequence","","","","",""
"","","","","","html-keyboard-response","25","108816","0.0-25.0","AF7404639EA04A159395FC72203B3983","019cf716-4c30-7bf7-83dd-31fb192efe38","019cf6fe-235e-7d95-bb9b-b011d2fe188e","","null","
                <div class=""stimulus-container"">
                    <img src=""images/causal_sequence/museum_causal/museum_causal_5.png"" class=""exp-image"">
                    <div class=""question-area""></div> 
                </div>","null","","","","","","","","",""
"","","","","","html-button-response","26","110329","0.0-26.0","AF7404639EA04A159395FC72203B3983","019cf716-4c30-7bf7-83dd-31fb192efe38","019cf6fe-235e-7d95-bb9b-b011d2fe188e","","1513","
                <div class=""stimulus-container"">
                    <img src=""images/causal_sequence/museum_causal/museum_causal_5.png"" class=""exp-image"">
                    <div class=""question-area"">
                        <p style=""font-size: 20px; font-weight: bold; margin: 0;"">Is there a person in this image?</p>
                    </div>
                </div>","0","main_experiment_trial","5","museum_causal","causal_sequence","","","","",""
"","","","","","html-keyboard-response","27","115330","0.0-27.0","AF7404639EA04A159395FC72203B3983","019cf716-4c30-7bf7-83dd-31fb192efe38","019cf6fe-235e-7d95-bb9b-b011d2fe188e","","null","
                <div class=""stimulus-container"">
                    <img src=""images/causal_sequence/museum_causal/museum_causal_6.png"" class=""exp-image"">
                    <div class=""question-area""></div> 
                </div>","null","","","","","","","","",""
"","","","","","html-button-response","28","116017","0.0-28.0","AF7404639EA04A159395FC72203B3983","019cf716-4c30-7bf7-83dd-31fb192efe38","019cf6fe-235e-7d95-bb9b-b011d2fe188e","","686","
                <div class=""stimulus-container"">
                    <img src=""images/causal_sequence/museum_causal/museum_causal_6.png"" class=""exp-image"">
                    <div class=""question-area"">
                        <p style=""font-size: 20px; font-weight: bold; margin: 0;"">Is there a person in this image?</p>
                    </div>
                </div>","0","main_experiment_trial","6","museum_causal","causal_sequence","","","","",""
"","","","","","html-keyboard-response","29","121018","0.0-29.0","AF7404639EA04A159395FC72203B3983","019cf716-4c30-7bf7-83dd-31fb192efe38","019cf6fe-235e-7d95-bb9b-b011d2fe188e","","null","
                <div class=""stimulus-container"">
                    <img src=""images/causal_sequence/museum_causal/museum_causal_7.png"" class=""exp-image"">
                    <div class=""question-area""></div> 
                </div>","null","","","","","","","","",""
"","","","","","html-button-response","30","122370","0.0-30.0","AF7404639EA04A159395FC72203B3983","019cf716-4c30-7bf7-83dd-31fb192efe38","019cf6fe-235e-7d95-bb9b-b011d2fe188e","","1351","
                <div class=""stimulus-container"">
                    <img src=""images/causal_sequence/museum_causal/museum_causal_7.png"" class=""exp-image"">
                    <div class=""question-area"">
                        <p style=""font-size: 20px; font-weight: bold; margin: 0;"">Is there a person in this image?</p>
                    </div>
                </div>","1","main_experiment_trial","7","museum_causal","causal_sequence","","","","",""
"","","","","","html-keyboard-response","31","127371","0.0-31.0","AF7404639EA04A159395FC72203B3983","019cf716-4c30-7bf7-83dd-31fb192efe38","019cf6fe-235e-7d95-bb9b-b011d2fe188e","","null","
                <div class=""stimulus-container"">
                    <img src=""images/causal_sequence/museum_causal/museum_causal_8.png"" class=""exp-image"">
                    <div class=""question-area""></div> 
                </div>","null","","","","","","","","",""
"","","","","","html-button-response","32","129404","0.0-32.0","AF7404639EA04A159395FC72203B3983","019cf716-4c30-7bf7-83dd-31fb192efe38","019cf6fe-235e-7d95-bb9b-b011d2fe188e","","2033","
                <div class=""stimulus-container"">
                    <img src=""images/causal_sequence/museum_causal/museum_causal_8.png"" class=""exp-image"">
                    <div class=""question-area"">
                        <p style=""font-size: 20px; font-weight: bold; margin: 0;"">Is there a person in this image?</p>
                    </div>
                </div>","0","main_experiment_trial","8","museum_causal","causal_sequence","","","","",""
"","","","","","html-keyboard-response","33","134406","0.0-33.0","AF7404639EA04A159395FC72203B3983","019cf716-4c30-7bf7-83dd-31fb192efe38","019cf6fe-235e-7d95-bb9b-b011d2fe188e","","null","
                <div class=""stimulus-container"">
                    <img src=""images/causal_sequence/museum_causal/museum_causal_9.png"" class=""exp-image"">
                    <div class=""question-area""></div> 
                </div>","null","","","","","","","","",""
"","","","","","html-button-response","34","135505","0.0-34.0","AF7404639EA04A159395FC72203B3983","019cf716-4c30-7bf7-83dd-31fb192efe38","019cf6fe-235e-7d95-bb9b-b011d2fe188e","","1099","
                <div class=""stimulus-container"">
                    <img src=""images/causal_sequence/museum_causal/museum_causal_9.png"" class=""exp-image"">
                    <div class=""question-area"">
                        <p style=""font-size: 20px; font-weight: bold; margin: 0;"">Is there a person in this image?</p>
                    </div>
                </div>","1","main_experiment_trial","9","museum_causal","causal_sequence","","","","",""
"","","","","","html-keyboard-response","35","140506","0.0-35.0","AF7404639EA04A159395FC72203B3983","019cf716-4c30-7bf7-83dd-31fb192efe38","019cf6fe-235e-7d95-bb9b-b011d2fe188e","","null","
                <div class=""stimulus-container"">
                    <img src=""images/causal_sequence/museum_causal/museum_causal_ten.png"" class=""exp-image"">
                    <div class=""question-area""></div> 
                </div>","null","","","","","","","","",""
"","","","","","html-button-response","36","141309","0.0-36.0","AF7404639EA04A159395FC72203B3983","019cf716-4c30-7bf7-83dd-31fb192efe38","019cf6fe-235e-7d95-bb9b-b011d2fe188e","","802","
                <div class=""stimulus-container"">
                    <img src=""images/causal_sequence/museum_causal/museum_causal_ten.png"" class=""exp-image"">
                    <div class=""question-area"">
                        <p style=""font-size: 20px; font-weight: bold; margin: 0;"">Is there a person in this image?</p>
                    </div>
                </div>","0","main_experiment_trial","ten","museum_causal","causal_sequence","","","","",""
"","","","","","html-keyboard-response","37","142310","0.0-37.0","AF7404639EA04A159395FC72203B3983","019cf716-4c30-7bf7-83dd-31fb192efe38","019cf6fe-235e-7d95-bb9b-b011d2fe188e","","null","<div style=""background-color: white; width: 100vw; height: 100vh;""></div>","null","","","","","","","","",""
"","","","","","html-keyboard-response","38","147311","0.0-38.0","AF7404639EA04A159395FC72203B3983","019cf716-4c30-7bf7-83dd-31fb192efe38","019cf6fe-235e-7d95-bb9b-b011d2fe188e","","null","
                <div class=""stimulus-container"">
                    <img src=""images/schematic_sequence/restaurant_scheme/restaurant_scheme_1.png"" class=""exp-image"">
                    <div class=""question-area""></div> 
                </div>","null","","","","","","","","",""
"","","","","","html-button-response","39","148753","0.0-39.0","AF7404639EA04A159395FC72203B3983","019cf716-4c30-7bf7-83dd-31fb192efe38","019cf6fe-235e-7d95-bb9b-b011d2fe188e","","1441","
                <div class=""stimulus-container"">
                    <img src=""images/schematic_sequence/restaurant_scheme/restaurant_scheme_1.png"" class=""exp-image"">
                    <div class=""question-area"">
                        <p style=""font-size: 20px; font-weight: bold; margin: 0;"">Is there a person in this image?</p>
                    </div>
                </div>","0","main_experiment_trial","1","restaurant_scheme","schematic_sequence","","","","",""
"","","","","","html-keyboard-response","40","153753","0.0-40.0","AF7404639EA04A159395FC72203B3983","019cf716-4c30-7bf7-83dd-31fb192efe38","019cf6fe-235e-7d95-bb9b-b011d2fe188e","","null","
                <div class=""stimulus-container"">
                    <img src=""images/schematic_sequence/restaurant_scheme/restaurant_scheme_2.png"" class=""exp-image"">
                    <div class=""question-area""></div> 
                </div>","null","","","","","","","","",""
"","","","","","html-button-response","41","154895","0.0-41.0","AF7404639EA04A159395FC72203B3983","019cf716-4c30-7bf7-83dd-31fb192efe38","019cf6fe-235e-7d95-bb9b-b011d2fe188e","","1141","
                <div class=""stimulus-container"">
                    <img src=""images/schematic_sequence/restaurant_scheme/restaurant_scheme_2.png"" class=""exp-image"">
                    <div class=""question-area"">
                        <p style=""font-size: 20px; font-weight: bold; margin: 0;"">Is there a person in this image?</p>
                    </div>
                </div>","1","main_experiment_trial","2","restaurant_scheme","schematic_sequence","","","","",""
"","","","","","html-keyboard-response","42","159897","0.0-42.0","AF7404639EA04A159395FC72203B3983","019cf716-4c30-7bf7-83dd-31fb192efe38","019cf6fe-235e-7d95-bb9b-b011d2fe188e","","null","
                <div class=""stimulus-container"">
                    <img src=""images/schematic_sequence/restaurant_scheme/restaurant_scheme_3.png"" class=""exp-image"">
                    <div class=""question-area""></div> 
                </div>","null","","","","","","","","",""
"","","","","","html-button-response","43","160906","0.0-43.0","AF7404639EA04A159395FC72203B3983","019cf716-4c30-7bf7-83dd-31fb192efe38","019cf6fe-235e-7d95-bb9b-b011d2fe188e","","1009","
                <div class=""stimulus-container"">
                    <img src=""images/schematic_sequence/restaurant_scheme/restaurant_scheme_3.png"" class=""exp-image"">
                    <div class=""question-area"">
                        <p style=""font-size: 20px; font-weight: bold; margin: 0;"">Is there a person in this image?</p>
                    </div>
                </div>","1","main_experiment_trial","3","restaurant_scheme","schematic_sequence","","","","",""
"","","","","","html-keyboard-response","44","165908","0.0-44.0","AF7404639EA04A159395FC72203B3983","019cf716-4c30-7bf7-83dd-31fb192efe38","019cf6fe-235e-7d95-bb9b-b011d2fe188e","","null","
                <div class=""stimulus-container"">
                    <img src=""images/schematic_sequence/restaurant_scheme/restaurant_scheme_4.png"" class=""exp-image"">
                    <div class=""question-area""></div> 
                </div>","null","","","","","","","","",""
"","","","","","html-button-response","45","167789","0.0-45.0","AF7404639EA04A159395FC72203B3983","019cf716-4c30-7bf7-83dd-31fb192efe38","019cf6fe-235e-7d95-bb9b-b011d2fe188e","","1881","
                <div class=""stimulus-container"">
                    <img src=""images/schematic_sequence/restaurant_scheme/restaurant_scheme_4.png"" class=""exp-image"">
                    <div class=""question-area"">
                        <p style=""font-size: 20px; font-weight: bold; margin: 0;"">Is there a person in this image?</p>
                    </div>
                </div>","0","main_experiment_trial","4","restaurant_scheme","schematic_sequence","","","","",""
"","","","","","html-keyboard-response","46","172790","0.0-46.0","AF7404639EA04A159395FC72203B3983","019cf716-4c30-7bf7-83dd-31fb192efe38","019cf6fe-235e-7d95-bb9b-b011d2fe188e","","null","
                <div class=""stimulus-container"">
                    <img src=""images/schematic_sequence/restaurant_scheme/restaurant_scheme_5.png"" class=""exp-image"">
                    <div class=""question-area""></div> 
                </div>","null","","","","","","","","",""
"","","","","","html-button-response","47","175791","0.0-47.0","AF7404639EA04A159395FC72203B3983","019cf716-4c30-7bf7-83dd-31fb192efe38","019cf6fe-235e-7d95-bb9b-b011d2fe188e","","null","
                <div class=""stimulus-container"">
                    <img src=""images/schematic_sequence/restaurant_scheme/restaurant_scheme_5.png"" class=""exp-image"">
                    <div class=""question-area"">
                        <p style=""font-size: 20px; font-weight: bold; margin: 0;"">Is there a person in this image?</p>
                    </div>
                </div>","null","main_experiment_trial","5","restaurant_scheme","schematic_sequence","","","","",""
"","","","","","html-keyboard-response","48","180792","0.0-48.0","AF7404639EA04A159395FC72203B3983","019cf716-4c30-7bf7-83dd-31fb192efe38","019cf6fe-235e-7d95-bb9b-b011d2fe188e","","null","
                <div class=""stimulus-container"">
                    <img src=""images/schematic_sequence/restaurant_scheme/restaurant_scheme_6.png"" class=""exp-image"">
                    <div class=""question-area""></div> 
                </div>","null","","","","","","","","",""
"","","","","","html-button-response","49","181665","0.0-49.0","AF7404639EA04A159395FC72203B3983","019cf716-4c30-7bf7-83dd-31fb192efe38","019cf6fe-235e-7d95-bb9b-b011d2fe188e","","873","
                <div class=""stimulus-container"">
                    <img src=""images/schematic_sequence/restaurant_scheme/restaurant_scheme_6.png"" class=""exp-image"">
                    <div class=""question-area"">
                        <p style=""font-size: 20px; font-weight: bold; margin: 0;"">Is there a person in this image?</p>
                    </div>
                </div>","1","main_experiment_trial","6","restaurant_scheme","schematic_sequence","","","","",""
"","","","","","html-keyboard-response","50","186666","0.0-50.0","AF7404639EA04A159395FC72203B3983","019cf716-4c30-7bf7-83dd-31fb192efe38","019cf6fe-235e-7d95-bb9b-b011d2fe188e","","null","
                <div class=""stimulus-container"">
                    <img src=""images/schematic_sequence/restaurant_scheme/restaurant_scheme_7.png"" class=""exp-image"">
                    <div class=""question-area""></div> 
                </div>","null","","","","","","","","",""
"","","","","","html-button-response","51","188054","0.0-51.0","AF7404639EA04A159395FC72203B3983","019cf716-4c30-7bf7-83dd-31fb192efe38","019cf6fe-235e-7d95-bb9b-b011d2fe188e","","1387","
                <div class=""stimulus-container"">
                    <img src=""images/schematic_sequence/restaurant_scheme/restaurant_scheme_7.png"" class=""exp-image"">
                    <div class=""question-area"">
                        <p style=""font-size: 20px; font-weight: bold; margin: 0;"">Is there a person in this image?</p>
                    </div>
                </div>","1","main_experiment_trial","7","restaurant_scheme","schematic_sequence","","","","",""
"","","","","","html-keyboard-response","52","193055","0.0-52.0","AF7404639EA04A159395FC72203B3983","019cf716-4c30-7bf7-83dd-31fb192efe38","019cf6fe-235e-7d95-bb9b-b011d2fe188e","","null","
                <div class=""stimulus-container"">
                    <img src=""images/schematic_sequence/restaurant_scheme/restaurant_scheme_8.png"" class=""exp-image"">
                    <div class=""question-area""></div> 
                </div>","null","","","","","","","","",""
"","","","","","html-button-response","53","195237","0.0-53.0","AF7404639EA04A159395FC72203B3983","019cf716-4c30-7bf7-83dd-31fb192efe38","019cf6fe-235e-7d95-bb9b-b011d2fe188e","","2181","
                <div class=""stimulus-container"">
                    <img src=""images/schematic_sequence/restaurant_scheme/restaurant_scheme_8.png"" class=""exp-image"">
                    <div class=""question-area"">
                        <p style=""font-size: 20px; font-weight: bold; margin: 0;"">Is there a person in this image?</p>
                    </div>
                </div>","0","main_experiment_trial","8","restaurant_scheme","schematic_sequence","","","","",""
"","","","","","html-keyboard-response","54","200238","0.0-54.0","AF7404639EA04A159395FC72203B3983","019cf716-4c30-7bf7-83dd-31fb192efe38","019cf6fe-235e-7d95-bb9b-b011d2fe188e","","null","
                <div class=""stimulus-container"">
                    <img src=""images/schematic_sequence/restaurant_scheme/restaurant_scheme_9.png"" class=""exp-image"">
                    <div class=""question-area""></div> 
                </div>","null","","","","","","","","",""
"","","","","","html-button-response","55","201562","0.0-55.0","AF7404639EA04A159395FC72203B3983","019cf716-4c30-7bf7-83dd-31fb192efe38","019cf6fe-235e-7d95-bb9b-b011d2fe188e","","1324","
                <div class=""stimulus-container"">
                    <img src=""images/schematic_sequence/restaurant_scheme/restaurant_scheme_9.png"" class=""exp-image"">
                    <div class=""question-area"">
                        <p style=""font-size: 20px; font-weight: bold; margin: 0;"">Is there a person in this image?</p>
                    </div>
                </div>","0","main_experiment_trial","9","restaurant_scheme","schematic_sequence","","","","",""
"","","","","","html-keyboard-response","56","206563","0.0-56.0","AF7404639EA04A159395FC72203B3983","019cf716-4c30-7bf7-83dd-31fb192efe38","019cf6fe-235e-7d95-bb9b-b011d2fe188e","","null","
                <div class=""stimulus-container"">
                    <img src=""images/schematic_sequence/restaurant_scheme/restaurant_scheme_ten.png"" class=""exp-image"">
                    <div class=""question-area""></div> 
                </div>","null","","","","","","","","",""
"","","","","","html-button-response","57","207633","0.0-57.0","AF7404639EA04A159395FC72203B3983","019cf716-4c30-7bf7-83dd-31fb192efe38","019cf6fe-235e-7d95-bb9b-b011d2fe188e","","1070","
                <div class=""stimulus-container"">
                    <img src=""images/schematic_sequence/restaurant_scheme/restaurant_scheme_ten.png"" class=""exp-image"">
                    <div class=""question-area"">
                        <p style=""font-size: 20px; font-weight: bold; margin: 0;"">Is there a person in this image?</p>
                    </div>
                </div>","0","main_experiment_trial","ten","restaurant_scheme","schematic_sequence","","","","",""
"","","","","","html-keyboard-response","58","208635","0.0-58.0","AF7404639EA04A159395FC72203B3983","019cf716-4c30-7bf7-83dd-31fb192efe38","019cf6fe-235e-7d95-bb9b-b011d2fe188e","","null","<div style=""background-color: white; width: 100vw; height: 100vh;""></div>","null","","","","","","","","",""
"","","","","","html-keyboard-response","59","213636","0.0-59.0","AF7404639EA04A159395FC72203B3983","019cf716-4c30-7bf7-83dd-31fb192efe38","019cf6fe-235e-7d95-bb9b-b011d2fe188e","","null","
                <div class=""stimulus-container"">
                    <img src=""images/schematic_sequence/dinner_party_scheme/dinner_party_scheme_1.png"" class=""exp-image"">
                    <div class=""question-area""></div> 
                </div>","null","","","","","","","","",""
"","","","","","html-button-response","60","214699","0.0-60.0","AF7404639EA04A159395FC72203B3983","019cf716-4c30-7bf7-83dd-31fb192efe38","019cf6fe-235e-7d95-bb9b-b011d2fe188e","","1063","
                <div class=""stimulus-container"">
                    <img src=""images/schematic_sequence/dinner_party_scheme/dinner_party_scheme_1.png"" class=""exp-image"">
                    <div class=""question-area"">
                        <p style=""font-size: 20px; font-weight: bold; margin: 0;"">Is there a person in this image?</p>
                    </div>
                </div>","0","main_experiment_trial","1","dinner_party_scheme","schematic_sequence","","","","",""
"","","","","","html-keyboard-response","61","219701","0.0-61.0","AF7404639EA04A159395FC72203B3983","019cf716-4c30-7bf7-83dd-31fb192efe38","019cf6fe-235e-7d95-bb9b-b011d2fe188e","","null","
                <div class=""stimulus-container"">
                    <img src=""images/schematic_sequence/dinner_party_scheme/dinner_party_scheme_2.png"" class=""exp-image"">
                    <div class=""question-area""></div> 
                </div>","null","","","","","","","","",""
"","","","","","html-button-response","62","220590","0.0-62.0","AF7404639EA04A159395FC72203B3983","019cf716-4c30-7bf7-83dd-31fb192efe38","019cf6fe-235e-7d95-bb9b-b011d2fe188e","","889","
                <div class=""stimulus-container"">
                    <img src=""images/schematic_sequence/dinner_party_scheme/dinner_party_scheme_2.png"" class=""exp-image"">
                    <div class=""question-area"">
                        <p style=""font-size: 20px; font-weight: bold; margin: 0;"">Is there a person in this image?</p>
                    </div>
                </div>","0","main_experiment_trial","2","dinner_party_scheme","schematic_sequence","","","","",""
"","","","","","html-keyboard-response","63","225591","0.0-63.0","AF7404639EA04A159395FC72203B3983","019cf716-4c30-7bf7-83dd-31fb192efe38","019cf6fe-235e-7d95-bb9b-b011d2fe188e","","null","
                <div class=""stimulus-container"">
                    <img src=""images/schematic_sequence/dinner_party_scheme/dinner_party_scheme_3.png"" class=""exp-image"">
                    <div class=""question-area""></div> 
                </div>","null","","","","","","","","",""
"","","","","","html-button-response","64","227611","0.0-64.0","AF7404639EA04A159395FC72203B3983","019cf716-4c30-7bf7-83dd-31fb192efe38","019cf6fe-235e-7d95-bb9b-b011d2fe188e","","2020","
                <div class=""stimulus-container"">
                    <img src=""images/schematic_sequence/dinner_party_scheme/dinner_party_scheme_3.png"" class=""exp-image"">
                    <div class=""question-area"">
                        <p style=""font-size: 20px; font-weight: bold; margin: 0;"">Is there a person in this image?</p>
                    </div>
                </div>","0","main_experiment_trial","3","dinner_party_scheme","schematic_sequence","","","","",""
"","","","","","html-keyboard-response","65","232612","0.0-65.0","AF7404639EA04A159395FC72203B3983","019cf716-4c30-7bf7-83dd-31fb192efe38","019cf6fe-235e-7d95-bb9b-b011d2fe188e","","null","
                <div class=""stimulus-container"">
                    <img src=""images/schematic_sequence/dinner_party_scheme/dinner_party_scheme_4.png"" class=""exp-image"">
                    <div class=""question-area""></div> 
                </div>","null","","","","","","","","",""
"","","","","","html-button-response","66","234149","0.0-66.0","AF7404639EA04A159395FC72203B3983","019cf716-4c30-7bf7-83dd-31fb192efe38","019cf6fe-235e-7d95-bb9b-b011d2fe188e","","1536","
                <div class=""stimulus-container"">
                    <img src=""images/schematic_sequence/dinner_party_scheme/dinner_party_scheme_4.png"" class=""exp-image"">
                    <div class=""question-area"">
                        <p style=""font-size: 20px; font-weight: bold; margin: 0;"">Is there a person in this image?</p>
                    </div>
                </div>","0","main_experiment_trial","4","dinner_party_scheme","schematic_sequence","","","","",""
"","","","","","html-keyboard-response","67","239150","0.0-67.0","AF7404639EA04A159395FC72203B3983","019cf716-4c30-7bf7-83dd-31fb192efe38","019cf6fe-235e-7d95-bb9b-b011d2fe188e","","null","
                <div class=""stimulus-container"">
                    <img src=""images/schematic_sequence/dinner_party_scheme/dinner_party_scheme_5.png"" class=""exp-image"">
                    <div class=""question-area""></div> 
                </div>","null","","","","","","","","",""
"","","","","","html-button-response","68","240172","0.0-68.0","AF7404639EA04A159395FC72203B3983","019cf716-4c30-7bf7-83dd-31fb192efe38","019cf6fe-235e-7d95-bb9b-b011d2fe188e","","1021","
                <div class=""stimulus-container"">
                    <img src=""images/schematic_sequence/dinner_party_scheme/dinner_party_scheme_5.png"" class=""exp-image"">
                    <div class=""question-area"">
                        <p style=""font-size: 20px; font-weight: bold; margin: 0;"">Is there a person in this image?</p>
                    </div>
                </div>","0","main_experiment_trial","5","dinner_party_scheme","schematic_sequence","","","","",""
"","","","","","html-keyboard-response","69","245175","0.0-69.0","AF7404639EA04A159395FC72203B3983","019cf716-4c30-7bf7-83dd-31fb192efe38","019cf6fe-235e-7d95-bb9b-b011d2fe188e","","null","
                <div class=""stimulus-container"">
                    <img src=""images/schematic_sequence/dinner_party_scheme/dinner_party_scheme_6.png"" class=""exp-image"">
                    <div class=""question-area""></div> 
                </div>","null","","","","","","","","",""
"","","","","","html-button-response","70","246596","0.0-70.0","AF7404639EA04A159395FC72203B3983","019cf716-4c30-7bf7-83dd-31fb192efe38","019cf6fe-235e-7d95-bb9b-b011d2fe188e","","1420","
                <div class=""stimulus-container"">
                    <img src=""images/schematic_sequence/dinner_party_scheme/dinner_party_scheme_6.png"" class=""exp-image"">
                    <div class=""question-area"">
                        <p style=""font-size: 20px; font-weight: bold; margin: 0;"">Is there a person in this image?</p>
                    </div>
                </div>","0","main_experiment_trial","6","dinner_party_scheme","schematic_sequence","","","","",""
"","","","","","html-keyboard-response","71","251597","0.0-71.0","AF7404639EA04A159395FC72203B3983","019cf716-4c30-7bf7-83dd-31fb192efe38","019cf6fe-235e-7d95-bb9b-b011d2fe188e","","null","
                <div class=""stimulus-container"">
                    <img src=""images/schematic_sequence/dinner_party_scheme/dinner_party_scheme_7.png"" class=""exp-image"">
                    <div class=""question-area""></div> 
                </div>","null","","","","","","","","",""
"","","","","","html-button-response","72","253202","0.0-72.0","AF7404639EA04A159395FC72203B3983","019cf716-4c30-7bf7-83dd-31fb192efe38","019cf6fe-235e-7d95-bb9b-b011d2fe188e","","1604","
                <div class=""stimulus-container"">
                    <img src=""images/schematic_sequence/dinner_party_scheme/dinner_party_scheme_7.png"" class=""exp-image"">
                    <div class=""question-area"">
                        <p style=""font-size: 20px; font-weight: bold; margin: 0;"">Is there a person in this image?</p>
                    </div>
                </div>","0","main_experiment_trial","7","dinner_party_scheme","schematic_sequence","","","","",""
"","","","","","html-keyboard-response","73","258203","0.0-73.0","AF7404639EA04A159395FC72203B3983","019cf716-4c30-7bf7-83dd-31fb192efe38","019cf6fe-235e-7d95-bb9b-b011d2fe188e","","null","
                <div class=""stimulus-container"">
                    <img src=""images/schematic_sequence/dinner_party_scheme/dinner_party_scheme_8.png"" class=""exp-image"">
                    <div class=""question-area""></div> 
                </div>","null","","","","","","","","",""
"","","","","","html-button-response","74","259274","0.0-74.0","AF7404639EA04A159395FC72203B3983","019cf716-4c30-7bf7-83dd-31fb192efe38","019cf6fe-235e-7d95-bb9b-b011d2fe188e","","1070","
                <div class=""stimulus-container"">
                    <img src=""images/schematic_sequence/dinner_party_scheme/dinner_party_scheme_8.png"" class=""exp-image"">
                    <div class=""question-area"">
                        <p style=""font-size: 20px; font-weight: bold; margin: 0;"">Is there a person in this image?</p>
                    </div>
                </div>","0","main_experiment_trial","8","dinner_party_scheme","schematic_sequence","","","","",""
"","","","","","html-keyboard-response","75","264275","0.0-75.0","AF7404639EA04A159395FC72203B3983","019cf716-4c30-7bf7-83dd-31fb192efe38","019cf6fe-235e-7d95-bb9b-b011d2fe188e","","null","
                <div class=""stimulus-container"">
                    <img src=""images/schematic_sequence/dinner_party_scheme/dinner_party_scheme_9.png"" class=""exp-image"">
                    <div class=""question-area""></div> 
                </div>","null","","","","","","","","",""
"","","","","","html-button-response","76","266027","0.0-76.0","AF7404639EA04A159395FC72203B3983","019cf716-4c30-7bf7-83dd-31fb192efe38","019cf6fe-235e-7d95-bb9b-b011d2fe188e","","1752","
                <div class=""stimulus-container"">
                    <img src=""images/schematic_sequence/dinner_party_scheme/dinner_party_scheme_9.png"" class=""exp-image"">
                    <div class=""question-area"">
                        <p style=""font-size: 20px; font-weight: bold; margin: 0;"">Is there a person in this image?</p>
                    </div>
                </div>","0","main_experiment_trial","9","dinner_party_scheme","schematic_sequence","","","","",""
"","","","","","html-keyboard-response","77","271028","0.0-77.0","AF7404639EA04A159395FC72203B3983","019cf716-4c30-7bf7-83dd-31fb192efe38","019cf6fe-235e-7d95-bb9b-b011d2fe188e","","null","
                <div class=""stimulus-container"">
                    <img src=""images/schematic_sequence/dinner_party_scheme/dinner_party_scheme_ten.png"" class=""exp-image"">
                    <div class=""question-area""></div> 
                </div>","null","","","","","","","","",""
"","","","","","html-button-response","78","272884","0.0-78.0","AF7404639EA04A159395FC72203B3983","019cf716-4c30-7bf7-83dd-31fb192efe38","019cf6fe-235e-7d95-bb9b-b011d2fe188e","","1855","
                <div class=""stimulus-container"">
                    <img src=""images/schematic_sequence/dinner_party_scheme/dinner_party_scheme_ten.png"" class=""exp-image"">
                    <div class=""question-area"">
                        <p style=""font-size: 20px; font-weight: bold; margin: 0;"">Is there a person in this image?</p>
                    </div>
                </div>","0","main_experiment_trial","ten","dinner_party_scheme","schematic_sequence","","","","",""
"","","","","","html-keyboard-response","79","273885","0.0-79.0","AF7404639EA04A159395FC72203B3983","019cf716-4c30-7bf7-83dd-31fb192efe38","019cf6fe-235e-7d95-bb9b-b011d2fe188e","","null","<div style=""background-color: white; width: 100vw; height: 100vh;""></div>","null","","","","","","","","",""
"","","","","","html-keyboard-response","80","278886","0.0-80.0","AF7404639EA04A159395FC72203B3983","019cf716-4c30-7bf7-83dd-31fb192efe38","019cf6fe-235e-7d95-bb9b-b011d2fe188e","","null","
                <div class=""stimulus-container"">
                    <img src=""images/causal_sequence/the_performance_causal/the_performance_causal_1.png"" class=""exp-image"">
                    <div class=""question-area""></div> 
                </div>","null","","","","","","","","",""
"","","","","","html-button-response","81","280476","0.0-81.0","AF7404639EA04A159395FC72203B3983","019cf716-4c30-7bf7-83dd-31fb192efe38","019cf6fe-235e-7d95-bb9b-b011d2fe188e","","1589","
                <div class=""stimulus-container"">
                    <img src=""images/causal_sequence/the_performance_causal/the_performance_causal_1.png"" class=""exp-image"">
                    <div class=""question-area"">
                        <p style=""font-size: 20px; font-weight: bold; margin: 0;"">Is there a person in this image?</p>
                    </div>
                </div>","0","main_experiment_trial","1","the_performance_causal","causal_sequence","","","","",""
"","","","","","html-keyboard-response","82","285477","0.0-82.0","AF7404639EA04A159395FC72203B3983","019cf716-4c30-7bf7-83dd-31fb192efe38","019cf6fe-235e-7d95-bb9b-b011d2fe188e","","null","
                <div class=""stimulus-container"">
                    <img src=""images/causal_sequence/the_performance_causal/the_performance_causal_2.png"" class=""exp-image"">
                    <div class=""question-area""></div> 
                </div>","null","","","","","","","","",""
"","","","","","html-button-response","83","287585","0.0-83.0","AF7404639EA04A159395FC72203B3983","019cf716-4c30-7bf7-83dd-31fb192efe38","019cf6fe-235e-7d95-bb9b-b011d2fe188e","","2108","
                <div class=""stimulus-container"">
                    <img src=""images/causal_sequence/the_performance_causal/the_performance_causal_2.png"" class=""exp-image"">
                    <div class=""question-area"">
                        <p style=""font-size: 20px; font-weight: bold; margin: 0;"">Is there a person in this image?</p>
                    </div>
                </div>","0","main_experiment_trial","2","the_performance_causal","causal_sequence","","","","",""
"","","","","","html-keyboard-response","84","292586","0.0-84.0","AF7404639EA04A159395FC72203B3983","019cf716-4c30-7bf7-83dd-31fb192efe38","019cf6fe-235e-7d95-bb9b-b011d2fe188e","","null","
                <div class=""stimulus-container"">
                    <img src=""images/causal_sequence/the_performance_causal/the_performance_causal_3.png"" class=""exp-image"">
                    <div class=""question-area""></div> 
                </div>","null","","","","","","","","",""
"","","","","","html-button-response","85","294087","0.0-85.0","AF7404639EA04A159395FC72203B3983","019cf716-4c30-7bf7-83dd-31fb192efe38","019cf6fe-235e-7d95-bb9b-b011d2fe188e","","1501","
                <div class=""stimulus-container"">
                    <img src=""images/causal_sequence/the_performance_causal/the_performance_causal_3.png"" class=""exp-image"">
                    <div class=""question-area"">
                        <p style=""font-size: 20px; font-weight: bold; margin: 0;"">Is there a person in this image?</p>
                    </div>
                </div>","0","main_experiment_trial","3","the_performance_causal","causal_sequence","","","","",""
"","","","","","html-keyboard-response","86","299088","0.0-86.0","AF7404639EA04A159395FC72203B3983","019cf716-4c30-7bf7-83dd-31fb192efe38","019cf6fe-235e-7d95-bb9b-b011d2fe188e","","null","
                <div class=""stimulus-container"">
                    <img src=""images/causal_sequence/the_performance_causal/the_performance_causal_4.png"" class=""exp-image"">
                    <div class=""question-area""></div> 
                </div>","null","","","","","","","","",""
"","","","","","html-button-response","87","300943","0.0-87.0","AF7404639EA04A159395FC72203B3983","019cf716-4c30-7bf7-83dd-31fb192efe38","019cf6fe-235e-7d95-bb9b-b011d2fe188e","","1853","
                <div class=""stimulus-container"">
                    <img src=""images/causal_sequence/the_performance_causal/the_performance_causal_4.png"" class=""exp-image"">
                    <div class=""question-area"">
                        <p style=""font-size: 20px; font-weight: bold; margin: 0;"">Is there a person in this image?</p>
                    </div>
                </div>","0","main_experiment_trial","4","the_performance_causal","causal_sequence","","","","",""
"","","","","","html-keyboard-response","88","305945","0.0-88.0","AF7404639EA04A159395FC72203B3983","019cf716-4c30-7bf7-83dd-31fb192efe38","019cf6fe-235e-7d95-bb9b-b011d2fe188e","","null","
                <div class=""stimulus-container"">
                    <img src=""images/causal_sequence/the_performance_causal/the_performance_causal_5.png"" class=""exp-image"">
                    <div class=""question-area""></div> 
                </div>","null","","","","","","","","",""
"","","","","","html-button-response","89","308947","0.0-89.0","AF7404639EA04A159395FC72203B3983","019cf716-4c30-7bf7-83dd-31fb192efe38","019cf6fe-235e-7d95-bb9b-b011d2fe188e","","null","
                <div class=""stimulus-container"">
                    <img src=""images/causal_sequence/the_performance_causal/the_performance_causal_5.png"" class=""exp-image"">
                    <div class=""question-area"">
                        <p style=""font-size: 20px; font-weight: bold; margin: 0;"">Is there a person in this image?</p>
                    </div>
                </div>","null","main_experiment_trial","5","the_performance_causal","causal_sequence","","","","",""
"","","","","","html-keyboard-response","90","313947","0.0-90.0","AF7404639EA04A159395FC72203B3983","019cf716-4c30-7bf7-83dd-31fb192efe38","019cf6fe-235e-7d95-bb9b-b011d2fe188e","","null","
                <div class=""stimulus-container"">
                    <img src=""images/causal_sequence/the_performance_causal/the_performance_causal_6.png"" class=""exp-image"">
                    <div class=""question-area""></div> 
                </div>","null","","","","","","","","",""
"","","","","","html-button-response","91","316854","0.0-91.0","AF7404639EA04A159395FC72203B3983","019cf716-4c30-7bf7-83dd-31fb192efe38","019cf6fe-235e-7d95-bb9b-b011d2fe188e","","2905","
                <div class=""stimulus-container"">
                    <img src=""images/causal_sequence/the_performance_causal/the_performance_causal_6.png"" class=""exp-image"">
                    <div class=""question-area"">
                        <p style=""font-size: 20px; font-weight: bold; margin: 0;"">Is there a person in this image?</p>
                    </div>
                </div>","0","main_experiment_trial","6","the_performance_causal","causal_sequence","","","","",""
"","","","","","html-keyboard-response","92","321854","0.0-92.0","AF7404639EA04A159395FC72203B3983","019cf716-4c30-7bf7-83dd-31fb192efe38","019cf6fe-235e-7d95-bb9b-b011d2fe188e","","null","
                <div class=""stimulus-container"">
                    <img src=""images/causal_sequence/the_performance_causal/the_performance_causal_7.png"" class=""exp-image"">
                    <div class=""question-area""></div> 
                </div>","null","","","","","","","","",""
"","","","","","html-button-response","93","323506","0.0-93.0","AF7404639EA04A159395FC72203B3983","019cf716-4c30-7bf7-83dd-31fb192efe38","019cf6fe-235e-7d95-bb9b-b011d2fe188e","","1652","
                <div class=""stimulus-container"">
                    <img src=""images/causal_sequence/the_performance_causal/the_performance_causal_7.png"" class=""exp-image"">
                    <div class=""question-area"">
                        <p style=""font-size: 20px; font-weight: bold; margin: 0;"">Is there a person in this image?</p>
                    </div>
                </div>","0","main_experiment_trial","7","the_performance_causal","causal_sequence","","","","",""
"","","","","","html-keyboard-response","94","328508","0.0-94.0","AF7404639EA04A159395FC72203B3983","019cf716-4c30-7bf7-83dd-31fb192efe38","019cf6fe-235e-7d95-bb9b-b011d2fe188e","","null","
                <div class=""stimulus-container"">
                    <img src=""images/causal_sequence/the_performance_causal/the_performance_causal_8.png"" class=""exp-image"">
                    <div class=""question-area""></div> 
                </div>","null","","","","","","","","",""
"","","","","","html-button-response","95","330126","0.0-95.0","AF7404639EA04A159395FC72203B3983","019cf716-4c30-7bf7-83dd-31fb192efe38","019cf6fe-235e-7d95-bb9b-b011d2fe188e","","1618","
                <div class=""stimulus-container"">
                    <img src=""images/causal_sequence/the_performance_causal/the_performance_causal_8.png"" class=""exp-image"">
                    <div class=""question-area"">
                        <p style=""font-size: 20px; font-weight: bold; margin: 0;"">Is there a person in this image?</p>
                    </div>
                </div>","0","main_experiment_trial","8","the_performance_causal","causal_sequence","","","","",""
"","","","","","html-keyboard-response","96","335127","0.0-96.0","AF7404639EA04A159395FC72203B3983","019cf716-4c30-7bf7-83dd-31fb192efe38","019cf6fe-235e-7d95-bb9b-b011d2fe188e","","null","
                <div class=""stimulus-container"">
                    <img src=""images/causal_sequence/the_performance_causal/the_performance_causal_9.png"" class=""exp-image"">
                    <div class=""question-area""></div> 
                </div>","null","","","","","","","","",""
"","","","","","html-button-response","97","337079","0.0-97.0","AF7404639EA04A159395FC72203B3983","019cf716-4c30-7bf7-83dd-31fb192efe38","019cf6fe-235e-7d95-bb9b-b011d2fe188e","","1952","
                <div class=""stimulus-container"">
                    <img src=""images/causal_sequence/the_performance_causal/the_performance_causal_9.png"" class=""exp-image"">
                    <div class=""question-area"">
                        <p style=""font-size: 20px; font-weight: bold; margin: 0;"">Is there a person in this image?</p>
                    </div>
                </div>","0","main_experiment_trial","9","the_performance_causal","causal_sequence","","","","",""
"","","","","","html-keyboard-response","98","342081","0.0-98.0","AF7404639EA04A159395FC72203B3983","019cf716-4c30-7bf7-83dd-31fb192efe38","019cf6fe-235e-7d95-bb9b-b011d2fe188e","","null","
                <div class=""stimulus-container"">
                    <img src=""images/causal_sequence/the_performance_causal/the_performance_causal_ten.png"" class=""exp-image"">
                    <div class=""question-area""></div> 
                </div>","null","","","","","","","","",""
"","","","","","html-button-response","99","343652","0.0-99.0","AF7404639EA04A159395FC72203B3983","019cf716-4c30-7bf7-83dd-31fb192efe38","019cf6fe-235e-7d95-bb9b-b011d2fe188e","","1571","
                <div class=""stimulus-container"">
                    <img src=""images/causal_sequence/the_performance_causal/the_performance_causal_ten.png"" class=""exp-image"">
                    <div class=""question-area"">
                        <p style=""font-size: 20px; font-weight: bold; margin: 0;"">Is there a person in this image?</p>
                    </div>
                </div>","0","main_experiment_trial","ten","the_performance_causal","causal_sequence","","","","",""
"","","","","","html-keyboard-response","100","344653","0.0-100.0","AF7404639EA04A159395FC72203B3983","019cf716-4c30-7bf7-83dd-31fb192efe38","019cf6fe-235e-7d95-bb9b-b011d2fe188e","","null","<div style=""background-color: white; width: 100vw; height: 100vh;""></div>","null","","","","","","","","",""
"","","","","","html-keyboard-response","101","349654","0.0-101.0","AF7404639EA04A159395FC72203B3983","019cf716-4c30-7bf7-83dd-31fb192efe38","019cf6fe-235e-7d95-bb9b-b011d2fe188e","","null","
                <div class=""stimulus-container"">
                    <img src=""images/causal_sequence/package_causal/package_causal_1.png"" class=""exp-image"">
                    <div class=""question-area""></div> 
                </div>","null","","","","","","","","",""
"","","","","","html-button-response","102","351803","0.0-102.0","AF7404639EA04A159395FC72203B3983","019cf716-4c30-7bf7-83dd-31fb192efe38","019cf6fe-235e-7d95-bb9b-b011d2fe188e","","2148","
                <div class=""stimulus-container"">
                    <img src=""images/causal_sequence/package_causal/package_causal_1.png"" class=""exp-image"">
                    <div class=""question-area"">
                        <p style=""font-size: 20px; font-weight: bold; margin: 0;"">Is there a person in this image?</p>
                    </div>
                </div>","0","main_experiment_trial","1","package_causal","causal_sequence","","","","",""
"","","","","","html-keyboard-response","103","356804","0.0-103.0","AF7404639EA04A159395FC72203B3983","019cf716-4c30-7bf7-83dd-31fb192efe38","019cf6fe-235e-7d95-bb9b-b011d2fe188e","","null","
                <div class=""stimulus-container"">
                    <img src=""images/causal_sequence/package_causal/package_causal_2.png"" class=""exp-image"">
                    <div class=""question-area""></div> 
                </div>","null","","","","","","","","",""
"","","","","","html-button-response","104","359805","0.0-104.0","AF7404639EA04A159395FC72203B3983","019cf716-4c30-7bf7-83dd-31fb192efe38","019cf6fe-235e-7d95-bb9b-b011d2fe188e","","null","
                <div class=""stimulus-container"">
                    <img src=""images/causal_sequence/package_causal/package_causal_2.png"" class=""exp-image"">
                    <div class=""question-area"">
                        <p style=""font-size: 20px; font-weight: bold; margin: 0;"">Is there a person in this image?</p>
                    </div>
                </div>","null","main_experiment_trial","2","package_causal","causal_sequence","","","","",""
"","","","","","html-keyboard-response","105","364808","0.0-105.0","AF7404639EA04A159395FC72203B3983","019cf716-4c30-7bf7-83dd-31fb192efe38","019cf6fe-235e-7d95-bb9b-b011d2fe188e","","null","
                <div class=""stimulus-container"">
                    <img src=""images/causal_sequence/package_causal/package_causal_3.png"" class=""exp-image"">
                    <div class=""question-area""></div> 
                </div>","null","","","","","","","","",""
"","","","","","html-button-response","106","367520","0.0-106.0","AF7404639EA04A159395FC72203B3983","019cf716-4c30-7bf7-83dd-31fb192efe38","019cf6fe-235e-7d95-bb9b-b011d2fe188e","","2712","
                <div class=""stimulus-container"">
                    <img src=""images/causal_sequence/package_causal/package_causal_3.png"" class=""exp-image"">
                    <div class=""question-area"">
                        <p style=""font-size: 20px; font-weight: bold; margin: 0;"">Is there a person in this image?</p>
                    </div>
                </div>","0","main_experiment_trial","3","package_causal","causal_sequence","","","","",""
"","","","","","html-keyboard-response","107","372522","0.0-107.0","AF7404639EA04A159395FC72203B3983","019cf716-4c30-7bf7-83dd-31fb192efe38","019cf6fe-235e-7d95-bb9b-b011d2fe188e","","null","
                <div class=""stimulus-container"">
                    <img src=""images/causal_sequence/package_causal/package_causal_4.png"" class=""exp-image"">
                    <div class=""question-area""></div> 
                </div>","null","","","","","","","","",""
"","","","","","html-button-response","108","374945","0.0-108.0","AF7404639EA04A159395FC72203B3983","019cf716-4c30-7bf7-83dd-31fb192efe38","019cf6fe-235e-7d95-bb9b-b011d2fe188e","","2423","
                <div class=""stimulus-container"">
                    <img src=""images/causal_sequence/package_causal/package_causal_4.png"" class=""exp-image"">
                    <div class=""question-area"">
                        <p style=""font-size: 20px; font-weight: bold; margin: 0;"">Is there a person in this image?</p>
                    </div>
                </div>","1","main_experiment_trial","4","package_causal","causal_sequence","","","","",""
"","","","","","html-keyboard-response","109","379947","0.0-109.0","AF7404639EA04A159395FC72203B3983","019cf716-4c30-7bf7-83dd-31fb192efe38","019cf6fe-235e-7d95-bb9b-b011d2fe188e","","null","
                <div class=""stimulus-container"">
                    <img src=""images/causal_sequence/package_causal/package_causal_5.png"" class=""exp-image"">
                    <div class=""question-area""></div> 
                </div>","null","","","","","","","","",""
"","","","","","html-button-response","110","382165","0.0-110.0","AF7404639EA04A159395FC72203B3983","019cf716-4c30-7bf7-83dd-31fb192efe38","019cf6fe-235e-7d95-bb9b-b011d2fe188e","","2217","
                <div class=""stimulus-container"">
                    <img src=""images/causal_sequence/package_causal/package_causal_5.png"" class=""exp-image"">
                    <div class=""question-area"">
                        <p style=""font-size: 20px; font-weight: bold; margin: 0;"">Is there a person in this image?</p>
                    </div>
                </div>","0","main_experiment_trial","5","package_causal","causal_sequence","","","","",""
"","","","","","html-keyboard-response","111","387166","0.0-111.0","AF7404639EA04A159395FC72203B3983","019cf716-4c30-7bf7-83dd-31fb192efe38","019cf6fe-235e-7d95-bb9b-b011d2fe188e","","null","
                <div class=""stimulus-container"">
                    <img src=""images/causal_sequence/package_causal/package_causal_6.png"" class=""exp-image"">
                    <div class=""question-area""></div> 
                </div>","null","","","","","","","","",""
"","","","","","html-button-response","112","388203","0.0-112.0","AF7404639EA04A159395FC72203B3983","019cf716-4c30-7bf7-83dd-31fb192efe38","019cf6fe-235e-7d95-bb9b-b011d2fe188e","","1037","
                <div class=""stimulus-container"">
                    <img src=""images/causal_sequence/package_causal/package_causal_6.png"" class=""exp-image"">
                    <div class=""question-area"">
                        <p style=""font-size: 20px; font-weight: bold; margin: 0;"">Is there a person in this image?</p>
                    </div>
                </div>","0","main_experiment_trial","6","package_causal","causal_sequence","","","","",""
"","","","","","html-keyboard-response","113","393204","0.0-113.0","AF7404639EA04A159395FC72203B3983","019cf716-4c30-7bf7-83dd-31fb192efe38","019cf6fe-235e-7d95-bb9b-b011d2fe188e","","null","
                <div class=""stimulus-container"">
                    <img src=""images/causal_sequence/package_causal/package_causal_7.png"" class=""exp-image"">
                    <div class=""question-area""></div> 
                </div>","null","","","","","","","","",""
"","","","","","html-button-response","114","395156","0.0-114.0","AF7404639EA04A159395FC72203B3983","019cf716-4c30-7bf7-83dd-31fb192efe38","019cf6fe-235e-7d95-bb9b-b011d2fe188e","","1952","
                <div class=""stimulus-container"">
                    <img src=""images/causal_sequence/package_causal/package_causal_7.png"" class=""exp-image"">
                    <div class=""question-area"">
                        <p style=""font-size: 20px; font-weight: bold; margin: 0;"">Is there a person in this image?</p>
                    </div>
                </div>","0","main_experiment_trial","7","package_causal","causal_sequence","","","","",""
"","","","","","html-keyboard-response","115","400158","0.0-115.0","AF7404639EA04A159395FC72203B3983","019cf716-4c30-7bf7-83dd-31fb192efe38","019cf6fe-235e-7d95-bb9b-b011d2fe188e","","null","
                <div class=""stimulus-container"">
                    <img src=""images/causal_sequence/package_causal/package_causal_8.png"" class=""exp-image"">
                    <div class=""question-area""></div> 
                </div>","null","","","","","","","","",""
"","","","","","html-button-response","116","402217","0.0-116.0","AF7404639EA04A159395FC72203B3983","019cf716-4c30-7bf7-83dd-31fb192efe38","019cf6fe-235e-7d95-bb9b-b011d2fe188e","","2059","
                <div class=""stimulus-container"">
                    <img src=""images/causal_sequence/package_causal/package_causal_8.png"" class=""exp-image"">
                    <div class=""question-area"">
                        <p style=""font-size: 20px; font-weight: bold; margin: 0;"">Is there a person in this image?</p>
                    </div>
                </div>","0","main_experiment_trial","8","package_causal","causal_sequence","","","","",""
"","","","","","html-keyboard-response","117","407218","0.0-117.0","AF7404639EA04A159395FC72203B3983","019cf716-4c30-7bf7-83dd-31fb192efe38","019cf6fe-235e-7d95-bb9b-b011d2fe188e","","null","
                <div class=""stimulus-container"">
                    <img src=""images/causal_sequence/package_causal/package_causal_9.png"" class=""exp-image"">
                    <div class=""question-area""></div> 
                </div>","null","","","","","","","","",""
"","","","","","html-button-response","118","408190","0.0-118.0","AF7404639EA04A159395FC72203B3983","019cf716-4c30-7bf7-83dd-31fb192efe38","019cf6fe-235e-7d95-bb9b-b011d2fe188e","","972","
                <div class=""stimulus-container"">
                    <img src=""images/causal_sequence/package_causal/package_causal_9.png"" class=""exp-image"">
                    <div class=""question-area"">
                        <p style=""font-size: 20px; font-weight: bold; margin: 0;"">Is there a person in this image?</p>
                    </div>
                </div>","0","main_experiment_trial","9","package_causal","causal_sequence","","","","",""
"","","","","","html-keyboard-response","119","413192","0.0-119.0","AF7404639EA04A159395FC72203B3983","019cf716-4c30-7bf7-83dd-31fb192efe38","019cf6fe-235e-7d95-bb9b-b011d2fe188e","","null","
                <div class=""stimulus-container"">
                    <img src=""images/causal_sequence/package_causal/package_causal_ten.png"" class=""exp-image"">
                    <div class=""question-area""></div> 
                </div>","null","","","","","","","","",""
"","","","","","html-button-response","120","414711","0.0-120.0","AF7404639EA04A159395FC72203B3983","019cf716-4c30-7bf7-83dd-31fb192efe38","019cf6fe-235e-7d95-bb9b-b011d2fe188e","","1519","
                <div class=""stimulus-container"">
                    <img src=""images/causal_sequence/package_causal/package_causal_ten.png"" class=""exp-image"">
                    <div class=""question-area"">
                        <p style=""font-size: 20px; font-weight: bold; margin: 0;"">Is there a person in this image?</p>
                    </div>
                </div>","0","main_experiment_trial","ten","package_causal","causal_sequence","","","","",""
"","","","","","html-keyboard-response","121","415712","0.0-121.0","AF7404639EA04A159395FC72203B3983","019cf716-4c30-7bf7-83dd-31fb192efe38","019cf6fe-235e-7d95-bb9b-b011d2fe188e","","null","<div style=""background-color: white; width: 100vw; height: 100vh;""></div>","null","","","","","","","","",""
"","","","","","html-keyboard-response","122","420715","0.0-122.0","AF7404639EA04A159395FC72203B3983","019cf716-4c30-7bf7-83dd-31fb192efe38","019cf6fe-235e-7d95-bb9b-b011d2fe188e","","null","
                <div class=""stimulus-container"">
                    <img src=""images/schematic_sequence/interview_scheme/interview_scheme_1.png"" class=""exp-image"">
                    <div class=""question-area""></div> 
                </div>","null","","","","","","","","",""
"","","","","","html-button-response","123","422602","0.0-123.0","AF7404639EA04A159395FC72203B3983","019cf716-4c30-7bf7-83dd-31fb192efe38","019cf6fe-235e-7d95-bb9b-b011d2fe188e","","1887","
                <div class=""stimulus-container"">
                    <img src=""images/schematic_sequence/interview_scheme/interview_scheme_1.png"" class=""exp-image"">
                    <div class=""question-area"">
                        <p style=""font-size: 20px; font-weight: bold; margin: 0;"">Is there a person in this image?</p>
                    </div>
                </div>","1","main_experiment_trial","1","interview_scheme","schematic_sequence","","","","",""
"","","","","","html-keyboard-response","124","427603","0.0-124.0","AF7404639EA04A159395FC72203B3983","019cf716-4c30-7bf7-83dd-31fb192efe38","019cf6fe-235e-7d95-bb9b-b011d2fe188e","","null","
                <div class=""stimulus-container"">
                    <img src=""images/schematic_sequence/interview_scheme/interview_scheme_2.png"" class=""exp-image"">
                    <div class=""question-area""></div> 
                </div>","null","","","","","","","","",""
"","","","","","html-button-response","125","429586","0.0-125.0","AF7404639EA04A159395FC72203B3983","019cf716-4c30-7bf7-83dd-31fb192efe38","019cf6fe-235e-7d95-bb9b-b011d2fe188e","","1981","
                <div class=""stimulus-container"">
                    <img src=""images/schematic_sequence/interview_scheme/interview_scheme_2.png"" class=""exp-image"">
                    <div class=""question-area"">
                        <p style=""font-size: 20px; font-weight: bold; margin: 0;"">Is there a person in this image?</p>
                    </div>
                </div>","0","main_experiment_trial","2","interview_scheme","schematic_sequence","","","","",""
"","","","","","html-keyboard-response","126","434586","0.0-126.0","AF7404639EA04A159395FC72203B3983","019cf716-4c30-7bf7-83dd-31fb192efe38","019cf6fe-235e-7d95-bb9b-b011d2fe188e","","null","
                <div class=""stimulus-container"">
                    <img src=""images/schematic_sequence/interview_scheme/interview_scheme_3.png"" class=""exp-image"">
                    <div class=""question-area""></div> 
                </div>","null","","","","","","","","",""
"","","","","","html-button-response","127","436968","0.0-127.0","AF7404639EA04A159395FC72203B3983","019cf716-4c30-7bf7-83dd-31fb192efe38","019cf6fe-235e-7d95-bb9b-b011d2fe188e","","2381","
                <div class=""stimulus-container"">
                    <img src=""images/schematic_sequence/interview_scheme/interview_scheme_3.png"" class=""exp-image"">
                    <div class=""question-area"">
                        <p style=""font-size: 20px; font-weight: bold; margin: 0;"">Is there a person in this image?</p>
                    </div>
                </div>","1","main_experiment_trial","3","interview_scheme","schematic_sequence","","","","",""
"","","","","","html-keyboard-response","128","441969","0.0-128.0","AF7404639EA04A159395FC72203B3983","019cf716-4c30-7bf7-83dd-31fb192efe38","019cf6fe-235e-7d95-bb9b-b011d2fe188e","","null","
                <div class=""stimulus-container"">
                    <img src=""images/schematic_sequence/interview_scheme/interview_scheme_4.png"" class=""exp-image"">
                    <div class=""question-area""></div> 
                </div>","null","","","","","","","","",""
"","","","","","html-button-response","129","443473","0.0-129.0","AF7404639EA04A159395FC72203B3983","019cf716-4c30-7bf7-83dd-31fb192efe38","019cf6fe-235e-7d95-bb9b-b011d2fe188e","","1504","
                <div class=""stimulus-container"">
                    <img src=""images/schematic_sequence/interview_scheme/interview_scheme_4.png"" class=""exp-image"">
                    <div class=""question-area"">
                        <p style=""font-size: 20px; font-weight: bold; margin: 0;"">Is there a person in this image?</p>
                    </div>
                </div>","1","main_experiment_trial","4","interview_scheme","schematic_sequence","","","","",""
"","","","","","html-keyboard-response","130","448474","0.0-130.0","AF7404639EA04A159395FC72203B3983","019cf716-4c30-7bf7-83dd-31fb192efe38","019cf6fe-235e-7d95-bb9b-b011d2fe188e","","null","
                <div class=""stimulus-container"">
                    <img src=""images/schematic_sequence/interview_scheme/interview_scheme_5.png"" class=""exp-image"">
                    <div class=""question-area""></div> 
                </div>","null","","","","","","","","",""
"","","","","","html-button-response","131","449721","0.0-131.0","AF7404639EA04A159395FC72203B3983","019cf716-4c30-7bf7-83dd-31fb192efe38","019cf6fe-235e-7d95-bb9b-b011d2fe188e","","1246","
                <div class=""stimulus-container"">
                    <img src=""images/schematic_sequence/interview_scheme/interview_scheme_5.png"" class=""exp-image"">
                    <div class=""question-area"">
                        <p style=""font-size: 20px; font-weight: bold; margin: 0;"">Is there a person in this image?</p>
                    </div>
                </div>","0","main_experiment_trial","5","interview_scheme","schematic_sequence","","","","",""
"","","","","","html-keyboard-response","132","454722","0.0-132.0","AF7404639EA04A159395FC72203B3983","019cf716-4c30-7bf7-83dd-31fb192efe38","019cf6fe-235e-7d95-bb9b-b011d2fe188e","","null","
                <div class=""stimulus-container"">
                    <img src=""images/schematic_sequence/interview_scheme/interview_scheme_6.png"" class=""exp-image"">
                    <div class=""question-area""></div> 
                </div>","null","","","","","","","","",""
"","","","","","html-button-response","133","455591","0.0-133.0","AF7404639EA04A159395FC72203B3983","019cf716-4c30-7bf7-83dd-31fb192efe38","019cf6fe-235e-7d95-bb9b-b011d2fe188e","","869","
                <div class=""stimulus-container"">
                    <img src=""images/schematic_sequence/interview_scheme/interview_scheme_6.png"" class=""exp-image"">
                    <div class=""question-area"">
                        <p style=""font-size: 20px; font-weight: bold; margin: 0;"">Is there a person in this image?</p>
                    </div>
                </div>","0","main_experiment_trial","6","interview_scheme","schematic_sequence","","","","",""
"","","","","","html-keyboard-response","134","460593","0.0-134.0","AF7404639EA04A159395FC72203B3983","019cf716-4c30-7bf7-83dd-31fb192efe38","019cf6fe-235e-7d95-bb9b-b011d2fe188e","","null","
                <div class=""stimulus-container"">
                    <img src=""images/schematic_sequence/interview_scheme/interview_scheme_7.png"" class=""exp-image"">
                    <div class=""question-area""></div> 
                </div>","null","","","","","","","","",""
"","","","","","html-button-response","135","461364","0.0-135.0","AF7404639EA04A159395FC72203B3983","019cf716-4c30-7bf7-83dd-31fb192efe38","019cf6fe-235e-7d95-bb9b-b011d2fe188e","","770","
                <div class=""stimulus-container"">
                    <img src=""images/schematic_sequence/interview_scheme/interview_scheme_7.png"" class=""exp-image"">
                    <div class=""question-area"">
                        <p style=""font-size: 20px; font-weight: bold; margin: 0;"">Is there a person in this image?</p>
                    </div>
                </div>","0","main_experiment_trial","7","interview_scheme","schematic_sequence","","","","",""
"","","","","","html-keyboard-response","136","466365","0.0-136.0","AF7404639EA04A159395FC72203B3983","019cf716-4c30-7bf7-83dd-31fb192efe38","019cf6fe-235e-7d95-bb9b-b011d2fe188e","","null","
                <div class=""stimulus-container"">
                    <img src=""images/schematic_sequence/interview_scheme/interview_scheme_8.png"" class=""exp-image"">
                    <div class=""question-area""></div> 
                </div>","null","","","","","","","","",""
"","","","","","html-button-response","137","467670","0.0-137.0","AF7404639EA04A159395FC72203B3983","019cf716-4c30-7bf7-83dd-31fb192efe38","019cf6fe-235e-7d95-bb9b-b011d2fe188e","","1304","
                <div class=""stimulus-container"">
                    <img src=""images/schematic_sequence/interview_scheme/interview_scheme_8.png"" class=""exp-image"">
                    <div class=""question-area"">
                        <p style=""font-size: 20px; font-weight: bold; margin: 0;"">Is there a person in this image?</p>
                    </div>
                </div>","0","main_experiment_trial","8","interview_scheme","schematic_sequence","","","","",""
"","","","","","html-keyboard-response","138","472671","0.0-138.0","AF7404639EA04A159395FC72203B3983","019cf716-4c30-7bf7-83dd-31fb192efe38","019cf6fe-235e-7d95-bb9b-b011d2fe188e","","null","
                <div class=""stimulus-container"">
                    <img src=""images/schematic_sequence/interview_scheme/interview_scheme_9.png"" class=""exp-image"">
                    <div class=""question-area""></div> 
                </div>","null","","","","","","","","",""
"","","","","","html-button-response","139","474092","0.0-139.0","AF7404639EA04A159395FC72203B3983","019cf716-4c30-7bf7-83dd-31fb192efe38","019cf6fe-235e-7d95-bb9b-b011d2fe188e","","1420","
                <div class=""stimulus-container"">
                    <img src=""images/schematic_sequence/interview_scheme/interview_scheme_9.png"" class=""exp-image"">
                    <div class=""question-area"">
                        <p style=""font-size: 20px; font-weight: bold; margin: 0;"">Is there a person in this image?</p>
                    </div>
                </div>","0","main_experiment_trial","9","interview_scheme","schematic_sequence","","","","",""
"","","","","","html-keyboard-response","140","479093","0.0-140.0","AF7404639EA04A159395FC72203B3983","019cf716-4c30-7bf7-83dd-31fb192efe38","019cf6fe-235e-7d95-bb9b-b011d2fe188e","","null","
                <div class=""stimulus-container"">
                    <img src=""images/schematic_sequence/interview_scheme/interview_scheme_ten.png"" class=""exp-image"">
                    <div class=""question-area""></div> 
                </div>","null","","","","","","","","",""
"","","","","","html-button-response","141","481030","0.0-141.0","AF7404639EA04A159395FC72203B3983","019cf716-4c30-7bf7-83dd-31fb192efe38","019cf6fe-235e-7d95-bb9b-b011d2fe188e","","1937","
                <div class=""stimulus-container"">
                    <img src=""images/schematic_sequence/interview_scheme/interview_scheme_ten.png"" class=""exp-image"">
                    <div class=""question-area"">
                        <p style=""font-size: 20px; font-weight: bold; margin: 0;"">Is there a person in this image?</p>
                    </div>
                </div>","0","main_experiment_trial","ten","interview_scheme","schematic_sequence","","","","",""
"","","","","","html-keyboard-response","142","482031","0.0-142.0","AF7404639EA04A159395FC72203B3983","019cf716-4c30-7bf7-83dd-31fb192efe38","019cf6fe-235e-7d95-bb9b-b011d2fe188e","","null","<div style=""background-color: white; width: 100vw; height: 100vh;""></div>","null","","","","","","","","",""
"","","","","","html-keyboard-response","143","487032","0.0-143.0","AF7404639EA04A159395FC72203B3983","019cf716-4c30-7bf7-83dd-31fb192efe38","019cf6fe-235e-7d95-bb9b-b011d2fe188e","","null","
                <div class=""stimulus-container"">
                    <img src=""images/causal_sequence/saving_a_cat_causal/saving_a_cat_causal_1.png"" class=""exp-image"">
                    <div class=""question-area""></div> 
                </div>","null","","","","","","","","",""
"","","","","","html-button-response","144","487908","0.0-144.0","AF7404639EA04A159395FC72203B3983","019cf716-4c30-7bf7-83dd-31fb192efe38","019cf6fe-235e-7d95-bb9b-b011d2fe188e","","876","
                <div class=""stimulus-container"">
                    <img src=""images/causal_sequence/saving_a_cat_causal/saving_a_cat_causal_1.png"" class=""exp-image"">
                    <div class=""question-area"">
                        <p style=""font-size: 20px; font-weight: bold; margin: 0;"">Is there a person in this image?</p>
                    </div>
                </div>","0","main_experiment_trial","1","saving_a_cat_causal","causal_sequence","","","","",""
"","","","","","html-keyboard-response","145","492909","0.0-145.0","AF7404639EA04A159395FC72203B3983","019cf716-4c30-7bf7-83dd-31fb192efe38","019cf6fe-235e-7d95-bb9b-b011d2fe188e","","null","
                <div class=""stimulus-container"">
                    <img src=""images/causal_sequence/saving_a_cat_causal/saving_a_cat_causal_2.png"" class=""exp-image"">
                    <div class=""question-area""></div> 
                </div>","null","","","","","","","","",""
"","","","","","html-button-response","146","493865","0.0-146.0","AF7404639EA04A159395FC72203B3983","019cf716-4c30-7bf7-83dd-31fb192efe38","019cf6fe-235e-7d95-bb9b-b011d2fe188e","","956","
                <div class=""stimulus-container"">
                    <img src=""images/causal_sequence/saving_a_cat_causal/saving_a_cat_causal_2.png"" class=""exp-image"">
                    <div class=""question-area"">
                        <p style=""font-size: 20px; font-weight: bold; margin: 0;"">Is there a person in this image?</p>
                    </div>
                </div>","1","main_experiment_trial","2","saving_a_cat_causal","causal_sequence","","","","",""
"","","","","","html-keyboard-response","147","498866","0.0-147.0","AF7404639EA04A159395FC72203B3983","019cf716-4c30-7bf7-83dd-31fb192efe38","019cf6fe-235e-7d95-bb9b-b011d2fe188e","","null","
                <div class=""stimulus-container"">
                    <img src=""images/causal_sequence/saving_a_cat_causal/saving_a_cat_causal_3.png"" class=""exp-image"">
                    <div class=""question-area""></div> 
                </div>","null","","","","","","","","",""
"","","","","","html-button-response","148","501553","0.0-148.0","AF7404639EA04A159395FC72203B3983","019cf716-4c30-7bf7-83dd-31fb192efe38","019cf6fe-235e-7d95-bb9b-b011d2fe188e","","2687","
                <div class=""stimulus-container"">
                    <img src=""images/causal_sequence/saving_a_cat_causal/saving_a_cat_causal_3.png"" class=""exp-image"">
                    <div class=""question-area"">
                        <p style=""font-size: 20px; font-weight: bold; margin: 0;"">Is there a person in this image?</p>
                    </div>
                </div>","1","main_experiment_trial","3","saving_a_cat_causal","causal_sequence","","","","",""
"","","","","","html-keyboard-response","149","506554","0.0-149.0","AF7404639EA04A159395FC72203B3983","019cf716-4c30-7bf7-83dd-31fb192efe38","019cf6fe-235e-7d95-bb9b-b011d2fe188e","","null","
                <div class=""stimulus-container"">
                    <img src=""images/causal_sequence/saving_a_cat_causal/saving_a_cat_causal_4.png"" class=""exp-image"">
                    <div class=""question-area""></div> 
                </div>","null","","","","","","","","",""
"","","","","","html-button-response","150","508593","0.0-150.0","AF7404639EA04A159395FC72203B3983","019cf716-4c30-7bf7-83dd-31fb192efe38","019cf6fe-235e-7d95-bb9b-b011d2fe188e","","2038","
                <div class=""stimulus-container"">
                    <img src=""images/causal_sequence/saving_a_cat_causal/saving_a_cat_causal_4.png"" class=""exp-image"">
                    <div class=""question-area"">
                        <p style=""font-size: 20px; font-weight: bold; margin: 0;"">Is there a person in this image?</p>
                    </div>
                </div>","0","main_experiment_trial","4","saving_a_cat_causal","causal_sequence","","","","",""
"","","","","","html-keyboard-response","151","513594","0.0-151.0","AF7404639EA04A159395FC72203B3983","019cf716-4c30-7bf7-83dd-31fb192efe38","019cf6fe-235e-7d95-bb9b-b011d2fe188e","","null","
                <div class=""stimulus-container"">
                    <img src=""images/causal_sequence/saving_a_cat_causal/saving_a_cat_causal_5.png"" class=""exp-image"">
                    <div class=""question-area""></div> 
                </div>","null","","","","","","","","",""
"","","","","","html-button-response","152","516596","0.0-152.0","AF7404639EA04A159395FC72203B3983","019cf716-4c30-7bf7-83dd-31fb192efe38","019cf6fe-235e-7d95-bb9b-b011d2fe188e","","null","
                <div class=""stimulus-container"">
                    <img src=""images/causal_sequence/saving_a_cat_causal/saving_a_cat_causal_5.png"" class=""exp-image"">
                    <div class=""question-area"">
                        <p style=""font-size: 20px; font-weight: bold; margin: 0;"">Is there a person in this image?</p>
                    </div>
                </div>","null","main_experiment_trial","5","saving_a_cat_causal","causal_sequence","","","","",""
"","","","","","html-keyboard-response","153","521598","0.0-153.0","AF7404639EA04A159395FC72203B3983","019cf716-4c30-7bf7-83dd-31fb192efe38","019cf6fe-235e-7d95-bb9b-b011d2fe188e","","null","
                <div class=""stimulus-container"">
                    <img src=""images/causal_sequence/saving_a_cat_causal/saving_a_cat_causal_6.png"" class=""exp-image"">
                    <div class=""question-area""></div> 
                </div>","null","","","","","","","","",""
"","","","","","html-button-response","154","523085","0.0-154.0","AF7404639EA04A159395FC72203B3983","019cf716-4c30-7bf7-83dd-31fb192efe38","019cf6fe-235e-7d95-bb9b-b011d2fe188e","","1487","
                <div class=""stimulus-container"">
                    <img src=""images/causal_sequence/saving_a_cat_causal/saving_a_cat_causal_6.png"" class=""exp-image"">
                    <div class=""question-area"">
                        <p style=""font-size: 20px; font-weight: bold; margin: 0;"">Is there a person in this image?</p>
                    </div>
                </div>","0","main_experiment_trial","6","saving_a_cat_causal","causal_sequence","","","","",""
"","","","","","html-keyboard-response","155","528087","0.0-155.0","AF7404639EA04A159395FC72203B3983","019cf716-4c30-7bf7-83dd-31fb192efe38","019cf6fe-235e-7d95-bb9b-b011d2fe188e","","null","
                <div class=""stimulus-container"">
                    <img src=""images/causal_sequence/saving_a_cat_causal/saving_a_cat_causal_7.png"" class=""exp-image"">
                    <div class=""question-area""></div> 
                </div>","null","","","","","","","","",""
"","","","","","html-button-response","156","529265","0.0-156.0","AF7404639EA04A159395FC72203B3983","019cf716-4c30-7bf7-83dd-31fb192efe38","019cf6fe-235e-7d95-bb9b-b011d2fe188e","","1177","
                <div class=""stimulus-container"">
                    <img src=""images/causal_sequence/saving_a_cat_causal/saving_a_cat_causal_7.png"" class=""exp-image"">
                    <div class=""question-area"">
                        <p style=""font-size: 20px; font-weight: bold; margin: 0;"">Is there a person in this image?</p>
                    </div>
                </div>","0","main_experiment_trial","7","saving_a_cat_causal","causal_sequence","","","","",""
"","","","","","html-keyboard-response","157","534267","0.0-157.0","AF7404639EA04A159395FC72203B3983","019cf716-4c30-7bf7-83dd-31fb192efe38","019cf6fe-235e-7d95-bb9b-b011d2fe188e","","null","
                <div class=""stimulus-container"">
                    <img src=""images/causal_sequence/saving_a_cat_causal/saving_a_cat_causal_8.png"" class=""exp-image"">
                    <div class=""question-area""></div> 
                </div>","null","","","","","","","","",""
"","","","","","html-button-response","158","535586","0.0-158.0","AF7404639EA04A159395FC72203B3983","019cf716-4c30-7bf7-83dd-31fb192efe38","019cf6fe-235e-7d95-bb9b-b011d2fe188e","","1318","
                <div class=""stimulus-container"">
                    <img src=""images/causal_sequence/saving_a_cat_causal/saving_a_cat_causal_8.png"" class=""exp-image"">
                    <div class=""question-area"">
                        <p style=""font-size: 20px; font-weight: bold; margin: 0;"">Is there a person in this image?</p>
                    </div>
                </div>","0","main_experiment_trial","8","saving_a_cat_causal","causal_sequence","","","","",""
"","","","","","html-keyboard-response","159","540587","0.0-159.0","AF7404639EA04A159395FC72203B3983","019cf716-4c30-7bf7-83dd-31fb192efe38","019cf6fe-235e-7d95-bb9b-b011d2fe188e","","null","
                <div class=""stimulus-container"">
                    <img src=""images/causal_sequence/saving_a_cat_causal/saving_a_cat_causal_9.png"" class=""exp-image"">
                    <div class=""question-area""></div> 
                </div>","null","","","","","","","","",""
"","","","","","html-button-response","160","542593","0.0-160.0","AF7404639EA04A159395FC72203B3983","019cf716-4c30-7bf7-83dd-31fb192efe38","019cf6fe-235e-7d95-bb9b-b011d2fe188e","","2005","
                <div class=""stimulus-container"">
                    <img src=""images/causal_sequence/saving_a_cat_causal/saving_a_cat_causal_9.png"" class=""exp-image"">
                    <div class=""question-area"">
                        <p style=""font-size: 20px; font-weight: bold; margin: 0;"">Is there a person in this image?</p>
                    </div>
                </div>","0","main_experiment_trial","9","saving_a_cat_causal","causal_sequence","","","","",""
"","","","","","html-keyboard-response","161","547594","0.0-161.0","AF7404639EA04A159395FC72203B3983","019cf716-4c30-7bf7-83dd-31fb192efe38","019cf6fe-235e-7d95-bb9b-b011d2fe188e","","null","
                <div class=""stimulus-container"">
                    <img src=""images/causal_sequence/saving_a_cat_causal/saving_a_cat_causal_ten.png"" class=""exp-image"">
                    <div class=""question-area""></div> 
                </div>","null","","","","","","","","",""
"","","","","","html-button-response","162","549052","0.0-162.0","AF7404639EA04A159395FC72203B3983","019cf716-4c30-7bf7-83dd-31fb192efe38","019cf6fe-235e-7d95-bb9b-b011d2fe188e","","1457","
                <div class=""stimulus-container"">
                    <img src=""images/causal_sequence/saving_a_cat_causal/saving_a_cat_causal_ten.png"" class=""exp-image"">
                    <div class=""question-area"">
                        <p style=""font-size: 20px; font-weight: bold; margin: 0;"">Is there a person in this image?</p>
                    </div>
                </div>","0","main_experiment_trial","ten","saving_a_cat_causal","causal_sequence","","","","",""
"","","","","","html-keyboard-response","163","550053","0.0-163.0","AF7404639EA04A159395FC72203B3983","019cf716-4c30-7bf7-83dd-31fb192efe38","019cf6fe-235e-7d95-bb9b-b011d2fe188e","","null","<div style=""background-color: white; width: 100vw; height: 100vh;""></div>","null","","","","","","","","",""
"","","","","","html-keyboard-response","164","555054","0.0-164.0","AF7404639EA04A159395FC72203B3983","019cf716-4c30-7bf7-83dd-31fb192efe38","019cf6fe-235e-7d95-bb9b-b011d2fe188e","","null","
                <div class=""stimulus-container"">
                    <img src=""images/schematic_sequence/supermarket_scheme/supermarket_scheme_1.png"" class=""exp-image"">
                    <div class=""question-area""></div> 
                </div>","null","","","","","","","","",""
"","","","","","html-button-response","165","556961","0.0-165.0","AF7404639EA04A159395FC72203B3983","019cf716-4c30-7bf7-83dd-31fb192efe38","019cf6fe-235e-7d95-bb9b-b011d2fe188e","","1907","
                <div class=""stimulus-container"">
                    <img src=""images/schematic_sequence/supermarket_scheme/supermarket_scheme_1.png"" class=""exp-image"">
                    <div class=""question-area"">
                        <p style=""font-size: 20px; font-weight: bold; margin: 0;"">Is there a person in this image?</p>
                    </div>
                </div>","1","main_experiment_trial","1","supermarket_scheme","schematic_sequence","","","","",""
"","","","","","html-keyboard-response","166","561963","0.0-166.0","AF7404639EA04A159395FC72203B3983","019cf716-4c30-7bf7-83dd-31fb192efe38","019cf6fe-235e-7d95-bb9b-b011d2fe188e","","null","
                <div class=""stimulus-container"">
                    <img src=""images/schematic_sequence/supermarket_scheme/supermarket_scheme_2.png"" class=""exp-image"">
                    <div class=""question-area""></div> 
                </div>","null","","","","","","","","",""
"","","","","","html-button-response","167","562814","0.0-167.0","AF7404639EA04A159395FC72203B3983","019cf716-4c30-7bf7-83dd-31fb192efe38","019cf6fe-235e-7d95-bb9b-b011d2fe188e","","851","
                <div class=""stimulus-container"">
                    <img src=""images/schematic_sequence/supermarket_scheme/supermarket_scheme_2.png"" class=""exp-image"">
                    <div class=""question-area"">
                        <p style=""font-size: 20px; font-weight: bold; margin: 0;"">Is there a person in this image?</p>
                    </div>
                </div>","1","main_experiment_trial","2","supermarket_scheme","schematic_sequence","","","","",""
"","","","","","html-keyboard-response","168","567816","0.0-168.0","AF7404639EA04A159395FC72203B3983","019cf716-4c30-7bf7-83dd-31fb192efe38","019cf6fe-235e-7d95-bb9b-b011d2fe188e","","null","
                <div class=""stimulus-container"">
                    <img src=""images/schematic_sequence/supermarket_scheme/supermarket_scheme_3.png"" class=""exp-image"">
                    <div class=""question-area""></div> 
                </div>","null","","","","","","","","",""
"","","","","","html-button-response","169","568689","0.0-169.0","AF7404639EA04A159395FC72203B3983","019cf716-4c30-7bf7-83dd-31fb192efe38","019cf6fe-235e-7d95-bb9b-b011d2fe188e","","873","
                <div class=""stimulus-container"">
                    <img src=""images/schematic_sequence/supermarket_scheme/supermarket_scheme_3.png"" class=""exp-image"">
                    <div class=""question-area"">
                        <p style=""font-size: 20px; font-weight: bold; margin: 0;"">Is there a person in this image?</p>
                    </div>
                </div>","1","main_experiment_trial","3","supermarket_scheme","schematic_sequence","","","","",""
"","","","","","html-keyboard-response","170","573691","0.0-170.0","AF7404639EA04A159395FC72203B3983","019cf716-4c30-7bf7-83dd-31fb192efe38","019cf6fe-235e-7d95-bb9b-b011d2fe188e","","null","
                <div class=""stimulus-container"">
                    <img src=""images/schematic_sequence/supermarket_scheme/supermarket_scheme_4.png"" class=""exp-image"">
                    <div class=""question-area""></div> 
                </div>","null","","","","","","","","",""
"","","","","","html-button-response","171","574376","0.0-171.0","AF7404639EA04A159395FC72203B3983","019cf716-4c30-7bf7-83dd-31fb192efe38","019cf6fe-235e-7d95-bb9b-b011d2fe188e","","685","
                <div class=""stimulus-container"">
                    <img src=""images/schematic_sequence/supermarket_scheme/supermarket_scheme_4.png"" class=""exp-image"">
                    <div class=""question-area"">
                        <p style=""font-size: 20px; font-weight: bold; margin: 0;"">Is there a person in this image?</p>
                    </div>
                </div>","0","main_experiment_trial","4","supermarket_scheme","schematic_sequence","","","","",""
"","","","","","html-keyboard-response","172","579377","0.0-172.0","AF7404639EA04A159395FC72203B3983","019cf716-4c30-7bf7-83dd-31fb192efe38","019cf6fe-235e-7d95-bb9b-b011d2fe188e","","null","
                <div class=""stimulus-container"">
                    <img src=""images/schematic_sequence/supermarket_scheme/supermarket_scheme_5.png"" class=""exp-image"">
                    <div class=""question-area""></div> 
                </div>","null","","","","","","","","",""
"","","","","","html-button-response","173","580655","0.0-173.0","AF7404639EA04A159395FC72203B3983","019cf716-4c30-7bf7-83dd-31fb192efe38","019cf6fe-235e-7d95-bb9b-b011d2fe188e","","1277","
                <div class=""stimulus-container"">
                    <img src=""images/schematic_sequence/supermarket_scheme/supermarket_scheme_5.png"" class=""exp-image"">
                    <div class=""question-area"">
                        <p style=""font-size: 20px; font-weight: bold; margin: 0;"">Is there a person in this image?</p>
                    </div>
                </div>","1","main_experiment_trial","5","supermarket_scheme","schematic_sequence","","","","",""
"","","","","","html-keyboard-response","174","585657","0.0-174.0","AF7404639EA04A159395FC72203B3983","019cf716-4c30-7bf7-83dd-31fb192efe38","019cf6fe-235e-7d95-bb9b-b011d2fe188e","","null","
                <div class=""stimulus-container"">
                    <img src=""images/schematic_sequence/supermarket_scheme/supermarket_scheme_6.png"" class=""exp-image"">
                    <div class=""question-area""></div> 
                </div>","null","","","","","","","","",""
"","","","","","html-button-response","175","587091","0.0-175.0","AF7404639EA04A159395FC72203B3983","019cf716-4c30-7bf7-83dd-31fb192efe38","019cf6fe-235e-7d95-bb9b-b011d2fe188e","","1433","
                <div class=""stimulus-container"">
                    <img src=""images/schematic_sequence/supermarket_scheme/supermarket_scheme_6.png"" class=""exp-image"">
                    <div class=""question-area"">
                        <p style=""font-size: 20px; font-weight: bold; margin: 0;"">Is there a person in this image?</p>
                    </div>
                </div>","0","main_experiment_trial","6","supermarket_scheme","schematic_sequence","","","","",""
"","","","","","html-keyboard-response","176","592093","0.0-176.0","AF7404639EA04A159395FC72203B3983","019cf716-4c30-7bf7-83dd-31fb192efe38","019cf6fe-235e-7d95-bb9b-b011d2fe188e","","null","
                <div class=""stimulus-container"">
                    <img src=""images/schematic_sequence/supermarket_scheme/supermarket_scheme_7.png"" class=""exp-image"">
                    <div class=""question-area""></div> 
                </div>","null","","","","","","","","",""
"","","","","","html-button-response","177","593697","0.0-177.0","AF7404639EA04A159395FC72203B3983","019cf716-4c30-7bf7-83dd-31fb192efe38","019cf6fe-235e-7d95-bb9b-b011d2fe188e","","1604","
                <div class=""stimulus-container"">
                    <img src=""images/schematic_sequence/supermarket_scheme/supermarket_scheme_7.png"" class=""exp-image"">
                    <div class=""question-area"">
                        <p style=""font-size: 20px; font-weight: bold; margin: 0;"">Is there a person in this image?</p>
                    </div>
                </div>","0","main_experiment_trial","7","supermarket_scheme","schematic_sequence","","","","",""
"","","","","","html-keyboard-response","178","598698","0.0-178.0","AF7404639EA04A159395FC72203B3983","019cf716-4c30-7bf7-83dd-31fb192efe38","019cf6fe-235e-7d95-bb9b-b011d2fe188e","","null","
                <div class=""stimulus-container"">
                    <img src=""images/schematic_sequence/supermarket_scheme/supermarket_scheme_8.png"" class=""exp-image"">
                    <div class=""question-area""></div> 
                </div>","null","","","","","","","","",""
"","","","","","html-button-response","179","599653","0.0-179.0","AF7404639EA04A159395FC72203B3983","019cf716-4c30-7bf7-83dd-31fb192efe38","019cf6fe-235e-7d95-bb9b-b011d2fe188e","","955","
                <div class=""stimulus-container"">
                    <img src=""images/schematic_sequence/supermarket_scheme/supermarket_scheme_8.png"" class=""exp-image"">
                    <div class=""question-area"">
                        <p style=""font-size: 20px; font-weight: bold; margin: 0;"">Is there a person in this image?</p>
                    </div>
                </div>","0","main_experiment_trial","8","supermarket_scheme","schematic_sequence","","","","",""
"","","","","","html-keyboard-response","180","604655","0.0-180.0","AF7404639EA04A159395FC72203B3983","019cf716-4c30-7bf7-83dd-31fb192efe38","019cf6fe-235e-7d95-bb9b-b011d2fe188e","","null","
                <div class=""stimulus-container"">
                    <img src=""images/schematic_sequence/supermarket_scheme/supermarket_scheme_9.png"" class=""exp-image"">
                    <div class=""question-area""></div> 
                </div>","null","","","","","","","","",""
"","","","","","html-button-response","181","605692","0.0-181.0","AF7404639EA04A159395FC72203B3983","019cf716-4c30-7bf7-83dd-31fb192efe38","019cf6fe-235e-7d95-bb9b-b011d2fe188e","","1037","
                <div class=""stimulus-container"">
                    <img src=""images/schematic_sequence/supermarket_scheme/supermarket_scheme_9.png"" class=""exp-image"">
                    <div class=""question-area"">
                        <p style=""font-size: 20px; font-weight: bold; margin: 0;"">Is there a person in this image?</p>
                    </div>
                </div>","0","main_experiment_trial","9","supermarket_scheme","schematic_sequence","","","","",""
"","","","","","html-keyboard-response","182","610694","0.0-182.0","AF7404639EA04A159395FC72203B3983","019cf716-4c30-7bf7-83dd-31fb192efe38","019cf6fe-235e-7d95-bb9b-b011d2fe188e","","null","
                <div class=""stimulus-container"">
