"success","timeout","failed_images","failed_audio","failed_video","trial_type","trial_index","time_elapsed","internal_node_id","subject_id","study_id","session_id","view_history","rt","stimulus","response","task","image_index","folder","sequence_type","valuable_image_index","reward_type","correct_choice","chosen_image_index","target_X"
"true","false","[]","[]","[]","preload","0","17437","0.0-0.0","89975035950644E1BA35A6D97BD2CD4F","019cf067-d6c7-7049-a0f9-0a42c7d82dfd","019ceff9-9f67-7034-9722-02cda2445e09","","","","","","","","","","","","",""
"","","","","","instructions","1","30534","0.0-1.0","89975035950644E1BA35A6D97BD2CD4F","019cf067-d6c7-7049-a0f9-0a42c7d82dfd","019ceff9-9f67-7034-9722-02cda2445e09","[{""page_index"":0,""viewing_time"":13079}]","13079","","","","","","","","","","",""
"","","","","","instructions","2","36650","0.0-2.0","89975035950644E1BA35A6D97BD2CD4F","019cf067-d6c7-7049-a0f9-0a42c7d82dfd","019ceff9-9f67-7034-9722-02cda2445e09","[{""page_index"":0,""viewing_time"":6115}]","6116","","","","","","","","","","",""
"true","","","","","fullscreen","3","39788","0.0-3.0","89975035950644E1BA35A6D97BD2CD4F","019cf067-d6c7-7049-a0f9-0a42c7d82dfd","019ceff9-9f67-7034-9722-02cda2445e09","","2130","","","","","","","","","","",""
"","","","","","instructions","4","71699","0.0-4.0","89975035950644E1BA35A6D97BD2CD4F","019cf067-d6c7-7049-a0f9-0a42c7d82dfd","019ceff9-9f67-7034-9722-02cda2445e09","[{""page_index"":0,""viewing_time"":31911}]","31911","","","","","","","","","","",""
"","","","","","instructions","5","83264","0.0-5.0","89975035950644E1BA35A6D97BD2CD4F","019cf067-d6c7-7049-a0f9-0a42c7d82dfd","019ceff9-9f67-7034-9722-02cda2445e09","[{""page_index"":0,""viewing_time"":11565}]","11565","","","","","","","","","","",""
"","","","","","html-keyboard-response","6","87279","0.0-6.0","89975035950644E1BA35A6D97BD2CD4F","019cf067-d6c7-7049-a0f9-0a42c7d82dfd","019ceff9-9f67-7034-9722-02cda2445e09","","null","
                <div class=""stimulus-container"">
                    <img src=""images/instructions/movie_1.png"" class=""exp-image"">
                    <div class=""question-area""></div> 
                </div>","null","","","","","","","","",""
"","","","","","html-button-response","7","90291","0.0-7.0","89975035950644E1BA35A6D97BD2CD4F","019cf067-d6c7-7049-a0f9-0a42c7d82dfd","019ceff9-9f67-7034-9722-02cda2445e09","","null","
                <div class=""stimulus-container"">
                    <img src=""images/instructions/movie_1.png"" class=""exp-image"">
                    <div class=""question-area"">
                        <p style=""font-size: 20px; font-weight: bold; margin: 0;"">Was there a person in this image?</p>
                    </div>
                </div>","null","example_question","1","","","","","","",""
"","","","","","html-keyboard-response","8","94292","0.0-8.0","89975035950644E1BA35A6D97BD2CD4F","019cf067-d6c7-7049-a0f9-0a42c7d82dfd","019ceff9-9f67-7034-9722-02cda2445e09","","null","
                <div class=""stimulus-container"">
                    <img src=""images/instructions/movie_2.png"" class=""exp-image"">
                    <div class=""question-area""></div> 
                </div>","null","","","","","","","","",""
"","","","","","html-button-response","9","97293","0.0-9.0","89975035950644E1BA35A6D97BD2CD4F","019cf067-d6c7-7049-a0f9-0a42c7d82dfd","019ceff9-9f67-7034-9722-02cda2445e09","","null","
                <div class=""stimulus-container"">
                    <img src=""images/instructions/movie_2.png"" class=""exp-image"">
                    <div class=""question-area"">
                        <p style=""font-size: 20px; font-weight: bold; margin: 0;"">Was there a person in this image?</p>
                    </div>
                </div>","null","example_question","2","","","","","","",""
"","","","","","html-keyboard-response","10","101294","0.0-10.0","89975035950644E1BA35A6D97BD2CD4F","019cf067-d6c7-7049-a0f9-0a42c7d82dfd","019ceff9-9f67-7034-9722-02cda2445e09","","null","
                <div class=""stimulus-container"">
                    <img src=""images/instructions/movie_3.png"" class=""exp-image"">
                    <div class=""question-area""></div> 
                </div>","null","","","","","","","","",""
"","","","","","html-button-response","11","102180","0.0-11.0","89975035950644E1BA35A6D97BD2CD4F","019cf067-d6c7-7049-a0f9-0a42c7d82dfd","019ceff9-9f67-7034-9722-02cda2445e09","","885","
                <div class=""stimulus-container"">
                    <img src=""images/instructions/movie_3.png"" class=""exp-image"">
                    <div class=""question-area"">
                        <p style=""font-size: 20px; font-weight: bold; margin: 0;"">Was there a person in this image?</p>
                    </div>
                </div>","0","example_question","3","","","","","","",""
"","","","","","html-keyboard-response","12","106194","0.0-12.0","89975035950644E1BA35A6D97BD2CD4F","019cf067-d6c7-7049-a0f9-0a42c7d82dfd","019ceff9-9f67-7034-9722-02cda2445e09","","null","
                <div class=""stimulus-container"">
                    <img src=""images/instructions/movie_4.png"" class=""exp-image"">
                    <div class=""question-area""></div> 
                </div>","null","","","","","","","","",""
"","","","","","html-button-response","13","107614","0.0-13.0","89975035950644E1BA35A6D97BD2CD4F","019cf067-d6c7-7049-a0f9-0a42c7d82dfd","019ceff9-9f67-7034-9722-02cda2445e09","","1419","
                <div class=""stimulus-container"">
                    <img src=""images/instructions/movie_4.png"" class=""exp-image"">
                    <div class=""question-area"">
                        <p style=""font-size: 20px; font-weight: bold; margin: 0;"">Was there a person in this image?</p>
                    </div>
                </div>","0","example_question","4","","","","","","",""
"","","","","","instructions","14","109480","0.0-14.0","89975035950644E1BA35A6D97BD2CD4F","019cf067-d6c7-7049-a0f9-0a42c7d82dfd","019ceff9-9f67-7034-9722-02cda2445e09","[{""page_index"":0,""viewing_time"":1866}]","1866","","","","","","","","","","",""
"","","","","","instructions","15","117146","0.0-15.0","89975035950644E1BA35A6D97BD2CD4F","019cf067-d6c7-7049-a0f9-0a42c7d82dfd","019ceff9-9f67-7034-9722-02cda2445e09","[{""page_index"":0,""viewing_time"":7665}]","7666","","","","","","","","","","",""
"","","","","","html-keyboard-response","16","118162","0.0-16.0","89975035950644E1BA35A6D97BD2CD4F","019cf067-d6c7-7049-a0f9-0a42c7d82dfd","019ceff9-9f67-7034-9722-02cda2445e09","","null","<div style=""background-color: white; width: 100vw; height: 100vh;""></div>","null","","","","","","","","",""
"","","","","","html-keyboard-response","17","123176","0.0-17.0","89975035950644E1BA35A6D97BD2CD4F","019cf067-d6c7-7049-a0f9-0a42c7d82dfd","019ceff9-9f67-7034-9722-02cda2445e09","","null","
                <div class=""stimulus-container"">
                    <img src=""images/schematic_sequence/dinner_party_scheme/dinner_party_scheme_1.png"" class=""exp-image"">
                    <div class=""question-area""></div> 
                </div>","null","","","","","","","","",""
"","","","","","html-button-response","18","124296","0.0-18.0","89975035950644E1BA35A6D97BD2CD4F","019cf067-d6c7-7049-a0f9-0a42c7d82dfd","019ceff9-9f67-7034-9722-02cda2445e09","","1119","
                <div class=""stimulus-container"">
                    <img src=""images/schematic_sequence/dinner_party_scheme/dinner_party_scheme_1.png"" class=""exp-image"">
                    <div class=""question-area"">
                        <p style=""font-size: 20px; font-weight: bold; margin: 0;"">Is there a person in this image?</p>
                    </div>
                </div>","0","main_experiment_trial","1","dinner_party_scheme","schematic_sequence","","","","",""
"","","","","","html-keyboard-response","19","129300","0.0-19.0","89975035950644E1BA35A6D97BD2CD4F","019cf067-d6c7-7049-a0f9-0a42c7d82dfd","019ceff9-9f67-7034-9722-02cda2445e09","","null","
                <div class=""stimulus-container"">
                    <img src=""images/schematic_sequence/dinner_party_scheme/dinner_party_scheme_2.png"" class=""exp-image"">
                    <div class=""question-area""></div> 
                </div>","null","","","","","","","","",""
"","","","","","html-button-response","20","130063","0.0-20.0","89975035950644E1BA35A6D97BD2CD4F","019cf067-d6c7-7049-a0f9-0a42c7d82dfd","019ceff9-9f67-7034-9722-02cda2445e09","","762","
                <div class=""stimulus-container"">
                    <img src=""images/schematic_sequence/dinner_party_scheme/dinner_party_scheme_2.png"" class=""exp-image"">
                    <div class=""question-area"">
                        <p style=""font-size: 20px; font-weight: bold; margin: 0;"">Is there a person in this image?</p>
                    </div>
                </div>","0","main_experiment_trial","2","dinner_party_scheme","schematic_sequence","","","","",""
"","","","","","html-keyboard-response","21","135064","0.0-21.0","89975035950644E1BA35A6D97BD2CD4F","019cf067-d6c7-7049-a0f9-0a42c7d82dfd","019ceff9-9f67-7034-9722-02cda2445e09","","null","
                <div class=""stimulus-container"">
                    <img src=""images/schematic_sequence/dinner_party_scheme/dinner_party_scheme_3.png"" class=""exp-image"">
                    <div class=""question-area""></div> 
                </div>","null","","","","","","","","",""
"","","","","","html-button-response","22","135496","0.0-22.0","89975035950644E1BA35A6D97BD2CD4F","019cf067-d6c7-7049-a0f9-0a42c7d82dfd","019ceff9-9f67-7034-9722-02cda2445e09","","432","
                <div class=""stimulus-container"">
                    <img src=""images/schematic_sequence/dinner_party_scheme/dinner_party_scheme_3.png"" class=""exp-image"">
                    <div class=""question-area"">
                        <p style=""font-size: 20px; font-weight: bold; margin: 0;"">Is there a person in this image?</p>
                    </div>
                </div>","0","main_experiment_trial","3","dinner_party_scheme","schematic_sequence","","","","",""
"","","","","","html-keyboard-response","23","140497","0.0-23.0","89975035950644E1BA35A6D97BD2CD4F","019cf067-d6c7-7049-a0f9-0a42c7d82dfd","019ceff9-9f67-7034-9722-02cda2445e09","","null","
                <div class=""stimulus-container"">
                    <img src=""images/schematic_sequence/dinner_party_scheme/dinner_party_scheme_4.png"" class=""exp-image"">
                    <div class=""question-area""></div> 
                </div>","null","","","","","","","","",""
"","","","","","html-button-response","24","141212","0.0-24.0","89975035950644E1BA35A6D97BD2CD4F","019cf067-d6c7-7049-a0f9-0a42c7d82dfd","019ceff9-9f67-7034-9722-02cda2445e09","","715","
                <div class=""stimulus-container"">
                    <img src=""images/schematic_sequence/dinner_party_scheme/dinner_party_scheme_4.png"" class=""exp-image"">
                    <div class=""question-area"">
                        <p style=""font-size: 20px; font-weight: bold; margin: 0;"">Is there a person in this image?</p>
                    </div>
                </div>","0","main_experiment_trial","4","dinner_party_scheme","schematic_sequence","","","","",""
"","","","","","html-keyboard-response","25","146223","0.0-25.0","89975035950644E1BA35A6D97BD2CD4F","019cf067-d6c7-7049-a0f9-0a42c7d82dfd","019ceff9-9f67-7034-9722-02cda2445e09","","null","
                <div class=""stimulus-container"">
                    <img src=""images/schematic_sequence/dinner_party_scheme/dinner_party_scheme_5.png"" class=""exp-image"">
                    <div class=""question-area""></div> 
                </div>","null","","","","","","","","",""
"","","","","","html-button-response","26","146552","0.0-26.0","89975035950644E1BA35A6D97BD2CD4F","019cf067-d6c7-7049-a0f9-0a42c7d82dfd","019ceff9-9f67-7034-9722-02cda2445e09","","329","
                <div class=""stimulus-container"">
                    <img src=""images/schematic_sequence/dinner_party_scheme/dinner_party_scheme_5.png"" class=""exp-image"">
                    <div class=""question-area"">
                        <p style=""font-size: 20px; font-weight: bold; margin: 0;"">Is there a person in this image?</p>
                    </div>
                </div>","0","main_experiment_trial","5","dinner_party_scheme","schematic_sequence","","","","",""
"","","","","","html-keyboard-response","27","151567","0.0-27.0","89975035950644E1BA35A6D97BD2CD4F","019cf067-d6c7-7049-a0f9-0a42c7d82dfd","019ceff9-9f67-7034-9722-02cda2445e09","","null","
                <div class=""stimulus-container"">
                    <img src=""images/schematic_sequence/dinner_party_scheme/dinner_party_scheme_6.png"" class=""exp-image"">
                    <div class=""question-area""></div> 
                </div>","null","","","","","","","","",""
"","","","","","html-button-response","28","151857","0.0-28.0","89975035950644E1BA35A6D97BD2CD4F","019cf067-d6c7-7049-a0f9-0a42c7d82dfd","019ceff9-9f67-7034-9722-02cda2445e09","","289","
                <div class=""stimulus-container"">
                    <img src=""images/schematic_sequence/dinner_party_scheme/dinner_party_scheme_6.png"" class=""exp-image"">
                    <div class=""question-area"">
                        <p style=""font-size: 20px; font-weight: bold; margin: 0;"">Is there a person in this image?</p>
                    </div>
                </div>","0","main_experiment_trial","6","dinner_party_scheme","schematic_sequence","","","","",""
"","","","","","html-keyboard-response","29","156864","0.0-29.0","89975035950644E1BA35A6D97BD2CD4F","019cf067-d6c7-7049-a0f9-0a42c7d82dfd","019ceff9-9f67-7034-9722-02cda2445e09","","null","
                <div class=""stimulus-container"">
                    <img src=""images/schematic_sequence/dinner_party_scheme/dinner_party_scheme_7.png"" class=""exp-image"">
                    <div class=""question-area""></div> 
                </div>","null","","","","","","","","",""
"","","","","","html-button-response","30","157644","0.0-30.0","89975035950644E1BA35A6D97BD2CD4F","019cf067-d6c7-7049-a0f9-0a42c7d82dfd","019ceff9-9f67-7034-9722-02cda2445e09","","780","
                <div class=""stimulus-container"">
                    <img src=""images/schematic_sequence/dinner_party_scheme/dinner_party_scheme_7.png"" class=""exp-image"">
                    <div class=""question-area"">
                        <p style=""font-size: 20px; font-weight: bold; margin: 0;"">Is there a person in this image?</p>
                    </div>
                </div>","0","main_experiment_trial","7","dinner_party_scheme","schematic_sequence","","","","",""
"","","","","","html-keyboard-response","31","162660","0.0-31.0","89975035950644E1BA35A6D97BD2CD4F","019cf067-d6c7-7049-a0f9-0a42c7d82dfd","019ceff9-9f67-7034-9722-02cda2445e09","","null","
                <div class=""stimulus-container"">
                    <img src=""images/schematic_sequence/dinner_party_scheme/dinner_party_scheme_8.png"" class=""exp-image"">
                    <div class=""question-area""></div> 
                </div>","null","","","","","","","","",""
"","","","","","html-button-response","32","164495","0.0-32.0","89975035950644E1BA35A6D97BD2CD4F","019cf067-d6c7-7049-a0f9-0a42c7d82dfd","019ceff9-9f67-7034-9722-02cda2445e09","","1835","
                <div class=""stimulus-container"">
                    <img src=""images/schematic_sequence/dinner_party_scheme/dinner_party_scheme_8.png"" class=""exp-image"">
                    <div class=""question-area"">
                        <p style=""font-size: 20px; font-weight: bold; margin: 0;"">Is there a person in this image?</p>
                    </div>
                </div>","0","main_experiment_trial","8","dinner_party_scheme","schematic_sequence","","","","",""
"","","","","","html-keyboard-response","33","169496","0.0-33.0","89975035950644E1BA35A6D97BD2CD4F","019cf067-d6c7-7049-a0f9-0a42c7d82dfd","019ceff9-9f67-7034-9722-02cda2445e09","","null","
                <div class=""stimulus-container"">
                    <img src=""images/schematic_sequence/dinner_party_scheme/dinner_party_scheme_9.png"" class=""exp-image"">
                    <div class=""question-area""></div> 
                </div>","null","","","","","","","","",""
"","","","","","html-button-response","34","170561","0.0-34.0","89975035950644E1BA35A6D97BD2CD4F","019cf067-d6c7-7049-a0f9-0a42c7d82dfd","019ceff9-9f67-7034-9722-02cda2445e09","","1064","
                <div class=""stimulus-container"">
                    <img src=""images/schematic_sequence/dinner_party_scheme/dinner_party_scheme_9.png"" class=""exp-image"">
                    <div class=""question-area"">
                        <p style=""font-size: 20px; font-weight: bold; margin: 0;"">Is there a person in this image?</p>
                    </div>
                </div>","0","main_experiment_trial","9","dinner_party_scheme","schematic_sequence","","","","",""
"","","","","","html-keyboard-response","35","175568","0.0-35.0","89975035950644E1BA35A6D97BD2CD4F","019cf067-d6c7-7049-a0f9-0a42c7d82dfd","019ceff9-9f67-7034-9722-02cda2445e09","","null","
                <div class=""stimulus-container"">
                    <img src=""images/schematic_sequence/dinner_party_scheme/dinner_party_scheme_ten.png"" class=""exp-image"">
                    <div class=""question-area""></div> 
                </div>","null","","","","","","","","",""
"","","","","","html-button-response","36","177594","0.0-36.0","89975035950644E1BA35A6D97BD2CD4F","019cf067-d6c7-7049-a0f9-0a42c7d82dfd","019ceff9-9f67-7034-9722-02cda2445e09","","2026","
                <div class=""stimulus-container"">
                    <img src=""images/schematic_sequence/dinner_party_scheme/dinner_party_scheme_ten.png"" class=""exp-image"">
                    <div class=""question-area"">
                        <p style=""font-size: 20px; font-weight: bold; margin: 0;"">Is there a person in this image?</p>
                    </div>
                </div>","0","main_experiment_trial","ten","dinner_party_scheme","schematic_sequence","","","","",""
"","","","","","html-keyboard-response","37","178596","0.0-37.0","89975035950644E1BA35A6D97BD2CD4F","019cf067-d6c7-7049-a0f9-0a42c7d82dfd","019ceff9-9f67-7034-9722-02cda2445e09","","null","<div style=""background-color: white; width: 100vw; height: 100vh;""></div>","null","","","","","","","","",""
"","","","","","html-keyboard-response","38","183611","0.0-38.0","89975035950644E1BA35A6D97BD2CD4F","019cf067-d6c7-7049-a0f9-0a42c7d82dfd","019ceff9-9f67-7034-9722-02cda2445e09","","null","
                <div class=""stimulus-container"">
                    <img src=""images/causal_sequence/the_performance_causal/the_performance_causal_1.png"" class=""exp-image"">
                    <div class=""question-area""></div> 
                </div>","null","","","","","","","","",""
"","","","","","html-button-response","39","186615","0.0-39.0","89975035950644E1BA35A6D97BD2CD4F","019cf067-d6c7-7049-a0f9-0a42c7d82dfd","019ceff9-9f67-7034-9722-02cda2445e09","","null","
                <div class=""stimulus-container"">
                    <img src=""images/causal_sequence/the_performance_causal/the_performance_causal_1.png"" class=""exp-image"">
                    <div class=""question-area"">
                        <p style=""font-size: 20px; font-weight: bold; margin: 0;"">Is there a person in this image?</p>
                    </div>
                </div>","null","main_experiment_trial","1","the_performance_causal","causal_sequence","","","","",""
"","","","","","html-keyboard-response","40","191617","0.0-40.0","89975035950644E1BA35A6D97BD2CD4F","019cf067-d6c7-7049-a0f9-0a42c7d82dfd","019ceff9-9f67-7034-9722-02cda2445e09","","null","
                <div class=""stimulus-container"">
                    <img src=""images/causal_sequence/the_performance_causal/the_performance_causal_2.png"" class=""exp-image"">
                    <div class=""question-area""></div> 
                </div>","null","","","","","","","","",""
"","","","","","html-button-response","41","192477","0.0-41.0","89975035950644E1BA35A6D97BD2CD4F","019cf067-d6c7-7049-a0f9-0a42c7d82dfd","019ceff9-9f67-7034-9722-02cda2445e09","","859","
                <div class=""stimulus-container"">
                    <img src=""images/causal_sequence/the_performance_causal/the_performance_causal_2.png"" class=""exp-image"">
                    <div class=""question-area"">
                        <p style=""font-size: 20px; font-weight: bold; margin: 0;"">Is there a person in this image?</p>
                    </div>
                </div>","0","main_experiment_trial","2","the_performance_causal","causal_sequence","","","","",""
"","","","","","html-keyboard-response","42","197489","0.0-42.0","89975035950644E1BA35A6D97BD2CD4F","019cf067-d6c7-7049-a0f9-0a42c7d82dfd","019ceff9-9f67-7034-9722-02cda2445e09","","null","
                <div class=""stimulus-container"">
                    <img src=""images/causal_sequence/the_performance_causal/the_performance_causal_3.png"" class=""exp-image"">
                    <div class=""question-area""></div> 
                </div>","null","","","","","","","","",""
"","","","","","html-button-response","43","198277","0.0-43.0","89975035950644E1BA35A6D97BD2CD4F","019cf067-d6c7-7049-a0f9-0a42c7d82dfd","019ceff9-9f67-7034-9722-02cda2445e09","","787","
                <div class=""stimulus-container"">
                    <img src=""images/causal_sequence/the_performance_causal/the_performance_causal_3.png"" class=""exp-image"">
                    <div class=""question-area"">
                        <p style=""font-size: 20px; font-weight: bold; margin: 0;"">Is there a person in this image?</p>
                    </div>
                </div>","0","main_experiment_trial","3","the_performance_causal","causal_sequence","","","","",""
"","","","","","html-keyboard-response","44","203285","0.0-44.0","89975035950644E1BA35A6D97BD2CD4F","019cf067-d6c7-7049-a0f9-0a42c7d82dfd","019ceff9-9f67-7034-9722-02cda2445e09","","null","
                <div class=""stimulus-container"">
                    <img src=""images/causal_sequence/the_performance_causal/the_performance_causal_4.png"" class=""exp-image"">
                    <div class=""question-area""></div> 
                </div>","null","","","","","","","","",""
"","","","","","html-button-response","45","204543","0.0-45.0","89975035950644E1BA35A6D97BD2CD4F","019cf067-d6c7-7049-a0f9-0a42c7d82dfd","019ceff9-9f67-7034-9722-02cda2445e09","","1257","
                <div class=""stimulus-container"">
                    <img src=""images/causal_sequence/the_performance_causal/the_performance_causal_4.png"" class=""exp-image"">
                    <div class=""question-area"">
                        <p style=""font-size: 20px; font-weight: bold; margin: 0;"">Is there a person in this image?</p>
                    </div>
                </div>","0","main_experiment_trial","4","the_performance_causal","causal_sequence","","","","",""
"","","","","","html-keyboard-response","46","209547","0.0-46.0","89975035950644E1BA35A6D97BD2CD4F","019cf067-d6c7-7049-a0f9-0a42c7d82dfd","019ceff9-9f67-7034-9722-02cda2445e09","","null","
                <div class=""stimulus-container"">
                    <img src=""images/causal_sequence/the_performance_causal/the_performance_causal_5.png"" class=""exp-image"">
                    <div class=""question-area""></div> 
                </div>","null","","","","","","","","",""
"","","","","","html-button-response","47","210875","0.0-47.0","89975035950644E1BA35A6D97BD2CD4F","019cf067-d6c7-7049-a0f9-0a42c7d82dfd","019ceff9-9f67-7034-9722-02cda2445e09","","1328","
                <div class=""stimulus-container"">
                    <img src=""images/causal_sequence/the_performance_causal/the_performance_causal_5.png"" class=""exp-image"">
                    <div class=""question-area"">
                        <p style=""font-size: 20px; font-weight: bold; margin: 0;"">Is there a person in this image?</p>
                    </div>
                </div>","0","main_experiment_trial","5","the_performance_causal","causal_sequence","","","","",""
"","","","","","html-keyboard-response","48","215876","0.0-48.0","89975035950644E1BA35A6D97BD2CD4F","019cf067-d6c7-7049-a0f9-0a42c7d82dfd","019ceff9-9f67-7034-9722-02cda2445e09","","null","
                <div class=""stimulus-container"">
                    <img src=""images/causal_sequence/the_performance_causal/the_performance_causal_6.png"" class=""exp-image"">
                    <div class=""question-area""></div> 
                </div>","null","","","","","","","","",""
"","","","","","html-button-response","49","217675","0.0-49.0","89975035950644E1BA35A6D97BD2CD4F","019cf067-d6c7-7049-a0f9-0a42c7d82dfd","019ceff9-9f67-7034-9722-02cda2445e09","","1798","
                <div class=""stimulus-container"">
                    <img src=""images/causal_sequence/the_performance_causal/the_performance_causal_6.png"" class=""exp-image"">
                    <div class=""question-area"">
                        <p style=""font-size: 20px; font-weight: bold; margin: 0;"">Is there a person in this image?</p>
                    </div>
                </div>","0","main_experiment_trial","6","the_performance_causal","causal_sequence","","","","",""
"","","","","","html-keyboard-response","50","222687","0.0-50.0","89975035950644E1BA35A6D97BD2CD4F","019cf067-d6c7-7049-a0f9-0a42c7d82dfd","019ceff9-9f67-7034-9722-02cda2445e09","","null","
                <div class=""stimulus-container"">
                    <img src=""images/causal_sequence/the_performance_causal/the_performance_causal_7.png"" class=""exp-image"">
                    <div class=""question-area""></div> 
                </div>","null","","","","","","","","",""
"","","","","","html-button-response","51","223358","0.0-51.0","89975035950644E1BA35A6D97BD2CD4F","019cf067-d6c7-7049-a0f9-0a42c7d82dfd","019ceff9-9f67-7034-9722-02cda2445e09","","671","
                <div class=""stimulus-container"">
                    <img src=""images/causal_sequence/the_performance_causal/the_performance_causal_7.png"" class=""exp-image"">
                    <div class=""question-area"">
                        <p style=""font-size: 20px; font-weight: bold; margin: 0;"">Is there a person in this image?</p>
                    </div>
                </div>","0","main_experiment_trial","7","the_performance_causal","causal_sequence","","","","",""
"","","","","","html-keyboard-response","52","228362","0.0-52.0","89975035950644E1BA35A6D97BD2CD4F","019cf067-d6c7-7049-a0f9-0a42c7d82dfd","019ceff9-9f67-7034-9722-02cda2445e09","","null","
                <div class=""stimulus-container"">
                    <img src=""images/causal_sequence/the_performance_causal/the_performance_causal_8.png"" class=""exp-image"">
                    <div class=""question-area""></div> 
                </div>","null","","","","","","","","",""
"","","","","","html-button-response","53","229158","0.0-53.0","89975035950644E1BA35A6D97BD2CD4F","019cf067-d6c7-7049-a0f9-0a42c7d82dfd","019ceff9-9f67-7034-9722-02cda2445e09","","795","
                <div class=""stimulus-container"">
                    <img src=""images/causal_sequence/the_performance_causal/the_performance_causal_8.png"" class=""exp-image"">
                    <div class=""question-area"">
                        <p style=""font-size: 20px; font-weight: bold; margin: 0;"">Is there a person in this image?</p>
                    </div>
                </div>","0","main_experiment_trial","8","the_performance_causal","causal_sequence","","","","",""
"","","","","","html-keyboard-response","54","234166","0.0-54.0","89975035950644E1BA35A6D97BD2CD4F","019cf067-d6c7-7049-a0f9-0a42c7d82dfd","019ceff9-9f67-7034-9722-02cda2445e09","","null","
                <div class=""stimulus-container"">
                    <img src=""images/causal_sequence/the_performance_causal/the_performance_causal_9.png"" class=""exp-image"">
                    <div class=""question-area""></div> 
                </div>","null","","","","","","","","",""
"","","","","","html-button-response","55","234979","0.0-55.0","89975035950644E1BA35A6D97BD2CD4F","019cf067-d6c7-7049-a0f9-0a42c7d82dfd","019ceff9-9f67-7034-9722-02cda2445e09","","813","
                <div class=""stimulus-container"">
                    <img src=""images/causal_sequence/the_performance_causal/the_performance_causal_9.png"" class=""exp-image"">
                    <div class=""question-area"">
                        <p style=""font-size: 20px; font-weight: bold; margin: 0;"">Is there a person in this image?</p>
                    </div>
                </div>","0","main_experiment_trial","9","the_performance_causal","causal_sequence","","","","",""
"","","","","","html-keyboard-response","56","239993","0.0-56.0","89975035950644E1BA35A6D97BD2CD4F","019cf067-d6c7-7049-a0f9-0a42c7d82dfd","019ceff9-9f67-7034-9722-02cda2445e09","","null","
                <div class=""stimulus-container"">
                    <img src=""images/causal_sequence/the_performance_causal/the_performance_causal_ten.png"" class=""exp-image"">
                    <div class=""question-area""></div> 
                </div>","null","","","","","","","","",""
"","","","","","html-button-response","57","240822","0.0-57.0","89975035950644E1BA35A6D97BD2CD4F","019cf067-d6c7-7049-a0f9-0a42c7d82dfd","019ceff9-9f67-7034-9722-02cda2445e09","","829","
                <div class=""stimulus-container"">
                    <img src=""images/causal_sequence/the_performance_causal/the_performance_causal_ten.png"" class=""exp-image"">
                    <div class=""question-area"">
                        <p style=""font-size: 20px; font-weight: bold; margin: 0;"">Is there a person in this image?</p>
                    </div>
                </div>","0","main_experiment_trial","ten","the_performance_causal","causal_sequence","","","","",""
"","","","","","html-keyboard-response","58","241826","0.0-58.0","89975035950644E1BA35A6D97BD2CD4F","019cf067-d6c7-7049-a0f9-0a42c7d82dfd","019ceff9-9f67-7034-9722-02cda2445e09","","null","<div style=""background-color: white; width: 100vw; height: 100vh;""></div>","null","","","","","","","","",""
"","","","","","html-keyboard-response","59","246836","0.0-59.0","89975035950644E1BA35A6D97BD2CD4F","019cf067-d6c7-7049-a0f9-0a42c7d82dfd","019ceff9-9f67-7034-9722-02cda2445e09","","null","
                <div class=""stimulus-container"">
                    <img src=""images/causal_sequence/saving_a_cat_causal/saving_a_cat_causal_1.png"" class=""exp-image"">
                    <div class=""question-area""></div> 
                </div>","null","","","","","","","","",""
"","","","","","html-button-response","60","248224","0.0-60.0","89975035950644E1BA35A6D97BD2CD4F","019cf067-d6c7-7049-a0f9-0a42c7d82dfd","019ceff9-9f67-7034-9722-02cda2445e09","","1388","
                <div class=""stimulus-container"">
                    <img src=""images/causal_sequence/saving_a_cat_causal/saving_a_cat_causal_1.png"" class=""exp-image"">
                    <div class=""question-area"">
                        <p style=""font-size: 20px; font-weight: bold; margin: 0;"">Is there a person in this image?</p>
                    </div>
                </div>","0","main_experiment_trial","1","saving_a_cat_causal","causal_sequence","","","","",""
"","","","","","html-keyboard-response","61","253240","0.0-61.0","89975035950644E1BA35A6D97BD2CD4F","019cf067-d6c7-7049-a0f9-0a42c7d82dfd","019ceff9-9f67-7034-9722-02cda2445e09","","null","
                <div class=""stimulus-container"">
                    <img src=""images/causal_sequence/saving_a_cat_causal/saving_a_cat_causal_2.png"" class=""exp-image"">
                    <div class=""question-area""></div> 
                </div>","null","","","","","","","","",""
"","","","","","html-button-response","62","255057","0.0-62.0","89975035950644E1BA35A6D97BD2CD4F","019cf067-d6c7-7049-a0f9-0a42c7d82dfd","019ceff9-9f67-7034-9722-02cda2445e09","","1816","
                <div class=""stimulus-container"">
                    <img src=""images/causal_sequence/saving_a_cat_causal/saving_a_cat_causal_2.png"" class=""exp-image"">
                    <div class=""question-area"">
                        <p style=""font-size: 20px; font-weight: bold; margin: 0;"">Is there a person in this image?</p>
                    </div>
                </div>","1","main_experiment_trial","2","saving_a_cat_causal","causal_sequence","","","","",""
"","","","","","html-keyboard-response","63","260063","0.0-63.0","89975035950644E1BA35A6D97BD2CD4F","019cf067-d6c7-7049-a0f9-0a42c7d82dfd","019ceff9-9f67-7034-9722-02cda2445e09","","null","
                <div class=""stimulus-container"">
                    <img src=""images/causal_sequence/saving_a_cat_causal/saving_a_cat_causal_3.png"" class=""exp-image"">
                    <div class=""question-area""></div> 
                </div>","null","","","","","","","","",""
"","","","","","html-button-response","64","260824","0.0-64.0","89975035950644E1BA35A6D97BD2CD4F","019cf067-d6c7-7049-a0f9-0a42c7d82dfd","019ceff9-9f67-7034-9722-02cda2445e09","","760","
                <div class=""stimulus-container"">
                    <img src=""images/causal_sequence/saving_a_cat_causal/saving_a_cat_causal_3.png"" class=""exp-image"">
                    <div class=""question-area"">
                        <p style=""font-size: 20px; font-weight: bold; margin: 0;"">Is there a person in this image?</p>
                    </div>
                </div>","1","main_experiment_trial","3","saving_a_cat_causal","causal_sequence","","","","",""
"","","","","","html-keyboard-response","65","265832","0.0-65.0","89975035950644E1BA35A6D97BD2CD4F","019cf067-d6c7-7049-a0f9-0a42c7d82dfd","019ceff9-9f67-7034-9722-02cda2445e09","","null","
                <div class=""stimulus-container"">
                    <img src=""images/causal_sequence/saving_a_cat_causal/saving_a_cat_causal_4.png"" class=""exp-image"">
                    <div class=""question-area""></div> 
                </div>","null","","","","","","","","",""
"","","","","","html-button-response","66","266641","0.0-66.0","89975035950644E1BA35A6D97BD2CD4F","019cf067-d6c7-7049-a0f9-0a42c7d82dfd","019ceff9-9f67-7034-9722-02cda2445e09","","809","
                <div class=""stimulus-container"">
                    <img src=""images/causal_sequence/saving_a_cat_causal/saving_a_cat_causal_4.png"" class=""exp-image"">
                    <div class=""question-area"">
                        <p style=""font-size: 20px; font-weight: bold; margin: 0;"">Is there a person in this image?</p>
                    </div>
                </div>","0","main_experiment_trial","4","saving_a_cat_causal","causal_sequence","","","","",""
"","","","","","html-keyboard-response","67","271655","0.0-67.0","89975035950644E1BA35A6D97BD2CD4F","019cf067-d6c7-7049-a0f9-0a42c7d82dfd","019ceff9-9f67-7034-9722-02cda2445e09","","null","
                <div class=""stimulus-container"">
                    <img src=""images/causal_sequence/saving_a_cat_causal/saving_a_cat_causal_5.png"" class=""exp-image"">
                    <div class=""question-area""></div> 
                </div>","null","","","","","","","","",""
"","","","","","html-button-response","68","273023","0.0-68.0","89975035950644E1BA35A6D97BD2CD4F","019cf067-d6c7-7049-a0f9-0a42c7d82dfd","019ceff9-9f67-7034-9722-02cda2445e09","","1367","
                <div class=""stimulus-container"">
                    <img src=""images/causal_sequence/saving_a_cat_causal/saving_a_cat_causal_5.png"" class=""exp-image"">
                    <div class=""question-area"">
                        <p style=""font-size: 20px; font-weight: bold; margin: 0;"">Is there a person in this image?</p>
                    </div>
                </div>","0","main_experiment_trial","5","saving_a_cat_causal","causal_sequence","","","","",""
"","","","","","html-keyboard-response","69","278030","0.0-69.0","89975035950644E1BA35A6D97BD2CD4F","019cf067-d6c7-7049-a0f9-0a42c7d82dfd","019ceff9-9f67-7034-9722-02cda2445e09","","null","
                <div class=""stimulus-container"">
                    <img src=""images/causal_sequence/saving_a_cat_causal/saving_a_cat_causal_6.png"" class=""exp-image"">
                    <div class=""question-area""></div> 
                </div>","null","","","","","","","","",""
"","","","","","html-button-response","70","278923","0.0-70.0","89975035950644E1BA35A6D97BD2CD4F","019cf067-d6c7-7049-a0f9-0a42c7d82dfd","019ceff9-9f67-7034-9722-02cda2445e09","","892","
                <div class=""stimulus-container"">
                    <img src=""images/causal_sequence/saving_a_cat_causal/saving_a_cat_causal_6.png"" class=""exp-image"">
                    <div class=""question-area"">
                        <p style=""font-size: 20px; font-weight: bold; margin: 0;"">Is there a person in this image?</p>
                    </div>
                </div>","0","main_experiment_trial","6","saving_a_cat_causal","causal_sequence","","","","",""
"","","","","","html-keyboard-response","71","283925","0.0-71.0","89975035950644E1BA35A6D97BD2CD4F","019cf067-d6c7-7049-a0f9-0a42c7d82dfd","019ceff9-9f67-7034-9722-02cda2445e09","","null","
                <div class=""stimulus-container"">
                    <img src=""images/causal_sequence/saving_a_cat_causal/saving_a_cat_causal_7.png"" class=""exp-image"">
                    <div class=""question-area""></div> 
                </div>","null","","","","","","","","",""
"","","","","","html-button-response","72","285621","0.0-72.0","89975035950644E1BA35A6D97BD2CD4F","019cf067-d6c7-7049-a0f9-0a42c7d82dfd","019ceff9-9f67-7034-9722-02cda2445e09","","1696","
                <div class=""stimulus-container"">
                    <img src=""images/causal_sequence/saving_a_cat_causal/saving_a_cat_causal_7.png"" class=""exp-image"">
                    <div class=""question-area"">
                        <p style=""font-size: 20px; font-weight: bold; margin: 0;"">Is there a person in this image?</p>
                    </div>
                </div>","0","main_experiment_trial","7","saving_a_cat_causal","causal_sequence","","","","",""
"","","","","","html-keyboard-response","73","290636","0.0-73.0","89975035950644E1BA35A6D97BD2CD4F","019cf067-d6c7-7049-a0f9-0a42c7d82dfd","019ceff9-9f67-7034-9722-02cda2445e09","","null","
                <div class=""stimulus-container"">
                    <img src=""images/causal_sequence/saving_a_cat_causal/saving_a_cat_causal_8.png"" class=""exp-image"">
                    <div class=""question-area""></div> 
                </div>","null","","","","","","","","",""
"","","","","","html-button-response","74","292737","0.0-74.0","89975035950644E1BA35A6D97BD2CD4F","019cf067-d6c7-7049-a0f9-0a42c7d82dfd","019ceff9-9f67-7034-9722-02cda2445e09","","2101","
                <div class=""stimulus-container"">
                    <img src=""images/causal_sequence/saving_a_cat_causal/saving_a_cat_causal_8.png"" class=""exp-image"">
                    <div class=""question-area"">
                        <p style=""font-size: 20px; font-weight: bold; margin: 0;"">Is there a person in this image?</p>
                    </div>
                </div>","0","main_experiment_trial","8","saving_a_cat_causal","causal_sequence","","","","",""
"","","","","","html-keyboard-response","75","297739","0.0-75.0","89975035950644E1BA35A6D97BD2CD4F","019cf067-d6c7-7049-a0f9-0a42c7d82dfd","019ceff9-9f67-7034-9722-02cda2445e09","","null","
                <div class=""stimulus-container"">
                    <img src=""images/causal_sequence/saving_a_cat_causal/saving_a_cat_causal_9.png"" class=""exp-image"">
                    <div class=""question-area""></div> 
                </div>","null","","","","","","","","",""
"","","","","","html-button-response","76","298469","0.0-76.0","89975035950644E1BA35A6D97BD2CD4F","019cf067-d6c7-7049-a0f9-0a42c7d82dfd","019ceff9-9f67-7034-9722-02cda2445e09","","729","
                <div class=""stimulus-container"">
                    <img src=""images/causal_sequence/saving_a_cat_causal/saving_a_cat_causal_9.png"" class=""exp-image"">
                    <div class=""question-area"">
                        <p style=""font-size: 20px; font-weight: bold; margin: 0;"">Is there a person in this image?</p>
                    </div>
                </div>","0","main_experiment_trial","9","saving_a_cat_causal","causal_sequence","","","","",""
"","","","","","html-keyboard-response","77","303471","0.0-77.0","89975035950644E1BA35A6D97BD2CD4F","019cf067-d6c7-7049-a0f9-0a42c7d82dfd","019ceff9-9f67-7034-9722-02cda2445e09","","null","
                <div class=""stimulus-container"">
                    <img src=""images/causal_sequence/saving_a_cat_causal/saving_a_cat_causal_ten.png"" class=""exp-image"">
                    <div class=""question-area""></div> 
                </div>","null","","","","","","","","",""
"","","","","","html-button-response","78","304255","0.0-78.0","89975035950644E1BA35A6D97BD2CD4F","019cf067-d6c7-7049-a0f9-0a42c7d82dfd","019ceff9-9f67-7034-9722-02cda2445e09","","783","
                <div class=""stimulus-container"">
                    <img src=""images/causal_sequence/saving_a_cat_causal/saving_a_cat_causal_ten.png"" class=""exp-image"">
                    <div class=""question-area"">
                        <p style=""font-size: 20px; font-weight: bold; margin: 0;"">Is there a person in this image?</p>
                    </div>
                </div>","0","main_experiment_trial","ten","saving_a_cat_causal","causal_sequence","","","","",""
"","","","","","html-keyboard-response","79","305256","0.0-79.0","89975035950644E1BA35A6D97BD2CD4F","019cf067-d6c7-7049-a0f9-0a42c7d82dfd","019ceff9-9f67-7034-9722-02cda2445e09","","null","<div style=""background-color: white; width: 100vw; height: 100vh;""></div>","null","","","","","","","","",""
"","","","","","html-keyboard-response","80","310264","0.0-80.0","89975035950644E1BA35A6D97BD2CD4F","019cf067-d6c7-7049-a0f9-0a42c7d82dfd","019ceff9-9f67-7034-9722-02cda2445e09","","null","
                <div class=""stimulus-container"">
                    <img src=""images/schematic_sequence/restaurant_scheme/restaurant_scheme_1.png"" class=""exp-image"">
                    <div class=""question-area""></div> 
                </div>","null","","","","","","","","",""
"","","","","","html-button-response","81","312404","0.0-81.0","89975035950644E1BA35A6D97BD2CD4F","019cf067-d6c7-7049-a0f9-0a42c7d82dfd","019ceff9-9f67-7034-9722-02cda2445e09","","2140","
                <div class=""stimulus-container"">
                    <img src=""images/schematic_sequence/restaurant_scheme/restaurant_scheme_1.png"" class=""exp-image"">
                    <div class=""question-area"">
                        <p style=""font-size: 20px; font-weight: bold; margin: 0;"">Is there a person in this image?</p>
                    </div>
                </div>","0","main_experiment_trial","1","restaurant_scheme","schematic_sequence","","","","",""
"","","","","","html-keyboard-response","82","317417","0.0-82.0","89975035950644E1BA35A6D97BD2CD4F","019cf067-d6c7-7049-a0f9-0a42c7d82dfd","019ceff9-9f67-7034-9722-02cda2445e09","","null","
                <div class=""stimulus-container"">
                    <img src=""images/schematic_sequence/restaurant_scheme/restaurant_scheme_2.png"" class=""exp-image"">
                    <div class=""question-area""></div> 
                </div>","null","","","","","","","","",""
"","","","","","html-button-response","83","318871","0.0-83.0","89975035950644E1BA35A6D97BD2CD4F","019cf067-d6c7-7049-a0f9-0a42c7d82dfd","019ceff9-9f67-7034-9722-02cda2445e09","","1453","
                <div class=""stimulus-container"">
                    <img src=""images/schematic_sequence/restaurant_scheme/restaurant_scheme_2.png"" class=""exp-image"">
                    <div class=""question-area"">
                        <p style=""font-size: 20px; font-weight: bold; margin: 0;"">Is there a person in this image?</p>
                    </div>
                </div>","1","main_experiment_trial","2","restaurant_scheme","schematic_sequence","","","","",""
"","","","","","html-keyboard-response","84","323878","0.0-84.0","89975035950644E1BA35A6D97BD2CD4F","019cf067-d6c7-7049-a0f9-0a42c7d82dfd","019ceff9-9f67-7034-9722-02cda2445e09","","null","
                <div class=""stimulus-container"">
                    <img src=""images/schematic_sequence/restaurant_scheme/restaurant_scheme_3.png"" class=""exp-image"">
                    <div class=""question-area""></div> 
                </div>","null","","","","","","","","",""
"","","","","","html-button-response","85","324520","0.0-85.0","89975035950644E1BA35A6D97BD2CD4F","019cf067-d6c7-7049-a0f9-0a42c7d82dfd","019ceff9-9f67-7034-9722-02cda2445e09","","641","
                <div class=""stimulus-container"">
                    <img src=""images/schematic_sequence/restaurant_scheme/restaurant_scheme_3.png"" class=""exp-image"">
                    <div class=""question-area"">
                        <p style=""font-size: 20px; font-weight: bold; margin: 0;"">Is there a person in this image?</p>
                    </div>
                </div>","1","main_experiment_trial","3","restaurant_scheme","schematic_sequence","","","","",""
"","","","","","html-keyboard-response","86","329533","0.0-86.0","89975035950644E1BA35A6D97BD2CD4F","019cf067-d6c7-7049-a0f9-0a42c7d82dfd","019ceff9-9f67-7034-9722-02cda2445e09","","null","
                <div class=""stimulus-container"">
                    <img src=""images/schematic_sequence/restaurant_scheme/restaurant_scheme_4.png"" class=""exp-image"">
                    <div class=""question-area""></div> 
                </div>","null","","","","","","","","",""
"","","","","","html-button-response","87","330487","0.0-87.0","89975035950644E1BA35A6D97BD2CD4F","019cf067-d6c7-7049-a0f9-0a42c7d82dfd","019ceff9-9f67-7034-9722-02cda2445e09","","953","
                <div class=""stimulus-container"">
                    <img src=""images/schematic_sequence/restaurant_scheme/restaurant_scheme_4.png"" class=""exp-image"">
                    <div class=""question-area"">
                        <p style=""font-size: 20px; font-weight: bold; margin: 0;"">Is there a person in this image?</p>
                    </div>
                </div>","0","main_experiment_trial","4","restaurant_scheme","schematic_sequence","","","","",""
"","","","","","html-keyboard-response","88","335499","0.0-88.0","89975035950644E1BA35A6D97BD2CD4F","019cf067-d6c7-7049-a0f9-0a42c7d82dfd","019ceff9-9f67-7034-9722-02cda2445e09","","null","
                <div class=""stimulus-container"">
                    <img src=""images/schematic_sequence/restaurant_scheme/restaurant_scheme_5.png"" class=""exp-image"">
                    <div class=""question-area""></div> 
                </div>","null","","","","","","","","",""
"","","","","","html-button-response","89","337587","0.0-89.0","89975035950644E1BA35A6D97BD2CD4F","019cf067-d6c7-7049-a0f9-0a42c7d82dfd","019ceff9-9f67-7034-9722-02cda2445e09","","2087","
                <div class=""stimulus-container"">
                    <img src=""images/schematic_sequence/restaurant_scheme/restaurant_scheme_5.png"" class=""exp-image"">
                    <div class=""question-area"">
                        <p style=""font-size: 20px; font-weight: bold; margin: 0;"">Is there a person in this image?</p>
                    </div>
                </div>","0","main_experiment_trial","5","restaurant_scheme","schematic_sequence","","","","",""
"","","","","","html-keyboard-response","90","342598","0.0-90.0","89975035950644E1BA35A6D97BD2CD4F","019cf067-d6c7-7049-a0f9-0a42c7d82dfd","019ceff9-9f67-7034-9722-02cda2445e09","","null","
                <div class=""stimulus-container"">
                    <img src=""images/schematic_sequence/restaurant_scheme/restaurant_scheme_6.png"" class=""exp-image"">
                    <div class=""question-area""></div> 
                </div>","null","","","","","","","","",""
"","","","","","html-button-response","91","343271","0.0-91.0","89975035950644E1BA35A6D97BD2CD4F","019cf067-d6c7-7049-a0f9-0a42c7d82dfd","019ceff9-9f67-7034-9722-02cda2445e09","","672","
                <div class=""stimulus-container"">
                    <img src=""images/schematic_sequence/restaurant_scheme/restaurant_scheme_6.png"" class=""exp-image"">
                    <div class=""question-area"">
                        <p style=""font-size: 20px; font-weight: bold; margin: 0;"">Is there a person in this image?</p>
                    </div>
                </div>","1","main_experiment_trial","6","restaurant_scheme","schematic_sequence","","","","",""
"","","","","","html-keyboard-response","92","348281","0.0-92.0","89975035950644E1BA35A6D97BD2CD4F","019cf067-d6c7-7049-a0f9-0a42c7d82dfd","019ceff9-9f67-7034-9722-02cda2445e09","","null","
                <div class=""stimulus-container"">
                    <img src=""images/schematic_sequence/restaurant_scheme/restaurant_scheme_7.png"" class=""exp-image"">
                    <div class=""question-area""></div> 
                </div>","null","","","","","","","","",""
"","","","","","html-button-response","93","349370","0.0-93.0","89975035950644E1BA35A6D97BD2CD4F","019cf067-d6c7-7049-a0f9-0a42c7d82dfd","019ceff9-9f67-7034-9722-02cda2445e09","","1088","
                <div class=""stimulus-container"">
                    <img src=""images/schematic_sequence/restaurant_scheme/restaurant_scheme_7.png"" class=""exp-image"">
                    <div class=""question-area"">
                        <p style=""font-size: 20px; font-weight: bold; margin: 0;"">Is there a person in this image?</p>
                    </div>
                </div>","1","main_experiment_trial","7","restaurant_scheme","schematic_sequence","","","","",""
"","","","","","html-keyboard-response","94","354385","0.0-94.0","89975035950644E1BA35A6D97BD2CD4F","019cf067-d6c7-7049-a0f9-0a42c7d82dfd","019ceff9-9f67-7034-9722-02cda2445e09","","null","
                <div class=""stimulus-container"">
                    <img src=""images/schematic_sequence/restaurant_scheme/restaurant_scheme_8.png"" class=""exp-image"">
                    <div class=""question-area""></div> 
                </div>","null","","","","","","","","",""
"","","","","","html-button-response","95","355155","0.0-95.0","89975035950644E1BA35A6D97BD2CD4F","019cf067-d6c7-7049-a0f9-0a42c7d82dfd","019ceff9-9f67-7034-9722-02cda2445e09","","769","
                <div class=""stimulus-container"">
                    <img src=""images/schematic_sequence/restaurant_scheme/restaurant_scheme_8.png"" class=""exp-image"">
                    <div class=""question-area"">
                        <p style=""font-size: 20px; font-weight: bold; margin: 0;"">Is there a person in this image?</p>
                    </div>
                </div>","1","main_experiment_trial","8","restaurant_scheme","schematic_sequence","","","","",""
"","","","","","html-keyboard-response","96","360160","0.0-96.0","89975035950644E1BA35A6D97BD2CD4F","019cf067-d6c7-7049-a0f9-0a42c7d82dfd","019ceff9-9f67-7034-9722-02cda2445e09","","null","
                <div class=""stimulus-container"">
                    <img src=""images/schematic_sequence/restaurant_scheme/restaurant_scheme_9.png"" class=""exp-image"">
                    <div class=""question-area""></div> 
                </div>","null","","","","","","","","",""
"","","","","","html-button-response","97","360852","0.0-97.0","89975035950644E1BA35A6D97BD2CD4F","019cf067-d6c7-7049-a0f9-0a42c7d82dfd","019ceff9-9f67-7034-9722-02cda2445e09","","691","
                <div class=""stimulus-container"">
                    <img src=""images/schematic_sequence/restaurant_scheme/restaurant_scheme_9.png"" class=""exp-image"">
                    <div class=""question-area"">
                        <p style=""font-size: 20px; font-weight: bold; margin: 0;"">Is there a person in this image?</p>
                    </div>
                </div>","0","main_experiment_trial","9","restaurant_scheme","schematic_sequence","","","","",""
"","","","","","html-keyboard-response","98","365855","0.0-98.0","89975035950644E1BA35A6D97BD2CD4F","019cf067-d6c7-7049-a0f9-0a42c7d82dfd","019ceff9-9f67-7034-9722-02cda2445e09","","null","
                <div class=""stimulus-container"">
                    <img src=""images/schematic_sequence/restaurant_scheme/restaurant_scheme_ten.png"" class=""exp-image"">
                    <div class=""question-area""></div> 
                </div>","null","","","","","","","","",""
"","","","","","html-button-response","99","367336","0.0-99.0","89975035950644E1BA35A6D97BD2CD4F","019cf067-d6c7-7049-a0f9-0a42c7d82dfd","019ceff9-9f67-7034-9722-02cda2445e09","","1480","
                <div class=""stimulus-container"">
                    <img src=""images/schematic_sequence/restaurant_scheme/restaurant_scheme_ten.png"" class=""exp-image"">
                    <div class=""question-area"">
                        <p style=""font-size: 20px; font-weight: bold; margin: 0;"">Is there a person in this image?</p>
                    </div>
                </div>","0","main_experiment_trial","ten","restaurant_scheme","schematic_sequence","","","","",""
"","","","","","html-keyboard-response","100","368348","0.0-100.0","89975035950644E1BA35A6D97BD2CD4F","019cf067-d6c7-7049-a0f9-0a42c7d82dfd","019ceff9-9f67-7034-9722-02cda2445e09","","null","<div style=""background-color: white; width: 100vw; height: 100vh;""></div>","null","","","","","","","","",""
"","","","","","html-keyboard-response","101","373357","0.0-101.0","89975035950644E1BA35A6D97BD2CD4F","019cf067-d6c7-7049-a0f9-0a42c7d82dfd","019ceff9-9f67-7034-9722-02cda2445e09","","null","
                <div class=""stimulus-container"">
                    <img src=""images/schematic_sequence/flight_scheme/flight_scheme_1.png"" class=""exp-image"">
                    <div class=""question-area""></div> 
                </div>","null","","","","","","","","",""
"","","","","","html-button-response","102","374134","0.0-102.0","89975035950644E1BA35A6D97BD2CD4F","019cf067-d6c7-7049-a0f9-0a42c7d82dfd","019ceff9-9f67-7034-9722-02cda2445e09","","777","
                <div class=""stimulus-container"">
                    <img src=""images/schematic_sequence/flight_scheme/flight_scheme_1.png"" class=""exp-image"">
                    <div class=""question-area"">
                        <p style=""font-size: 20px; font-weight: bold; margin: 0;"">Is there a person in this image?</p>
                    </div>
                </div>","0","main_experiment_trial","1","flight_scheme","schematic_sequence","","","","",""
"","","","","","html-keyboard-response","103","379141","0.0-103.0","89975035950644E1BA35A6D97BD2CD4F","019cf067-d6c7-7049-a0f9-0a42c7d82dfd","019ceff9-9f67-7034-9722-02cda2445e09","","null","
                <div class=""stimulus-container"">
                    <img src=""images/schematic_sequence/flight_scheme/flight_scheme_2.png"" class=""exp-image"">
                    <div class=""question-area""></div> 
                </div>","null","","","","","","","","",""
"","","","","","html-button-response","104","380568","0.0-104.0","89975035950644E1BA35A6D97BD2CD4F","019cf067-d6c7-7049-a0f9-0a42c7d82dfd","019ceff9-9f67-7034-9722-02cda2445e09","","1426","
                <div class=""stimulus-container"">
                    <img src=""images/schematic_sequence/flight_scheme/flight_scheme_2.png"" class=""exp-image"">
                    <div class=""question-area"">
                        <p style=""font-size: 20px; font-weight: bold; margin: 0;"">Is there a person in this image?</p>
                    </div>
                </div>","1","main_experiment_trial","2","flight_scheme","schematic_sequence","","","","",""
"","","","","","html-keyboard-response","105","385582","0.0-105.0","89975035950644E1BA35A6D97BD2CD4F","019cf067-d6c7-7049-a0f9-0a42c7d82dfd","019ceff9-9f67-7034-9722-02cda2445e09","","null","
                <div class=""stimulus-container"">
                    <img src=""images/schematic_sequence/flight_scheme/flight_scheme_3.png"" class=""exp-image"">
                    <div class=""question-area""></div> 
                </div>","null","","","","","","","","",""
"","","","","","html-button-response","106","387084","0.0-106.0","89975035950644E1BA35A6D97BD2CD4F","019cf067-d6c7-7049-a0f9-0a42c7d82dfd","019ceff9-9f67-7034-9722-02cda2445e09","","1501","
                <div class=""stimulus-container"">
                    <img src=""images/schematic_sequence/flight_scheme/flight_scheme_3.png"" class=""exp-image"">
                    <div class=""question-area"">
                        <p style=""font-size: 20px; font-weight: bold; margin: 0;"">Is there a person in this image?</p>
                    </div>
                </div>","0","main_experiment_trial","3","flight_scheme","schematic_sequence","","","","",""
"","","","","","html-keyboard-response","107","392087","0.0-107.0","89975035950644E1BA35A6D97BD2CD4F","019cf067-d6c7-7049-a0f9-0a42c7d82dfd","019ceff9-9f67-7034-9722-02cda2445e09","","null","
                <div class=""stimulus-container"">
                    <img src=""images/schematic_sequence/flight_scheme/flight_scheme_4.png"" class=""exp-image"">
                    <div class=""question-area""></div> 
                </div>","null","","","","","","","","",""
"","","","","","html-button-response","108","393101","0.0-108.0","89975035950644E1BA35A6D97BD2CD4F","019cf067-d6c7-7049-a0f9-0a42c7d82dfd","019ceff9-9f67-7034-9722-02cda2445e09","","1013","
                <div class=""stimulus-container"">
                    <img src=""images/schematic_sequence/flight_scheme/flight_scheme_4.png"" class=""exp-image"">
                    <div class=""question-area"">
                        <p style=""font-size: 20px; font-weight: bold; margin: 0;"">Is there a person in this image?</p>
                    </div>
                </div>","0","main_experiment_trial","4","flight_scheme","schematic_sequence","","","","",""
"","","","","","html-keyboard-response","109","398115","0.0-109.0","89975035950644E1BA35A6D97BD2CD4F","019cf067-d6c7-7049-a0f9-0a42c7d82dfd","019ceff9-9f67-7034-9722-02cda2445e09","","null","
                <div class=""stimulus-container"">
                    <img src=""images/schematic_sequence/flight_scheme/flight_scheme_5.png"" class=""exp-image"">
                    <div class=""question-area""></div> 
                </div>","null","","","","","","","","",""
"","","","","","html-button-response","110","398851","0.0-110.0","89975035950644E1BA35A6D97BD2CD4F","019cf067-d6c7-7049-a0f9-0a42c7d82dfd","019ceff9-9f67-7034-9722-02cda2445e09","","735","
                <div class=""stimulus-container"">
                    <img src=""images/schematic_sequence/flight_scheme/flight_scheme_5.png"" class=""exp-image"">
                    <div class=""question-area"">
                        <p style=""font-size: 20px; font-weight: bold; margin: 0;"">Is there a person in this image?</p>
                    </div>
                </div>","0","main_experiment_trial","5","flight_scheme","schematic_sequence","","","","",""
"","","","","","html-keyboard-response","111","403866","0.0-111.0","89975035950644E1BA35A6D97BD2CD4F","019cf067-d6c7-7049-a0f9-0a42c7d82dfd","019ceff9-9f67-7034-9722-02cda2445e09","","null","
                <div class=""stimulus-container"">
                    <img src=""images/schematic_sequence/flight_scheme/flight_scheme_6.png"" class=""exp-image"">
                    <div class=""question-area""></div> 
                </div>","null","","","","","","","","",""
"","","","","","html-button-response","112","405034","0.0-112.0","89975035950644E1BA35A6D97BD2CD4F","019cf067-d6c7-7049-a0f9-0a42c7d82dfd","019ceff9-9f67-7034-9722-02cda2445e09","","1167","
                <div class=""stimulus-container"">
                    <img src=""images/schematic_sequence/flight_scheme/flight_scheme_6.png"" class=""exp-image"">
                    <div class=""question-area"">
                        <p style=""font-size: 20px; font-weight: bold; margin: 0;"">Is there a person in this image?</p>
                    </div>
                </div>","1","main_experiment_trial","6","flight_scheme","schematic_sequence","","","","",""
"","","","","","html-keyboard-response","113","410037","0.0-113.0","89975035950644E1BA35A6D97BD2CD4F","019cf067-d6c7-7049-a0f9-0a42c7d82dfd","019ceff9-9f67-7034-9722-02cda2445e09","","null","
                <div class=""stimulus-container"">
                    <img src=""images/schematic_sequence/flight_scheme/flight_scheme_7.png"" class=""exp-image"">
                    <div class=""question-area""></div> 
                </div>","null","","","","","","","","",""
"","","","","","html-button-response","114","411349","0.0-114.0","89975035950644E1BA35A6D97BD2CD4F","019cf067-d6c7-7049-a0f9-0a42c7d82dfd","019ceff9-9f67-7034-9722-02cda2445e09","","1311","
                <div class=""stimulus-container"">
                    <img src=""images/schematic_sequence/flight_scheme/flight_scheme_7.png"" class=""exp-image"">
                    <div class=""question-area"">
                        <p style=""font-size: 20px; font-weight: bold; margin: 0;"">Is there a person in this image?</p>
                    </div>
                </div>","1","main_experiment_trial","7","flight_scheme","schematic_sequence","","","","",""
"","","","","","html-keyboard-response","115","416356","0.0-115.0","89975035950644E1BA35A6D97BD2CD4F","019cf067-d6c7-7049-a0f9-0a42c7d82dfd","019ceff9-9f67-7034-9722-02cda2445e09","","null","
                <div class=""stimulus-container"">
                    <img src=""images/schematic_sequence/flight_scheme/flight_scheme_8.png"" class=""exp-image"">
                    <div class=""question-area""></div> 
                </div>","null","","","","","","","","",""
"","","","","","html-button-response","116","416950","0.0-116.0","89975035950644E1BA35A6D97BD2CD4F","019cf067-d6c7-7049-a0f9-0a42c7d82dfd","019ceff9-9f67-7034-9722-02cda2445e09","","593","
                <div class=""stimulus-container"">
                    <img src=""images/schematic_sequence/flight_scheme/flight_scheme_8.png"" class=""exp-image"">
                    <div class=""question-area"">
                        <p style=""font-size: 20px; font-weight: bold; margin: 0;"">Is there a person in this image?</p>
                    </div>
                </div>","1","main_experiment_trial","8","flight_scheme","schematic_sequence","","","","",""
"","","","","","html-keyboard-response","117","421965","0.0-117.0","89975035950644E1BA35A6D97BD2CD4F","019cf067-d6c7-7049-a0f9-0a42c7d82dfd","019ceff9-9f67-7034-9722-02cda2445e09","","null","
                <div class=""stimulus-container"">
                    <img src=""images/schematic_sequence/flight_scheme/flight_scheme_9.png"" class=""exp-image"">
                    <div class=""question-area""></div> 
                </div>","null","","","","","","","","",""
"","","","","","html-button-response","118","422949","0.0-118.0","89975035950644E1BA35A6D97BD2CD4F","019cf067-d6c7-7049-a0f9-0a42c7d82dfd","019ceff9-9f67-7034-9722-02cda2445e09","","984","
                <div class=""stimulus-container"">
                    <img src=""images/schematic_sequence/flight_scheme/flight_scheme_9.png"" class=""exp-image"">
                    <div class=""question-area"">
                        <p style=""font-size: 20px; font-weight: bold; margin: 0;"">Is there a person in this image?</p>
                    </div>
                </div>","0","main_experiment_trial","9","flight_scheme","schematic_sequence","","","","",""
"","","","","","html-keyboard-response","119","427964","0.0-119.0","89975035950644E1BA35A6D97BD2CD4F","019cf067-d6c7-7049-a0f9-0a42c7d82dfd","019ceff9-9f67-7034-9722-02cda2445e09","","null","
                <div class=""stimulus-container"">
                    <img src=""images/schematic_sequence/flight_scheme/flight_scheme_ten.png"" class=""exp-image"">
                    <div class=""question-area""></div> 
                </div>","null","","","","","","","","",""
"","","","","","html-button-response","120","430166","0.0-120.0","89975035950644E1BA35A6D97BD2CD4F","019cf067-d6c7-7049-a0f9-0a42c7d82dfd","019ceff9-9f67-7034-9722-02cda2445e09","","2201","
                <div class=""stimulus-container"">
                    <img src=""images/schematic_sequence/flight_scheme/flight_scheme_ten.png"" class=""exp-image"">
                    <div class=""question-area"">
                        <p style=""font-size: 20px; font-weight: bold; margin: 0;"">Is there a person in this image?</p>
                    </div>
                </div>","0","main_experiment_trial","ten","flight_scheme","schematic_sequence","","","","",""
"","","","","","html-keyboard-response","121","431180","0.0-121.0","89975035950644E1BA35A6D97BD2CD4F","019cf067-d6c7-7049-a0f9-0a42c7d82dfd","019ceff9-9f67-7034-9722-02cda2445e09","","null","<div style=""background-color: white; width: 100vw; height: 100vh;""></div>","null","","","","","","","","",""
"","","","","","html-keyboard-response","122","436197","0.0-122.0","89975035950644E1BA35A6D97BD2CD4F","019cf067-d6c7-7049-a0f9-0a42c7d82dfd","019ceff9-9f67-7034-9722-02cda2445e09","","null","
                <div class=""stimulus-container"">
                    <img src=""images/causal_sequence/museum_causal/museum_causal_1.png"" class=""exp-image"">
                    <div class=""question-area""></div> 
                </div>","null","","","","","","","","",""
"","","","","","html-button-response","123","439204","0.0-123.0","89975035950644E1BA35A6D97BD2CD4F","019cf067-d6c7-7049-a0f9-0a42c7d82dfd","019ceff9-9f67-7034-9722-02cda2445e09","","null","
                <div class=""stimulus-container"">
                    <img src=""images/causal_sequence/museum_causal/museum_causal_1.png"" class=""exp-image"">
                    <div class=""question-area"">
                        <p style=""font-size: 20px; font-weight: bold; margin: 0;"">Is there a person in this image?</p>
                    </div>
                </div>","null","main_experiment_trial","1","museum_causal","causal_sequence","","","","",""
"","","","","","html-keyboard-response","124","444213","0.0-124.0","89975035950644E1BA35A6D97BD2CD4F","019cf067-d6c7-7049-a0f9-0a42c7d82dfd","019ceff9-9f67-7034-9722-02cda2445e09","","null","
                <div class=""stimulus-container"">
                    <img src=""images/causal_sequence/museum_causal/museum_causal_2.png"" class=""exp-image"">
                    <div class=""question-area""></div> 
                </div>","null","","","","","","","","",""
"","","","","","html-button-response","125","445848","0.0-125.0","89975035950644E1BA35A6D97BD2CD4F","019cf067-d6c7-7049-a0f9-0a42c7d82dfd","019ceff9-9f67-7034-9722-02cda2445e09","","1634","
                <div class=""stimulus-container"">
                    <img src=""images/causal_sequence/museum_causal/museum_causal_2.png"" class=""exp-image"">
                    <div class=""question-area"">
                        <p style=""font-size: 20px; font-weight: bold; margin: 0;"">Is there a person in this image?</p>
                    </div>
                </div>","1","main_experiment_trial","2","museum_causal","causal_sequence","","","","",""
"","","","","","html-keyboard-response","126","450851","0.0-126.0","89975035950644E1BA35A6D97BD2CD4F","019cf067-d6c7-7049-a0f9-0a42c7d82dfd","019ceff9-9f67-7034-9722-02cda2445e09","","null","
                <div class=""stimulus-container"">
                    <img src=""images/causal_sequence/museum_causal/museum_causal_3.png"" class=""exp-image"">
                    <div class=""question-area""></div> 
                </div>","null","","","","","","","","",""
"","","","","","html-button-response","127","451531","0.0-127.0","89975035950644E1BA35A6D97BD2CD4F","019cf067-d6c7-7049-a0f9-0a42c7d82dfd","019ceff9-9f67-7034-9722-02cda2445e09","","680","
                <div class=""stimulus-container"">
                    <img src=""images/causal_sequence/museum_causal/museum_causal_3.png"" class=""exp-image"">
                    <div class=""question-area"">
                        <p style=""font-size: 20px; font-weight: bold; margin: 0;"">Is there a person in this image?</p>
                    </div>
                </div>","0","main_experiment_trial","3","museum_causal","causal_sequence","","","","",""
"","","","","","html-keyboard-response","128","456542","0.0-128.0","89975035950644E1BA35A6D97BD2CD4F","019cf067-d6c7-7049-a0f9-0a42c7d82dfd","019ceff9-9f67-7034-9722-02cda2445e09","","null","
                <div class=""stimulus-container"">
                    <img src=""images/causal_sequence/museum_causal/museum_causal_4.png"" class=""exp-image"">
                    <div class=""question-area""></div> 
                </div>","null","","","","","","","","",""
"","","","","","html-button-response","129","457416","0.0-129.0","89975035950644E1BA35A6D97BD2CD4F","019cf067-d6c7-7049-a0f9-0a42c7d82dfd","019ceff9-9f67-7034-9722-02cda2445e09","","873","
                <div class=""stimulus-container"">
                    <img src=""images/causal_sequence/museum_causal/museum_causal_4.png"" class=""exp-image"">
                    <div class=""question-area"">
                        <p style=""font-size: 20px; font-weight: bold; margin: 0;"">Is there a person in this image?</p>
                    </div>
                </div>","1","main_experiment_trial","4","museum_causal","causal_sequence","","","","",""
"","","","","","html-keyboard-response","130","462420","0.0-130.0","89975035950644E1BA35A6D97BD2CD4F","019cf067-d6c7-7049-a0f9-0a42c7d82dfd","019ceff9-9f67-7034-9722-02cda2445e09","","null","
                <div class=""stimulus-container"">
                    <img src=""images/causal_sequence/museum_causal/museum_causal_5.png"" class=""exp-image"">
                    <div class=""question-area""></div> 
                </div>","null","","","","","","","","",""
"","","","","","html-button-response","131","463282","0.0-131.0","89975035950644E1BA35A6D97BD2CD4F","019cf067-d6c7-7049-a0f9-0a42c7d82dfd","019ceff9-9f67-7034-9722-02cda2445e09","","861","
                <div class=""stimulus-container"">
                    <img src=""images/causal_sequence/museum_causal/museum_causal_5.png"" class=""exp-image"">
                    <div class=""question-area"">
                        <p style=""font-size: 20px; font-weight: bold; margin: 0;"">Is there a person in this image?</p>
                    </div>
                </div>","0","main_experiment_trial","5","museum_causal","causal_sequence","","","","",""
"","","","","","html-keyboard-response","132","468285","0.0-132.0","89975035950644E1BA35A6D97BD2CD4F","019cf067-d6c7-7049-a0f9-0a42c7d82dfd","019ceff9-9f67-7034-9722-02cda2445e09","","null","
                <div class=""stimulus-container"">
                    <img src=""images/causal_sequence/museum_causal/museum_causal_6.png"" class=""exp-image"">
                    <div class=""question-area""></div> 
                </div>","null","","","","","","","","",""
"","","","","","html-button-response","133","469400","0.0-133.0","89975035950644E1BA35A6D97BD2CD4F","019cf067-d6c7-7049-a0f9-0a42c7d82dfd","019ceff9-9f67-7034-9722-02cda2445e09","","1114","
                <div class=""stimulus-container"">
                    <img src=""images/causal_sequence/museum_causal/museum_causal_6.png"" class=""exp-image"">
                    <div class=""question-area"">
                        <p style=""font-size: 20px; font-weight: bold; margin: 0;"">Is there a person in this image?</p>
                    </div>
                </div>","0","main_experiment_trial","6","museum_causal","causal_sequence","","","","",""
"","","","","","html-keyboard-response","134","474404","0.0-134.0","89975035950644E1BA35A6D97BD2CD4F","019cf067-d6c7-7049-a0f9-0a42c7d82dfd","019ceff9-9f67-7034-9722-02cda2445e09","","null","
                <div class=""stimulus-container"">
                    <img src=""images/causal_sequence/museum_causal/museum_causal_7.png"" class=""exp-image"">
                    <div class=""question-area""></div> 
                </div>","null","","","","","","","","",""
"","","","","","html-button-response","135","476029","0.0-135.0","89975035950644E1BA35A6D97BD2CD4F","019cf067-d6c7-7049-a0f9-0a42c7d82dfd","019ceff9-9f67-7034-9722-02cda2445e09","","1624","
                <div class=""stimulus-container"">
                    <img src=""images/causal_sequence/museum_causal/museum_causal_7.png"" class=""exp-image"">
                    <div class=""question-area"">
                        <p style=""font-size: 20px; font-weight: bold; margin: 0;"">Is there a person in this image?</p>
                    </div>
                </div>","1","main_experiment_trial","7","museum_causal","causal_sequence","","","","",""
"","","","","","html-keyboard-response","136","481038","0.0-136.0","89975035950644E1BA35A6D97BD2CD4F","019cf067-d6c7-7049-a0f9-0a42c7d82dfd","019ceff9-9f67-7034-9722-02cda2445e09","","null","
                <div class=""stimulus-container"">
                    <img src=""images/causal_sequence/museum_causal/museum_causal_8.png"" class=""exp-image"">
                    <div class=""question-area""></div> 
                </div>","null","","","","","","","","",""
"","","","","","html-button-response","137","482346","0.0-137.0","89975035950644E1BA35A6D97BD2CD4F","019cf067-d6c7-7049-a0f9-0a42c7d82dfd","019ceff9-9f67-7034-9722-02cda2445e09","","1308","
                <div class=""stimulus-container"">
                    <img src=""images/causal_sequence/museum_causal/museum_causal_8.png"" class=""exp-image"">
                    <div class=""question-area"">
                        <p style=""font-size: 20px; font-weight: bold; margin: 0;"">Is there a person in this image?</p>
                    </div>
                </div>","0","main_experiment_trial","8","museum_causal","causal_sequence","","","","",""
"","","","","","html-keyboard-response","138","487359","0.0-138.0","89975035950644E1BA35A6D97BD2CD4F","019cf067-d6c7-7049-a0f9-0a42c7d82dfd","019ceff9-9f67-7034-9722-02cda2445e09","","null","
                <div class=""stimulus-container"">
                    <img src=""images/causal_sequence/museum_causal/museum_causal_9.png"" class=""exp-image"">
                    <div class=""question-area""></div> 
                </div>","null","","","","","","","","",""
"","","","","","html-button-response","139","488179","0.0-139.0","89975035950644E1BA35A6D97BD2CD4F","019cf067-d6c7-7049-a0f9-0a42c7d82dfd","019ceff9-9f67-7034-9722-02cda2445e09","","820","
                <div class=""stimulus-container"">
                    <img src=""images/causal_sequence/museum_causal/museum_causal_9.png"" class=""exp-image"">
                    <div class=""question-area"">
                        <p style=""font-size: 20px; font-weight: bold; margin: 0;"">Is there a person in this image?</p>
                    </div>
                </div>","1","main_experiment_trial","9","museum_causal","causal_sequence","","","","",""
"","","","","","html-keyboard-response","140","493185","0.0-140.0","89975035950644E1BA35A6D97BD2CD4F","019cf067-d6c7-7049-a0f9-0a42c7d82dfd","019ceff9-9f67-7034-9722-02cda2445e09","","null","
                <div class=""stimulus-container"">
                    <img src=""images/causal_sequence/museum_causal/museum_causal_ten.png"" class=""exp-image"">
                    <div class=""question-area""></div> 
                </div>","null","","","","","","","","",""
"","","","","","html-button-response","141","493846","0.0-141.0","89975035950644E1BA35A6D97BD2CD4F","019cf067-d6c7-7049-a0f9-0a42c7d82dfd","019ceff9-9f67-7034-9722-02cda2445e09","","660","
                <div class=""stimulus-container"">
                    <img src=""images/causal_sequence/museum_causal/museum_causal_ten.png"" class=""exp-image"">
                    <div class=""question-area"">
                        <p style=""font-size: 20px; font-weight: bold; margin: 0;"">Is there a person in this image?</p>
                    </div>
                </div>","0","main_experiment_trial","ten","museum_causal","causal_sequence","","","","",""
"","","","","","html-keyboard-response","142","494848","0.0-142.0","89975035950644E1BA35A6D97BD2CD4F","019cf067-d6c7-7049-a0f9-0a42c7d82dfd","019ceff9-9f67-7034-9722-02cda2445e09","","null","<div style=""background-color: white; width: 100vw; height: 100vh;""></div>","null","","","","","","","","",""
"","","","","","html-keyboard-response","143","499860","0.0-143.0","89975035950644E1BA35A6D97BD2CD4F","019cf067-d6c7-7049-a0f9-0a42c7d82dfd","019ceff9-9f67-7034-9722-02cda2445e09","","null","
                <div class=""stimulus-container"">
                    <img src=""images/causal_sequence/coin_causal/coin_causal_1.png"" class=""exp-image"">
                    <div class=""question-area""></div> 
                </div>","null","","","","","","","","",""
"","","","","","html-button-response","144","501562","0.0-144.0","89975035950644E1BA35A6D97BD2CD4F","019cf067-d6c7-7049-a0f9-0a42c7d82dfd","019ceff9-9f67-7034-9722-02cda2445e09","","1701","
                <div class=""stimulus-container"">
                    <img src=""images/causal_sequence/coin_causal/coin_causal_1.png"" class=""exp-image"">
                    <div class=""question-area"">
                        <p style=""font-size: 20px; font-weight: bold; margin: 0;"">Is there a person in this image?</p>
                    </div>
                </div>","0","main_experiment_trial","1","coin_causal","causal_sequence","","","","",""
"","","","","","html-keyboard-response","145","506572","0.0-145.0","89975035950644E1BA35A6D97BD2CD4F","019cf067-d6c7-7049-a0f9-0a42c7d82dfd","019ceff9-9f67-7034-9722-02cda2445e09","","null","
                <div class=""stimulus-container"">
                    <img src=""images/causal_sequence/coin_causal/coin_causal_2.png"" class=""exp-image"">
                    <div class=""question-area""></div> 
                </div>","null","","","","","","","","",""
"","","","","","html-button-response","146","507995","0.0-146.0","89975035950644E1BA35A6D97BD2CD4F","019cf067-d6c7-7049-a0f9-0a42c7d82dfd","019ceff9-9f67-7034-9722-02cda2445e09","","1422","
                <div class=""stimulus-container"">
                    <img src=""images/causal_sequence/coin_causal/coin_causal_2.png"" class=""exp-image"">
                    <div class=""question-area"">
                        <p style=""font-size: 20px; font-weight: bold; margin: 0;"">Is there a person in this image?</p>
                    </div>
                </div>","0","main_experiment_trial","2","coin_causal","causal_sequence","","","","",""
"","","","","","html-keyboard-response","147","513001","0.0-147.0","89975035950644E1BA35A6D97BD2CD4F","019cf067-d6c7-7049-a0f9-0a42c7d82dfd","019ceff9-9f67-7034-9722-02cda2445e09","","null","
                <div class=""stimulus-container"">
                    <img src=""images/causal_sequence/coin_causal/coin_causal_3.png"" class=""exp-image"">
                    <div class=""question-area""></div> 
                </div>","null","","","","","","","","",""
"","","","","","html-button-response","148","514378","0.0-148.0","89975035950644E1BA35A6D97BD2CD4F","019cf067-d6c7-7049-a0f9-0a42c7d82dfd","019ceff9-9f67-7034-9722-02cda2445e09","","1376","
                <div class=""stimulus-container"">
                    <img src=""images/causal_sequence/coin_causal/coin_causal_3.png"" class=""exp-image"">
                    <div class=""question-area"">
                        <p style=""font-size: 20px; font-weight: bold; margin: 0;"">Is there a person in this image?</p>
                    </div>
                </div>","0","main_experiment_trial","3","coin_causal","causal_sequence","","","","",""
"","","","","","html-keyboard-response","149","519382","0.0-149.0","89975035950644E1BA35A6D97BD2CD4F","019cf067-d6c7-7049-a0f9-0a42c7d82dfd","019ceff9-9f67-7034-9722-02cda2445e09","","null","
                <div class=""stimulus-container"">
                    <img src=""images/causal_sequence/coin_causal/coin_causal_4.png"" class=""exp-image"">
                    <div class=""question-area""></div> 
                </div>","null","","","","","","","","",""
"","","","","","html-button-response","150","520228","0.0-150.0","89975035950644E1BA35A6D97BD2CD4F","019cf067-d6c7-7049-a0f9-0a42c7d82dfd","019ceff9-9f67-7034-9722-02cda2445e09","","846","
                <div class=""stimulus-container"">
                    <img src=""images/causal_sequence/coin_causal/coin_causal_4.png"" class=""exp-image"">
                    <div class=""question-area"">
                        <p style=""font-size: 20px; font-weight: bold; margin: 0;"">Is there a person in this image?</p>
                    </div>
                </div>","0","main_experiment_trial","4","coin_causal","causal_sequence","","","","",""
"","","","","","html-keyboard-response","151","525242","0.0-151.0","89975035950644E1BA35A6D97BD2CD4F","019cf067-d6c7-7049-a0f9-0a42c7d82dfd","019ceff9-9f67-7034-9722-02cda2445e09","","null","
                <div class=""stimulus-container"">
                    <img src=""images/causal_sequence/coin_causal/coin_causal_5.png"" class=""exp-image"">
                    <div class=""question-area""></div> 
                </div>","null","","","","","","","","",""
"","","","","","html-button-response","152","526761","0.0-152.0","89975035950644E1BA35A6D97BD2CD4F","019cf067-d6c7-7049-a0f9-0a42c7d82dfd","019ceff9-9f67-7034-9722-02cda2445e09","","1519","
                <div class=""stimulus-container"">
                    <img src=""images/causal_sequence/coin_causal/coin_causal_5.png"" class=""exp-image"">
                    <div class=""question-area"">
                        <p style=""font-size: 20px; font-weight: bold; margin: 0;"">Is there a person in this image?</p>
                    </div>
                </div>","0","main_experiment_trial","5","coin_causal","causal_sequence","","","","",""
"","","","","","html-keyboard-response","153","531775","0.0-153.0","89975035950644E1BA35A6D97BD2CD4F","019cf067-d6c7-7049-a0f9-0a42c7d82dfd","019ceff9-9f67-7034-9722-02cda2445e09","","null","
                <div class=""stimulus-container"">
                    <img src=""images/causal_sequence/coin_causal/coin_causal_6.png"" class=""exp-image"">
                    <div class=""question-area""></div> 
                </div>","null","","","","","","","","",""
"","","","","","html-button-response","154","532961","0.0-154.0","89975035950644E1BA35A6D97BD2CD4F","019cf067-d6c7-7049-a0f9-0a42c7d82dfd","019ceff9-9f67-7034-9722-02cda2445e09","","1186","
                <div class=""stimulus-container"">
                    <img src=""images/causal_sequence/coin_causal/coin_causal_6.png"" class=""exp-image"">
                    <div class=""question-area"">
                        <p style=""font-size: 20px; font-weight: bold; margin: 0;"">Is there a person in this image?</p>
                    </div>
                </div>","0","main_experiment_trial","6","coin_causal","causal_sequence","","","","",""
"","","","","","html-keyboard-response","155","537972","0.0-155.0","89975035950644E1BA35A6D97BD2CD4F","019cf067-d6c7-7049-a0f9-0a42c7d82dfd","019ceff9-9f67-7034-9722-02cda2445e09","","null","
                <div class=""stimulus-container"">
                    <img src=""images/causal_sequence/coin_causal/coin_causal_7.png"" class=""exp-image"">
                    <div class=""question-area""></div> 
                </div>","null","","","","","","","","",""
"","","","","","html-button-response","156","539811","0.0-156.0","89975035950644E1BA35A6D97BD2CD4F","019cf067-d6c7-7049-a0f9-0a42c7d82dfd","019ceff9-9f67-7034-9722-02cda2445e09","","1838","
                <div class=""stimulus-container"">
                    <img src=""images/causal_sequence/coin_causal/coin_causal_7.png"" class=""exp-image"">
                    <div class=""question-area"">
                        <p style=""font-size: 20px; font-weight: bold; margin: 0;"">Is there a person in this image?</p>
                    </div>
                </div>","1","main_experiment_trial","7","coin_causal","causal_sequence","","","","",""
"","","","","","html-keyboard-response","157","544812","0.0-157.0","89975035950644E1BA35A6D97BD2CD4F","019cf067-d6c7-7049-a0f9-0a42c7d82dfd","019ceff9-9f67-7034-9722-02cda2445e09","","null","
                <div class=""stimulus-container"">
                    <img src=""images/causal_sequence/coin_causal/coin_causal_8.png"" class=""exp-image"">
                    <div class=""question-area""></div> 
                </div>","null","","","","","","","","",""
"","","","","","html-button-response","158","547143","0.0-158.0","89975035950644E1BA35A6D97BD2CD4F","019cf067-d6c7-7049-a0f9-0a42c7d82dfd","019ceff9-9f67-7034-9722-02cda2445e09","","2331","
                <div class=""stimulus-container"">
                    <img src=""images/causal_sequence/coin_causal/coin_causal_8.png"" class=""exp-image"">
                    <div class=""question-area"">
                        <p style=""font-size: 20px; font-weight: bold; margin: 0;"">Is there a person in this image?</p>
                    </div>
                </div>","0","main_experiment_trial","8","coin_causal","causal_sequence","","","","",""
"","","","","","html-keyboard-response","159","552148","0.0-159.0","89975035950644E1BA35A6D97BD2CD4F","019cf067-d6c7-7049-a0f9-0a42c7d82dfd","019ceff9-9f67-7034-9722-02cda2445e09","","null","
                <div class=""stimulus-container"">
                    <img src=""images/causal_sequence/coin_causal/coin_causal_9.png"" class=""exp-image"">
                    <div class=""question-area""></div> 
                </div>","null","","","","","","","","",""
"","","","","","html-button-response","160","554527","0.0-160.0","89975035950644E1BA35A6D97BD2CD4F","019cf067-d6c7-7049-a0f9-0a42c7d82dfd","019ceff9-9f67-7034-9722-02cda2445e09","","2378","
                <div class=""stimulus-container"">
                    <img src=""images/causal_sequence/coin_causal/coin_causal_9.png"" class=""exp-image"">
                    <div class=""question-area"">
                        <p style=""font-size: 20px; font-weight: bold; margin: 0;"">Is there a person in this image?</p>
                    </div>
                </div>","0","main_experiment_trial","9","coin_causal","causal_sequence","","","","",""
"","","","","","html-keyboard-response","161","559528","0.0-161.0","89975035950644E1BA35A6D97BD2CD4F","019cf067-d6c7-7049-a0f9-0a42c7d82dfd","019ceff9-9f67-7034-9722-02cda2445e09","","null","
                <div class=""stimulus-container"">
                    <img src=""images/causal_sequence/coin_causal/coin_causal_ten.png"" class=""exp-image"">
                    <div class=""question-area""></div> 
                </div>","null","","","","","","","","",""
"","","","","","html-button-response","162","560442","0.0-162.0","89975035950644E1BA35A6D97BD2CD4F","019cf067-d6c7-7049-a0f9-0a42c7d82dfd","019ceff9-9f67-7034-9722-02cda2445e09","","913","
                <div class=""stimulus-container"">
                    <img src=""images/causal_sequence/coin_causal/coin_causal_ten.png"" class=""exp-image"">
                    <div class=""question-area"">
                        <p style=""font-size: 20px; font-weight: bold; margin: 0;"">Is there a person in this image?</p>
                    </div>
                </div>","0","main_experiment_trial","ten","coin_causal","causal_sequence","","","","",""
"","","","","","html-keyboard-response","163","561455","0.0-163.0","89975035950644E1BA35A6D97BD2CD4F","019cf067-d6c7-7049-a0f9-0a42c7d82dfd","019ceff9-9f67-7034-9722-02cda2445e09","","null","<div style=""background-color: white; width: 100vw; height: 100vh;""></div>","null","","","","","","","","",""
"","","","","","html-keyboard-response","164","566458","0.0-164.0","89975035950644E1BA35A6D97BD2CD4F","019cf067-d6c7-7049-a0f9-0a42c7d82dfd","019ceff9-9f67-7034-9722-02cda2445e09","","null","
                <div class=""stimulus-container"">
                    <img src=""images/schematic_sequence/interview_scheme/interview_scheme_1.png"" class=""exp-image"">
                    <div class=""question-area""></div> 
                </div>","null","","","","","","","","",""
"","","","","","html-button-response","165","568442","0.0-165.0","89975035950644E1BA35A6D97BD2CD4F","019cf067-d6c7-7049-a0f9-0a42c7d82dfd","019ceff9-9f67-7034-9722-02cda2445e09","","1984","
                <div class=""stimulus-container"">
                    <img src=""images/schematic_sequence/interview_scheme/interview_scheme_1.png"" class=""exp-image"">
                    <div class=""question-area"">
                        <p style=""font-size: 20px; font-weight: bold; margin: 0;"">Is there a person in this image?</p>
                    </div>
                </div>","1","main_experiment_trial","1","interview_scheme","schematic_sequence","","","","",""
"","","","","","html-keyboard-response","166","573448","0.0-166.0","89975035950644E1BA35A6D97BD2CD4F","019cf067-d6c7-7049-a0f9-0a42c7d82dfd","019ceff9-9f67-7034-9722-02cda2445e09","","null","
                <div class=""stimulus-container"">
                    <img src=""images/schematic_sequence/interview_scheme/interview_scheme_2.png"" class=""exp-image"">
                    <div class=""question-area""></div> 
                </div>","null","","","","","","","","",""
"","","","","","html-button-response","167","575025","0.0-167.0","89975035950644E1BA35A6D97BD2CD4F","019cf067-d6c7-7049-a0f9-0a42c7d82dfd","019ceff9-9f67-7034-9722-02cda2445e09","","1576","
                <div class=""stimulus-container"">
                    <img src=""images/schematic_sequence/interview_scheme/interview_scheme_2.png"" class=""exp-image"">
                    <div class=""question-area"">
                        <p style=""font-size: 20px; font-weight: bold; margin: 0;"">Is there a person in this image?</p>
                    </div>
                </div>","0","main_experiment_trial","2","interview_scheme","schematic_sequence","","","","",""
"","","","","","html-keyboard-response","168","580039","0.0-168.0","89975035950644E1BA35A6D97BD2CD4F","019cf067-d6c7-7049-a0f9-0a42c7d82dfd","019ceff9-9f67-7034-9722-02cda2445e09","","null","
                <div class=""stimulus-container"">
                    <img src=""images/schematic_sequence/interview_scheme/interview_scheme_3.png"" class=""exp-image"">
                    <div class=""question-area""></div> 
                </div>","null","","","","","","","","",""
"","","","","","html-button-response","169","582925","0.0-169.0","89975035950644E1BA35A6D97BD2CD4F","019cf067-d6c7-7049-a0f9-0a42c7d82dfd","019ceff9-9f67-7034-9722-02cda2445e09","","2886","
                <div class=""stimulus-container"">
                    <img src=""images/schematic_sequence/interview_scheme/interview_scheme_3.png"" class=""exp-image"">
                    <div class=""question-area"">
                        <p style=""font-size: 20px; font-weight: bold; margin: 0;"">Is there a person in this image?</p>
                    </div>
                </div>","1","main_experiment_trial","3","interview_scheme","schematic_sequence","","","","",""
"","","","","","html-keyboard-response","170","587926","0.0-170.0","89975035950644E1BA35A6D97BD2CD4F","019cf067-d6c7-7049-a0f9-0a42c7d82dfd","019ceff9-9f67-7034-9722-02cda2445e09","","null","
                <div class=""stimulus-container"">
                    <img src=""images/schematic_sequence/interview_scheme/interview_scheme_4.png"" class=""exp-image"">
                    <div class=""question-area""></div> 
                </div>","null","","","","","","","","",""
"","","","","","html-button-response","171","590675","0.0-171.0","89975035950644E1BA35A6D97BD2CD4F","019cf067-d6c7-7049-a0f9-0a42c7d82dfd","019ceff9-9f67-7034-9722-02cda2445e09","","2748","
                <div class=""stimulus-container"">
                    <img src=""images/schematic_sequence/interview_scheme/interview_scheme_4.png"" class=""exp-image"">
                    <div class=""question-area"">
                        <p style=""font-size: 20px; font-weight: bold; margin: 0;"">Is there a person in this image?</p>
                    </div>
                </div>","1","main_experiment_trial","4","interview_scheme","schematic_sequence","","","","",""
"","","","","","html-keyboard-response","172","595689","0.0-172.0","89975035950644E1BA35A6D97BD2CD4F","019cf067-d6c7-7049-a0f9-0a42c7d82dfd","019ceff9-9f67-7034-9722-02cda2445e09","","null","
                <div class=""stimulus-container"">
                    <img src=""images/schematic_sequence/interview_scheme/interview_scheme_5.png"" class=""exp-image"">
                    <div class=""question-area""></div> 
                </div>","null","","","","","","","","",""
"","","","","","html-button-response","173","598702","0.0-173.0","89975035950644E1BA35A6D97BD2CD4F","019cf067-d6c7-7049-a0f9-0a42c7d82dfd","019ceff9-9f67-7034-9722-02cda2445e09","","null","
                <div class=""stimulus-container"">
                    <img src=""images/schematic_sequence/interview_scheme/interview_scheme_5.png"" class=""exp-image"">
                    <div class=""question-area"">
                        <p style=""font-size: 20px; font-weight: bold; margin: 0;"">Is there a person in this image?</p>
                    </div>
                </div>","null","main_experiment_trial","5","interview_scheme","schematic_sequence","","","","",""
"","","","","","html-keyboard-response","174","603718","0.0-174.0","89975035950644E1BA35A6D97BD2CD4F","019cf067-d6c7-7049-a0f9-0a42c7d82dfd","019ceff9-9f67-7034-9722-02cda2445e09","","null","
                <div class=""stimulus-container"">
                    <img src=""images/schematic_sequence/interview_scheme/interview_scheme_6.png"" class=""exp-image"">
                    <div class=""question-area""></div> 
                </div>","null","","","","","","","","",""
"","","","","","html-button-response","175","606722","0.0-175.0","89975035950644E1BA35A6D97BD2CD4F","019cf067-d6c7-7049-a0f9-0a42c7d82dfd","019ceff9-9f67-7034-9722-02cda2445e09","","null","
                <div class=""stimulus-container"">
                    <img src=""images/schematic_sequence/interview_scheme/interview_scheme_6.png"" class=""exp-image"">
                    <div class=""question-area"">
                        <p style=""font-size: 20px; font-weight: bold; margin: 0;"">Is there a person in this image?</p>
                    </div>
                </div>","null","main_experiment_trial","6","interview_scheme","schematic_sequence","","","","",""
"","","","","","html-keyboard-response","176","611737","0.0-176.0","89975035950644E1BA35A6D97BD2CD4F","019cf067-d6c7-7049-a0f9-0a42c7d82dfd","019ceff9-9f67-7034-9722-02cda2445e09","","null","
                <div class=""stimulus-container"">
                    <img src=""images/schematic_sequence/interview_scheme/interview_scheme_7.png"" class=""exp-image"">
                    <div class=""question-area""></div> 
                </div>","null","","","","","","","","",""
"","","","","","html-button-response","177","613991","0.0-177.0","89975035950644E1BA35A6D97BD2CD4F","019cf067-d6c7-7049-a0f9-0a42c7d82dfd","019ceff9-9f67-7034-9722-02cda2445e09","","2254","
                <div class=""stimulus-container"">
                    <img src=""images/schematic_sequence/interview_scheme/interview_scheme_7.png"" class=""exp-image"">
                    <div class=""question-area"">
                        <p style=""font-size: 20px; font-weight: bold; margin: 0;"">Is there a person in this image?</p>
                    </div>
                </div>","0","main_experiment_trial","7","interview_scheme","schematic_sequence","","","","",""
"","","","","","html-keyboard-response","178","619004","0.0-178.0","89975035950644E1BA35A6D97BD2CD4F","019cf067-d6c7-7049-a0f9-0a42c7d82dfd","019ceff9-9f67-7034-9722-02cda2445e09","","null","
                <div class=""stimulus-container"">
                    <img src=""images/schematic_sequence/interview_scheme/interview_scheme_8.png"" class=""exp-image"">
                    <div class=""question-area""></div> 
                </div>","null","","","","","","","","",""
"","","","","","html-button-response","179","620508","0.0-179.0","89975035950644E1BA35A6D97BD2CD4F","019cf067-d6c7-7049-a0f9-0a42c7d82dfd","019ceff9-9f67-7034-9722-02cda2445e09","","1503","
                <div class=""stimulus-container"">
                    <img src=""images/schematic_sequence/interview_scheme/interview_scheme_8.png"" class=""exp-image"">
                    <div class=""question-area"">
                        <p style=""font-size: 20px; font-weight: bold; margin: 0;"">Is there a person in this image?</p>
                    </div>
                </div>","0","main_experiment_trial","8","interview_scheme","schematic_sequence","","","","",""
"","","","","","html-keyboard-response","180","625515","0.0-180.0","89975035950644E1BA35A6D97BD2CD4F","019cf067-d6c7-7049-a0f9-0a42c7d82dfd","019ceff9-9f67-7034-9722-02cda2445e09","","null","
                <div class=""stimulus-container"">
                    <img src=""images/schematic_sequence/interview_scheme/interview_scheme_9.png"" class=""exp-image"">
                    <div class=""question-area""></div> 
                </div>","null","","","","","","","","",""
"","","","","","html-button-response","181","627556","0.0-181.0","89975035950644E1BA35A6D97BD2CD4F","019cf067-d6c7-7049-a0f9-0a42c7d82dfd","019ceff9-9f67-7034-9722-02cda2445e09","","2040","
                <div class=""stimulus-container"">
                    <img src=""images/schematic_sequence/interview_scheme/interview_scheme_9.png"" class=""exp-image"">
                    <div class=""question-area"">
                        <p style=""font-size: 20px; font-weight: bold; margin: 0;"">Is there a person in this image?</p>
                    </div>
                </div>","0","main_experiment_trial","9","interview_scheme","schematic_sequence","","","","",""
"","","","","","html-keyboard-response","182","632567","0.0-182.0","89975035950644E1BA35A6D97BD2CD4F","019cf067-d6c7-7049-a0f9-0a42c7d82dfd","019ceff9-9f67-7034-9722-02cda2445e09","","null","
                <div class=""stimulus-container"">
                    <img src=""images/schematic_sequence/interview_scheme/interview_scheme_ten.png"" class=""exp-image"">
                    <div class=""question-area""></div> 
                </div>","null","","","","","","","","",""
"","","","","","html-button-response","183","633940","0.0-183.0","89975035950644E1BA35A6D97BD2CD4F","019cf067-d6c7-7049-a0f9-0a42c7d82dfd","019ceff9-9f67-7034-9722-02cda2445e09","","1373","
