"success","timeout","failed_images","failed_audio","failed_video","trial_type","trial_index","time_elapsed","internal_node_id","subject_id","study_id","session_id","view_history","rt","stimulus","response","task","image_index","folder","sequence_type","valuable_image_index","reward_type","chosen_image_index","target_X","correct_choice"
"true","false","[]","[]","[]","preload","0","8059","0.0-0.0","FDB2CAA820C743F3A124EF8DF60E9276","019cf4b4-876b-797d-83ca-27fc6f71ba06","019cf498-06e0-702e-b525-9cde1ad77653","","","","","","","","","","","","",""
"","","","","","instructions","1","17430","0.0-1.0","FDB2CAA820C743F3A124EF8DF60E9276","019cf4b4-876b-797d-83ca-27fc6f71ba06","019cf498-06e0-702e-b525-9cde1ad77653","[{""page_index"":0,""viewing_time"":9367}]","9368","","","","","","","","","","",""
"","","","","","instructions","2","19494","0.0-2.0","FDB2CAA820C743F3A124EF8DF60E9276","019cf4b4-876b-797d-83ca-27fc6f71ba06","019cf498-06e0-702e-b525-9cde1ad77653","[{""page_index"":0,""viewing_time"":2061}]","2061","","","","","","","","","","",""
"true","","","","","fullscreen","3","21481","0.0-3.0","FDB2CAA820C743F3A124EF8DF60E9276","019cf4b4-876b-797d-83ca-27fc6f71ba06","019cf498-06e0-702e-b525-9cde1ad77653","","980","","","","","","","","","","",""
"","","","","","instructions","4","23577","0.0-4.0","FDB2CAA820C743F3A124EF8DF60E9276","019cf4b4-876b-797d-83ca-27fc6f71ba06","019cf498-06e0-702e-b525-9cde1ad77653","[{""page_index"":0,""viewing_time"":2095}]","2095","","","","","","","","","","",""
"","","","","","instructions","5","28473","0.0-5.0","FDB2CAA820C743F3A124EF8DF60E9276","019cf4b4-876b-797d-83ca-27fc6f71ba06","019cf498-06e0-702e-b525-9cde1ad77653","[{""page_index"":0,""viewing_time"":4895}]","4895","","","","","","","","","","",""
"","","","","","html-keyboard-response","6","32476","0.0-6.0","FDB2CAA820C743F3A124EF8DF60E9276","019cf4b4-876b-797d-83ca-27fc6f71ba06","019cf498-06e0-702e-b525-9cde1ad77653","","null","
                <div class=""stimulus-container"">
                    <img src=""images/instructions/movie_1.png"" class=""exp-image"">
                    <div class=""question-area""></div> 
                </div>","null","","","","","","","","",""
"","","","","","html-button-response","7","34579","0.0-7.0","FDB2CAA820C743F3A124EF8DF60E9276","019cf4b4-876b-797d-83ca-27fc6f71ba06","019cf498-06e0-702e-b525-9cde1ad77653","","2099","
                <div class=""stimulus-container"">
                    <img src=""images/instructions/movie_1.png"" class=""exp-image"">
                    <div class=""question-area"">
                        <p style=""font-size: 20px; font-weight: bold; margin: 0;"">Was there a person in this image?</p>
                    </div>
                </div>","0","example_question","1","","","","","","",""
"","","","","","html-keyboard-response","8","38581","0.0-8.0","FDB2CAA820C743F3A124EF8DF60E9276","019cf4b4-876b-797d-83ca-27fc6f71ba06","019cf498-06e0-702e-b525-9cde1ad77653","","null","
                <div class=""stimulus-container"">
                    <img src=""images/instructions/movie_2.png"" class=""exp-image"">
                    <div class=""question-area""></div> 
                </div>","null","","","","","","","","",""
"","","","","","html-button-response","9","39233","0.0-9.0","FDB2CAA820C743F3A124EF8DF60E9276","019cf4b4-876b-797d-83ca-27fc6f71ba06","019cf498-06e0-702e-b525-9cde1ad77653","","649","
                <div class=""stimulus-container"">
                    <img src=""images/instructions/movie_2.png"" class=""exp-image"">
                    <div class=""question-area"">
                        <p style=""font-size: 20px; font-weight: bold; margin: 0;"">Was there a person in this image?</p>
                    </div>
                </div>","0","example_question","2","","","","","","",""
"","","","","","html-keyboard-response","10","43237","0.0-10.0","FDB2CAA820C743F3A124EF8DF60E9276","019cf4b4-876b-797d-83ca-27fc6f71ba06","019cf498-06e0-702e-b525-9cde1ad77653","","null","
                <div class=""stimulus-container"">
                    <img src=""images/instructions/movie_3.png"" class=""exp-image"">
                    <div class=""question-area""></div> 
                </div>","null","","","","","","","","",""
"","","","","","html-button-response","11","44286","0.0-11.0","FDB2CAA820C743F3A124EF8DF60E9276","019cf4b4-876b-797d-83ca-27fc6f71ba06","019cf498-06e0-702e-b525-9cde1ad77653","","1046","
                <div class=""stimulus-container"">
                    <img src=""images/instructions/movie_3.png"" class=""exp-image"">
                    <div class=""question-area"">
                        <p style=""font-size: 20px; font-weight: bold; margin: 0;"">Was there a person in this image?</p>
                    </div>
                </div>","0","example_question","3","","","","","","",""
"","","","","","html-keyboard-response","12","48288","0.0-12.0","FDB2CAA820C743F3A124EF8DF60E9276","019cf4b4-876b-797d-83ca-27fc6f71ba06","019cf498-06e0-702e-b525-9cde1ad77653","","null","
                <div class=""stimulus-container"">
                    <img src=""images/instructions/movie_4.png"" class=""exp-image"">
                    <div class=""question-area""></div> 
                </div>","null","","","","","","","","",""
"","","","","","html-button-response","13","49246","0.0-13.0","FDB2CAA820C743F3A124EF8DF60E9276","019cf4b4-876b-797d-83ca-27fc6f71ba06","019cf498-06e0-702e-b525-9cde1ad77653","","957","
                <div class=""stimulus-container"">
                    <img src=""images/instructions/movie_4.png"" class=""exp-image"">
                    <div class=""question-area"">
                        <p style=""font-size: 20px; font-weight: bold; margin: 0;"">Was there a person in this image?</p>
                    </div>
                </div>","0","example_question","4","","","","","","",""
"","","","","","instructions","14","50706","0.0-14.0","FDB2CAA820C743F3A124EF8DF60E9276","019cf4b4-876b-797d-83ca-27fc6f71ba06","019cf498-06e0-702e-b525-9cde1ad77653","[{""page_index"":0,""viewing_time"":1458}]","1459","","","","","","","","","","",""
"","","","","","instructions","15","53513","0.0-15.0","FDB2CAA820C743F3A124EF8DF60E9276","019cf4b4-876b-797d-83ca-27fc6f71ba06","019cf498-06e0-702e-b525-9cde1ad77653","[{""page_index"":0,""viewing_time"":2806}]","2806","","","","","","","","","","",""
"","","","","","html-keyboard-response","16","54516","0.0-16.0","FDB2CAA820C743F3A124EF8DF60E9276","019cf4b4-876b-797d-83ca-27fc6f71ba06","019cf498-06e0-702e-b525-9cde1ad77653","","null","<div style=""background-color: white; width: 100vw; height: 100vh;""></div>","null","","","","","","","","",""
"","","","","","html-keyboard-response","17","59519","0.0-17.0","FDB2CAA820C743F3A124EF8DF60E9276","019cf4b4-876b-797d-83ca-27fc6f71ba06","019cf498-06e0-702e-b525-9cde1ad77653","","null","
                <div class=""stimulus-container"">
                    <img src=""images/causal_sequence/saving_a_cat_causal/saving_a_cat_causal_1.png"" class=""exp-image"">
                    <div class=""question-area""></div> 
                </div>","null","","","","","","","","",""
"","","","","","html-button-response","18","60500","0.0-18.0","FDB2CAA820C743F3A124EF8DF60E9276","019cf4b4-876b-797d-83ca-27fc6f71ba06","019cf498-06e0-702e-b525-9cde1ad77653","","978","
                <div class=""stimulus-container"">
                    <img src=""images/causal_sequence/saving_a_cat_causal/saving_a_cat_causal_1.png"" class=""exp-image"">
                    <div class=""question-area"">
                        <p style=""font-size: 20px; font-weight: bold; margin: 0;"">Is there a person in this image?</p>
                    </div>
                </div>","0","main_experiment_trial","1","saving_a_cat_causal","causal_sequence","","","","",""
"","","","","","html-keyboard-response","19","65504","0.0-19.0","FDB2CAA820C743F3A124EF8DF60E9276","019cf4b4-876b-797d-83ca-27fc6f71ba06","019cf498-06e0-702e-b525-9cde1ad77653","","null","
                <div class=""stimulus-container"">
                    <img src=""images/causal_sequence/saving_a_cat_causal/saving_a_cat_causal_2.png"" class=""exp-image"">
                    <div class=""question-area""></div> 
                </div>","null","","","","","","","","",""
"","","","","","html-button-response","20","66465","0.0-20.0","FDB2CAA820C743F3A124EF8DF60E9276","019cf4b4-876b-797d-83ca-27fc6f71ba06","019cf498-06e0-702e-b525-9cde1ad77653","","959","
                <div class=""stimulus-container"">
                    <img src=""images/causal_sequence/saving_a_cat_causal/saving_a_cat_causal_2.png"" class=""exp-image"">
                    <div class=""question-area"">
                        <p style=""font-size: 20px; font-weight: bold; margin: 0;"">Is there a person in this image?</p>
                    </div>
                </div>","1","main_experiment_trial","2","saving_a_cat_causal","causal_sequence","","","","",""
"","","","","","html-keyboard-response","21","71470","0.0-21.0","FDB2CAA820C743F3A124EF8DF60E9276","019cf4b4-876b-797d-83ca-27fc6f71ba06","019cf498-06e0-702e-b525-9cde1ad77653","","null","
                <div class=""stimulus-container"">
                    <img src=""images/causal_sequence/saving_a_cat_causal/saving_a_cat_causal_3.png"" class=""exp-image"">
                    <div class=""question-area""></div> 
                </div>","null","","","","","","","","",""
"","","","","","html-button-response","22","73878","0.0-22.0","FDB2CAA820C743F3A124EF8DF60E9276","019cf4b4-876b-797d-83ca-27fc6f71ba06","019cf498-06e0-702e-b525-9cde1ad77653","","2406","
                <div class=""stimulus-container"">
                    <img src=""images/causal_sequence/saving_a_cat_causal/saving_a_cat_causal_3.png"" class=""exp-image"">
                    <div class=""question-area"">
                        <p style=""font-size: 20px; font-weight: bold; margin: 0;"">Is there a person in this image?</p>
                    </div>
                </div>","1","main_experiment_trial","3","saving_a_cat_causal","causal_sequence","","","","",""
"","","","","","html-keyboard-response","23","78881","0.0-23.0","FDB2CAA820C743F3A124EF8DF60E9276","019cf4b4-876b-797d-83ca-27fc6f71ba06","019cf498-06e0-702e-b525-9cde1ad77653","","null","
                <div class=""stimulus-container"">
                    <img src=""images/causal_sequence/saving_a_cat_causal/saving_a_cat_causal_4.png"" class=""exp-image"">
                    <div class=""question-area""></div> 
                </div>","null","","","","","","","","",""
"","","","","","html-button-response","24","79361","0.0-24.0","FDB2CAA820C743F3A124EF8DF60E9276","019cf4b4-876b-797d-83ca-27fc6f71ba06","019cf498-06e0-702e-b525-9cde1ad77653","","476","
                <div class=""stimulus-container"">
                    <img src=""images/causal_sequence/saving_a_cat_causal/saving_a_cat_causal_4.png"" class=""exp-image"">
                    <div class=""question-area"">
                        <p style=""font-size: 20px; font-weight: bold; margin: 0;"">Is there a person in this image?</p>
                    </div>
                </div>","0","main_experiment_trial","4","saving_a_cat_causal","causal_sequence","","","","",""
"","","","","","html-keyboard-response","25","84366","0.0-25.0","FDB2CAA820C743F3A124EF8DF60E9276","019cf4b4-876b-797d-83ca-27fc6f71ba06","019cf498-06e0-702e-b525-9cde1ad77653","","null","
                <div class=""stimulus-container"">
                    <img src=""images/causal_sequence/saving_a_cat_causal/saving_a_cat_causal_5.png"" class=""exp-image"">
                    <div class=""question-area""></div> 
                </div>","null","","","","","","","","",""
"","","","","","html-button-response","26","87368","0.0-26.0","FDB2CAA820C743F3A124EF8DF60E9276","019cf4b4-876b-797d-83ca-27fc6f71ba06","019cf498-06e0-702e-b525-9cde1ad77653","","null","
                <div class=""stimulus-container"">
                    <img src=""images/causal_sequence/saving_a_cat_causal/saving_a_cat_causal_5.png"" class=""exp-image"">
                    <div class=""question-area"">
                        <p style=""font-size: 20px; font-weight: bold; margin: 0;"">Is there a person in this image?</p>
                    </div>
                </div>","null","main_experiment_trial","5","saving_a_cat_causal","causal_sequence","","","","",""
"","","","","","html-keyboard-response","27","92370","0.0-27.0","FDB2CAA820C743F3A124EF8DF60E9276","019cf4b4-876b-797d-83ca-27fc6f71ba06","019cf498-06e0-702e-b525-9cde1ad77653","","null","
                <div class=""stimulus-container"">
                    <img src=""images/causal_sequence/saving_a_cat_causal/saving_a_cat_causal_6.png"" class=""exp-image"">
                    <div class=""question-area""></div> 
                </div>","null","","","","","","","","",""
"","","","","","html-button-response","28","92847","0.0-28.0","FDB2CAA820C743F3A124EF8DF60E9276","019cf4b4-876b-797d-83ca-27fc6f71ba06","019cf498-06e0-702e-b525-9cde1ad77653","","474","
                <div class=""stimulus-container"">
                    <img src=""images/causal_sequence/saving_a_cat_causal/saving_a_cat_causal_6.png"" class=""exp-image"">
                    <div class=""question-area"">
                        <p style=""font-size: 20px; font-weight: bold; margin: 0;"">Is there a person in this image?</p>
                    </div>
                </div>","0","main_experiment_trial","6","saving_a_cat_causal","causal_sequence","","","","",""
"","","","","","html-keyboard-response","29","97850","0.0-29.0","FDB2CAA820C743F3A124EF8DF60E9276","019cf4b4-876b-797d-83ca-27fc6f71ba06","019cf498-06e0-702e-b525-9cde1ad77653","","null","
                <div class=""stimulus-container"">
                    <img src=""images/causal_sequence/saving_a_cat_causal/saving_a_cat_causal_7.png"" class=""exp-image"">
                    <div class=""question-area""></div> 
                </div>","null","","","","","","","","",""
"","","","","","html-button-response","30","98727","0.0-30.0","FDB2CAA820C743F3A124EF8DF60E9276","019cf4b4-876b-797d-83ca-27fc6f71ba06","019cf498-06e0-702e-b525-9cde1ad77653","","874","
                <div class=""stimulus-container"">
                    <img src=""images/causal_sequence/saving_a_cat_causal/saving_a_cat_causal_7.png"" class=""exp-image"">
                    <div class=""question-area"">
                        <p style=""font-size: 20px; font-weight: bold; margin: 0;"">Is there a person in this image?</p>
                    </div>
                </div>","0","main_experiment_trial","7","saving_a_cat_causal","causal_sequence","","","","",""
"","","","","","html-keyboard-response","31","103731","0.0-31.0","FDB2CAA820C743F3A124EF8DF60E9276","019cf4b4-876b-797d-83ca-27fc6f71ba06","019cf498-06e0-702e-b525-9cde1ad77653","","null","
                <div class=""stimulus-container"">
                    <img src=""images/causal_sequence/saving_a_cat_causal/saving_a_cat_causal_8.png"" class=""exp-image"">
                    <div class=""question-area""></div> 
                </div>","null","","","","","","","","",""
"","","","","","html-button-response","32","104646","0.0-32.0","FDB2CAA820C743F3A124EF8DF60E9276","019cf4b4-876b-797d-83ca-27fc6f71ba06","019cf498-06e0-702e-b525-9cde1ad77653","","912","
                <div class=""stimulus-container"">
                    <img src=""images/causal_sequence/saving_a_cat_causal/saving_a_cat_causal_8.png"" class=""exp-image"">
                    <div class=""question-area"">
                        <p style=""font-size: 20px; font-weight: bold; margin: 0;"">Is there a person in this image?</p>
                    </div>
                </div>","0","main_experiment_trial","8","saving_a_cat_causal","causal_sequence","","","","",""
"","","","","","html-keyboard-response","33","109648","0.0-33.0","FDB2CAA820C743F3A124EF8DF60E9276","019cf4b4-876b-797d-83ca-27fc6f71ba06","019cf498-06e0-702e-b525-9cde1ad77653","","null","
                <div class=""stimulus-container"">
                    <img src=""images/causal_sequence/saving_a_cat_causal/saving_a_cat_causal_9.png"" class=""exp-image"">
                    <div class=""question-area""></div> 
                </div>","null","","","","","","","","",""
"","","","","","html-button-response","34","111477","0.0-34.0","FDB2CAA820C743F3A124EF8DF60E9276","019cf4b4-876b-797d-83ca-27fc6f71ba06","019cf498-06e0-702e-b525-9cde1ad77653","","1827","
                <div class=""stimulus-container"">
                    <img src=""images/causal_sequence/saving_a_cat_causal/saving_a_cat_causal_9.png"" class=""exp-image"">
                    <div class=""question-area"">
                        <p style=""font-size: 20px; font-weight: bold; margin: 0;"">Is there a person in this image?</p>
                    </div>
                </div>","0","main_experiment_trial","9","saving_a_cat_causal","causal_sequence","","","","",""
"","","","","","html-keyboard-response","35","116480","0.0-35.0","FDB2CAA820C743F3A124EF8DF60E9276","019cf4b4-876b-797d-83ca-27fc6f71ba06","019cf498-06e0-702e-b525-9cde1ad77653","","null","
                <div class=""stimulus-container"">
                    <img src=""images/causal_sequence/saving_a_cat_causal/saving_a_cat_causal_ten.png"" class=""exp-image"">
                    <div class=""question-area""></div> 
                </div>","null","","","","","","","","",""
"","","","","","html-button-response","36","118262","0.0-36.0","FDB2CAA820C743F3A124EF8DF60E9276","019cf4b4-876b-797d-83ca-27fc6f71ba06","019cf498-06e0-702e-b525-9cde1ad77653","","1779","
                <div class=""stimulus-container"">
                    <img src=""images/causal_sequence/saving_a_cat_causal/saving_a_cat_causal_ten.png"" class=""exp-image"">
                    <div class=""question-area"">
                        <p style=""font-size: 20px; font-weight: bold; margin: 0;"">Is there a person in this image?</p>
                    </div>
                </div>","0","main_experiment_trial","ten","saving_a_cat_causal","causal_sequence","","","","",""
"","","","","","html-keyboard-response","37","119266","0.0-37.0","FDB2CAA820C743F3A124EF8DF60E9276","019cf4b4-876b-797d-83ca-27fc6f71ba06","019cf498-06e0-702e-b525-9cde1ad77653","","null","<div style=""background-color: white; width: 100vw; height: 100vh;""></div>","null","","","","","","","","",""
"","","","","","html-keyboard-response","38","124268","0.0-38.0","FDB2CAA820C743F3A124EF8DF60E9276","019cf4b4-876b-797d-83ca-27fc6f71ba06","019cf498-06e0-702e-b525-9cde1ad77653","","null","
                <div class=""stimulus-container"">
                    <img src=""images/causal_sequence/dog_causal/dog_causal_1.png"" class=""exp-image"">
                    <div class=""question-area""></div> 
                </div>","null","","","","","","","","",""
"","","","","","html-button-response","39","125164","0.0-39.0","FDB2CAA820C743F3A124EF8DF60E9276","019cf4b4-876b-797d-83ca-27fc6f71ba06","019cf498-06e0-702e-b525-9cde1ad77653","","894","
                <div class=""stimulus-container"">
                    <img src=""images/causal_sequence/dog_causal/dog_causal_1.png"" class=""exp-image"">
                    <div class=""question-area"">
                        <p style=""font-size: 20px; font-weight: bold; margin: 0;"">Is there a person in this image?</p>
                    </div>
                </div>","0","main_experiment_trial","1","dog_causal","causal_sequence","","","","",""
"","","","","","html-keyboard-response","40","130166","0.0-40.0","FDB2CAA820C743F3A124EF8DF60E9276","019cf4b4-876b-797d-83ca-27fc6f71ba06","019cf498-06e0-702e-b525-9cde1ad77653","","null","
                <div class=""stimulus-container"">
                    <img src=""images/causal_sequence/dog_causal/dog_causal_2.png"" class=""exp-image"">
                    <div class=""question-area""></div> 
                </div>","null","","","","","","","","",""
"","","","","","html-button-response","41","130922","0.0-41.0","FDB2CAA820C743F3A124EF8DF60E9276","019cf4b4-876b-797d-83ca-27fc6f71ba06","019cf498-06e0-702e-b525-9cde1ad77653","","753","
                <div class=""stimulus-container"">
                    <img src=""images/causal_sequence/dog_causal/dog_causal_2.png"" class=""exp-image"">
                    <div class=""question-area"">
                        <p style=""font-size: 20px; font-weight: bold; margin: 0;"">Is there a person in this image?</p>
                    </div>
                </div>","0","main_experiment_trial","2","dog_causal","causal_sequence","","","","",""
"","","","","","html-keyboard-response","42","135924","0.0-42.0","FDB2CAA820C743F3A124EF8DF60E9276","019cf4b4-876b-797d-83ca-27fc6f71ba06","019cf498-06e0-702e-b525-9cde1ad77653","","null","
                <div class=""stimulus-container"">
                    <img src=""images/causal_sequence/dog_causal/dog_causal_3.png"" class=""exp-image"">
                    <div class=""question-area""></div> 
                </div>","null","","","","","","","","",""
"","","","","","html-button-response","43","136765","0.0-43.0","FDB2CAA820C743F3A124EF8DF60E9276","019cf4b4-876b-797d-83ca-27fc6f71ba06","019cf498-06e0-702e-b525-9cde1ad77653","","838","
                <div class=""stimulus-container"">
                    <img src=""images/causal_sequence/dog_causal/dog_causal_3.png"" class=""exp-image"">
                    <div class=""question-area"">
                        <p style=""font-size: 20px; font-weight: bold; margin: 0;"">Is there a person in this image?</p>
                    </div>
                </div>","0","main_experiment_trial","3","dog_causal","causal_sequence","","","","",""
"","","","","","html-keyboard-response","44","141768","0.0-44.0","FDB2CAA820C743F3A124EF8DF60E9276","019cf4b4-876b-797d-83ca-27fc6f71ba06","019cf498-06e0-702e-b525-9cde1ad77653","","null","
                <div class=""stimulus-container"">
                    <img src=""images/causal_sequence/dog_causal/dog_causal_4.png"" class=""exp-image"">
                    <div class=""question-area""></div> 
                </div>","null","","","","","","","","",""
"","","","","","html-button-response","45","143132","0.0-45.0","FDB2CAA820C743F3A124EF8DF60E9276","019cf4b4-876b-797d-83ca-27fc6f71ba06","019cf498-06e0-702e-b525-9cde1ad77653","","1362","
                <div class=""stimulus-container"">
                    <img src=""images/causal_sequence/dog_causal/dog_causal_4.png"" class=""exp-image"">
                    <div class=""question-area"">
                        <p style=""font-size: 20px; font-weight: bold; margin: 0;"">Is there a person in this image?</p>
                    </div>
                </div>","0","main_experiment_trial","4","dog_causal","causal_sequence","","","","",""
"","","","","","html-keyboard-response","46","148139","0.0-46.0","FDB2CAA820C743F3A124EF8DF60E9276","019cf4b4-876b-797d-83ca-27fc6f71ba06","019cf498-06e0-702e-b525-9cde1ad77653","","null","
                <div class=""stimulus-container"">
                    <img src=""images/causal_sequence/dog_causal/dog_causal_5.png"" class=""exp-image"">
                    <div class=""question-area""></div> 
                </div>","null","","","","","","","","",""
"","","","","","html-button-response","47","148565","0.0-47.0","FDB2CAA820C743F3A124EF8DF60E9276","019cf4b4-876b-797d-83ca-27fc6f71ba06","019cf498-06e0-702e-b525-9cde1ad77653","","424","
                <div class=""stimulus-container"">
                    <img src=""images/causal_sequence/dog_causal/dog_causal_5.png"" class=""exp-image"">
                    <div class=""question-area"">
                        <p style=""font-size: 20px; font-weight: bold; margin: 0;"">Is there a person in this image?</p>
                    </div>
                </div>","0","main_experiment_trial","5","dog_causal","causal_sequence","","","","",""
"","","","","","html-keyboard-response","48","153568","0.0-48.0","FDB2CAA820C743F3A124EF8DF60E9276","019cf4b4-876b-797d-83ca-27fc6f71ba06","019cf498-06e0-702e-b525-9cde1ad77653","","null","
                <div class=""stimulus-container"">
                    <img src=""images/causal_sequence/dog_causal/dog_causal_6.png"" class=""exp-image"">
                    <div class=""question-area""></div> 
                </div>","null","","","","","","","","",""
"","","","","","html-button-response","49","154719","0.0-49.0","FDB2CAA820C743F3A124EF8DF60E9276","019cf4b4-876b-797d-83ca-27fc6f71ba06","019cf498-06e0-702e-b525-9cde1ad77653","","1147","
                <div class=""stimulus-container"">
                    <img src=""images/causal_sequence/dog_causal/dog_causal_6.png"" class=""exp-image"">
                    <div class=""question-area"">
                        <p style=""font-size: 20px; font-weight: bold; margin: 0;"">Is there a person in this image?</p>
                    </div>
                </div>","0","main_experiment_trial","6","dog_causal","causal_sequence","","","","",""
"","","","","","html-keyboard-response","50","159721","0.0-50.0","FDB2CAA820C743F3A124EF8DF60E9276","019cf4b4-876b-797d-83ca-27fc6f71ba06","019cf498-06e0-702e-b525-9cde1ad77653","","null","
                <div class=""stimulus-container"">
                    <img src=""images/causal_sequence/dog_causal/dog_causal_7.png"" class=""exp-image"">
                    <div class=""question-area""></div> 
                </div>","null","","","","","","","","",""
"","","","","","html-button-response","51","160180","0.0-51.0","FDB2CAA820C743F3A124EF8DF60E9276","019cf4b4-876b-797d-83ca-27fc6f71ba06","019cf498-06e0-702e-b525-9cde1ad77653","","457","
                <div class=""stimulus-container"">
                    <img src=""images/causal_sequence/dog_causal/dog_causal_7.png"" class=""exp-image"">
                    <div class=""question-area"">
                        <p style=""font-size: 20px; font-weight: bold; margin: 0;"">Is there a person in this image?</p>
                    </div>
                </div>","0","main_experiment_trial","7","dog_causal","causal_sequence","","","","",""
"","","","","","html-keyboard-response","52","165188","0.0-52.0","FDB2CAA820C743F3A124EF8DF60E9276","019cf4b4-876b-797d-83ca-27fc6f71ba06","019cf498-06e0-702e-b525-9cde1ad77653","","null","
                <div class=""stimulus-container"">
                    <img src=""images/causal_sequence/dog_causal/dog_causal_8.png"" class=""exp-image"">
                    <div class=""question-area""></div> 
                </div>","null","","","","","","","","",""
"","","","","","html-button-response","53","166057","0.0-53.0","FDB2CAA820C743F3A124EF8DF60E9276","019cf4b4-876b-797d-83ca-27fc6f71ba06","019cf498-06e0-702e-b525-9cde1ad77653","","866","
                <div class=""stimulus-container"">
                    <img src=""images/causal_sequence/dog_causal/dog_causal_8.png"" class=""exp-image"">
                    <div class=""question-area"">
                        <p style=""font-size: 20px; font-weight: bold; margin: 0;"">Is there a person in this image?</p>
                    </div>
                </div>","0","main_experiment_trial","8","dog_causal","causal_sequence","","","","",""
"","","","","","html-keyboard-response","54","171061","0.0-54.0","FDB2CAA820C743F3A124EF8DF60E9276","019cf4b4-876b-797d-83ca-27fc6f71ba06","019cf498-06e0-702e-b525-9cde1ad77653","","null","
                <div class=""stimulus-container"">
                    <img src=""images/causal_sequence/dog_causal/dog_causal_9.png"" class=""exp-image"">
                    <div class=""question-area""></div> 
                </div>","null","","","","","","","","",""
"","","","","","html-button-response","55","173895","0.0-55.0","FDB2CAA820C743F3A124EF8DF60E9276","019cf4b4-876b-797d-83ca-27fc6f71ba06","019cf498-06e0-702e-b525-9cde1ad77653","","2832","
                <div class=""stimulus-container"">
                    <img src=""images/causal_sequence/dog_causal/dog_causal_9.png"" class=""exp-image"">
                    <div class=""question-area"">
                        <p style=""font-size: 20px; font-weight: bold; margin: 0;"">Is there a person in this image?</p>
                    </div>
                </div>","0","main_experiment_trial","9","dog_causal","causal_sequence","","","","",""
"","","","","","html-keyboard-response","56","178899","0.0-56.0","FDB2CAA820C743F3A124EF8DF60E9276","019cf4b4-876b-797d-83ca-27fc6f71ba06","019cf498-06e0-702e-b525-9cde1ad77653","","null","
                <div class=""stimulus-container"">
                    <img src=""images/causal_sequence/dog_causal/dog_causal_ten.png"" class=""exp-image"">
                    <div class=""question-area""></div> 
                </div>","null","","","","","","","","",""
"","","","","","html-button-response","57","181903","0.0-57.0","FDB2CAA820C743F3A124EF8DF60E9276","019cf4b4-876b-797d-83ca-27fc6f71ba06","019cf498-06e0-702e-b525-9cde1ad77653","","null","
                <div class=""stimulus-container"">
                    <img src=""images/causal_sequence/dog_causal/dog_causal_ten.png"" class=""exp-image"">
                    <div class=""question-area"">
                        <p style=""font-size: 20px; font-weight: bold; margin: 0;"">Is there a person in this image?</p>
                    </div>
                </div>","null","main_experiment_trial","ten","dog_causal","causal_sequence","","","","",""
"","","","","","html-keyboard-response","58","182906","0.0-58.0","FDB2CAA820C743F3A124EF8DF60E9276","019cf4b4-876b-797d-83ca-27fc6f71ba06","019cf498-06e0-702e-b525-9cde1ad77653","","null","<div style=""background-color: white; width: 100vw; height: 100vh;""></div>","null","","","","","","","","",""
"","","","","","html-keyboard-response","59","187910","0.0-59.0","FDB2CAA820C743F3A124EF8DF60E9276","019cf4b4-876b-797d-83ca-27fc6f71ba06","019cf498-06e0-702e-b525-9cde1ad77653","","null","
                <div class=""stimulus-container"">
                    <img src=""images/schematic_sequence/interview_scheme/interview_scheme_1.png"" class=""exp-image"">
                    <div class=""question-area""></div> 
                </div>","null","","","","","","","","",""
"","","","","","html-button-response","60","190914","0.0-60.0","FDB2CAA820C743F3A124EF8DF60E9276","019cf4b4-876b-797d-83ca-27fc6f71ba06","019cf498-06e0-702e-b525-9cde1ad77653","","null","
                <div class=""stimulus-container"">
                    <img src=""images/schematic_sequence/interview_scheme/interview_scheme_1.png"" class=""exp-image"">
                    <div class=""question-area"">
                        <p style=""font-size: 20px; font-weight: bold; margin: 0;"">Is there a person in this image?</p>
                    </div>
                </div>","null","main_experiment_trial","1","interview_scheme","schematic_sequence","","","","",""
"","","","","","html-keyboard-response","61","195917","0.0-61.0","FDB2CAA820C743F3A124EF8DF60E9276","019cf4b4-876b-797d-83ca-27fc6f71ba06","019cf498-06e0-702e-b525-9cde1ad77653","","null","
                <div class=""stimulus-container"">
                    <img src=""images/schematic_sequence/interview_scheme/interview_scheme_2.png"" class=""exp-image"">
                    <div class=""question-area""></div> 
                </div>","null","","","","","","","","",""
"","","","","","html-button-response","62","196625","0.0-62.0","FDB2CAA820C743F3A124EF8DF60E9276","019cf4b4-876b-797d-83ca-27fc6f71ba06","019cf498-06e0-702e-b525-9cde1ad77653","","705","
                <div class=""stimulus-container"">
                    <img src=""images/schematic_sequence/interview_scheme/interview_scheme_2.png"" class=""exp-image"">
                    <div class=""question-area"">
                        <p style=""font-size: 20px; font-weight: bold; margin: 0;"">Is there a person in this image?</p>
                    </div>
                </div>","1","main_experiment_trial","2","interview_scheme","schematic_sequence","","","","",""
"","","","","","html-keyboard-response","63","201626","0.0-63.0","FDB2CAA820C743F3A124EF8DF60E9276","019cf4b4-876b-797d-83ca-27fc6f71ba06","019cf498-06e0-702e-b525-9cde1ad77653","","null","
                <div class=""stimulus-container"">
                    <img src=""images/schematic_sequence/interview_scheme/interview_scheme_3.png"" class=""exp-image"">
                    <div class=""question-area""></div> 
                </div>","null","","","","","","","","",""
"","","","","","html-button-response","64","202221","0.0-64.0","FDB2CAA820C743F3A124EF8DF60E9276","019cf4b4-876b-797d-83ca-27fc6f71ba06","019cf498-06e0-702e-b525-9cde1ad77653","","594","
                <div class=""stimulus-container"">
                    <img src=""images/schematic_sequence/interview_scheme/interview_scheme_3.png"" class=""exp-image"">
                    <div class=""question-area"">
                        <p style=""font-size: 20px; font-weight: bold; margin: 0;"">Is there a person in this image?</p>
                    </div>
                </div>","1","main_experiment_trial","3","interview_scheme","schematic_sequence","","","","",""
"","","","","","html-keyboard-response","65","207225","0.0-65.0","FDB2CAA820C743F3A124EF8DF60E9276","019cf4b4-876b-797d-83ca-27fc6f71ba06","019cf498-06e0-702e-b525-9cde1ad77653","","null","
                <div class=""stimulus-container"">
                    <img src=""images/schematic_sequence/interview_scheme/interview_scheme_4.png"" class=""exp-image"">
                    <div class=""question-area""></div> 
                </div>","null","","","","","","","","",""
"","","","","","html-button-response","66","207699","0.0-66.0","FDB2CAA820C743F3A124EF8DF60E9276","019cf4b4-876b-797d-83ca-27fc6f71ba06","019cf498-06e0-702e-b525-9cde1ad77653","","471","
                <div class=""stimulus-container"">
                    <img src=""images/schematic_sequence/interview_scheme/interview_scheme_4.png"" class=""exp-image"">
                    <div class=""question-area"">
                        <p style=""font-size: 20px; font-weight: bold; margin: 0;"">Is there a person in this image?</p>
                    </div>
                </div>","1","main_experiment_trial","4","interview_scheme","schematic_sequence","","","","",""
"","","","","","html-keyboard-response","67","212703","0.0-67.0","FDB2CAA820C743F3A124EF8DF60E9276","019cf4b4-876b-797d-83ca-27fc6f71ba06","019cf498-06e0-702e-b525-9cde1ad77653","","null","
                <div class=""stimulus-container"">
                    <img src=""images/schematic_sequence/interview_scheme/interview_scheme_5.png"" class=""exp-image"">
                    <div class=""question-area""></div> 
                </div>","null","","","","","","","","",""
"","","","","","html-button-response","68","213063","0.0-68.0","FDB2CAA820C743F3A124EF8DF60E9276","019cf4b4-876b-797d-83ca-27fc6f71ba06","019cf498-06e0-702e-b525-9cde1ad77653","","357","
                <div class=""stimulus-container"">
                    <img src=""images/schematic_sequence/interview_scheme/interview_scheme_5.png"" class=""exp-image"">
                    <div class=""question-area"">
                        <p style=""font-size: 20px; font-weight: bold; margin: 0;"">Is there a person in this image?</p>
                    </div>
                </div>","0","main_experiment_trial","5","interview_scheme","schematic_sequence","","","","",""
"","","","","","html-keyboard-response","69","218065","0.0-69.0","FDB2CAA820C743F3A124EF8DF60E9276","019cf4b4-876b-797d-83ca-27fc6f71ba06","019cf498-06e0-702e-b525-9cde1ad77653","","null","
                <div class=""stimulus-container"">
                    <img src=""images/schematic_sequence/interview_scheme/interview_scheme_6.png"" class=""exp-image"">
                    <div class=""question-area""></div> 
                </div>","null","","","","","","","","",""
"","","","","","html-button-response","70","219153","0.0-70.0","FDB2CAA820C743F3A124EF8DF60E9276","019cf4b4-876b-797d-83ca-27fc6f71ba06","019cf498-06e0-702e-b525-9cde1ad77653","","1085","
                <div class=""stimulus-container"">
                    <img src=""images/schematic_sequence/interview_scheme/interview_scheme_6.png"" class=""exp-image"">
                    <div class=""question-area"">
                        <p style=""font-size: 20px; font-weight: bold; margin: 0;"">Is there a person in this image?</p>
                    </div>
                </div>","0","main_experiment_trial","6","interview_scheme","schematic_sequence","","","","",""
"","","","","","html-keyboard-response","71","224154","0.0-71.0","FDB2CAA820C743F3A124EF8DF60E9276","019cf4b4-876b-797d-83ca-27fc6f71ba06","019cf498-06e0-702e-b525-9cde1ad77653","","null","
                <div class=""stimulus-container"">
                    <img src=""images/schematic_sequence/interview_scheme/interview_scheme_7.png"" class=""exp-image"">
                    <div class=""question-area""></div> 
                </div>","null","","","","","","","","",""
"","","","","","html-button-response","72","224716","0.0-72.0","FDB2CAA820C743F3A124EF8DF60E9276","019cf4b4-876b-797d-83ca-27fc6f71ba06","019cf498-06e0-702e-b525-9cde1ad77653","","559","
                <div class=""stimulus-container"">
                    <img src=""images/schematic_sequence/interview_scheme/interview_scheme_7.png"" class=""exp-image"">
                    <div class=""question-area"">
                        <p style=""font-size: 20px; font-weight: bold; margin: 0;"">Is there a person in this image?</p>
                    </div>
                </div>","0","main_experiment_trial","7","interview_scheme","schematic_sequence","","","","",""
"","","","","","html-keyboard-response","73","229720","0.0-73.0","FDB2CAA820C743F3A124EF8DF60E9276","019cf4b4-876b-797d-83ca-27fc6f71ba06","019cf498-06e0-702e-b525-9cde1ad77653","","null","
                <div class=""stimulus-container"">
                    <img src=""images/schematic_sequence/interview_scheme/interview_scheme_8.png"" class=""exp-image"">
                    <div class=""question-area""></div> 
                </div>","null","","","","","","","","",""
"","","","","","html-button-response","74","230161","0.0-74.0","FDB2CAA820C743F3A124EF8DF60E9276","019cf4b4-876b-797d-83ca-27fc6f71ba06","019cf498-06e0-702e-b525-9cde1ad77653","","439","
                <div class=""stimulus-container"">
                    <img src=""images/schematic_sequence/interview_scheme/interview_scheme_8.png"" class=""exp-image"">
                    <div class=""question-area"">
                        <p style=""font-size: 20px; font-weight: bold; margin: 0;"">Is there a person in this image?</p>
                    </div>
                </div>","0","main_experiment_trial","8","interview_scheme","schematic_sequence","","","","",""
"","","","","","html-keyboard-response","75","235166","0.0-75.0","FDB2CAA820C743F3A124EF8DF60E9276","019cf4b4-876b-797d-83ca-27fc6f71ba06","019cf498-06e0-702e-b525-9cde1ad77653","","null","
                <div class=""stimulus-container"">
                    <img src=""images/schematic_sequence/interview_scheme/interview_scheme_9.png"" class=""exp-image"">
                    <div class=""question-area""></div> 
                </div>","null","","","","","","","","",""
"","","","","","html-button-response","76","237685","0.0-76.0","FDB2CAA820C743F3A124EF8DF60E9276","019cf4b4-876b-797d-83ca-27fc6f71ba06","019cf498-06e0-702e-b525-9cde1ad77653","","2517","
                <div class=""stimulus-container"">
                    <img src=""images/schematic_sequence/interview_scheme/interview_scheme_9.png"" class=""exp-image"">
                    <div class=""question-area"">
                        <p style=""font-size: 20px; font-weight: bold; margin: 0;"">Is there a person in this image?</p>
                    </div>
                </div>","0","main_experiment_trial","9","interview_scheme","schematic_sequence","","","","",""
"","","","","","html-keyboard-response","77","242689","0.0-77.0","FDB2CAA820C743F3A124EF8DF60E9276","019cf4b4-876b-797d-83ca-27fc6f71ba06","019cf498-06e0-702e-b525-9cde1ad77653","","null","
                <div class=""stimulus-container"">
                    <img src=""images/schematic_sequence/interview_scheme/interview_scheme_ten.png"" class=""exp-image"">
                    <div class=""question-area""></div> 
                </div>","null","","","","","","","","",""
"","","","","","html-button-response","78","244844","0.0-78.0","FDB2CAA820C743F3A124EF8DF60E9276","019cf4b4-876b-797d-83ca-27fc6f71ba06","019cf498-06e0-702e-b525-9cde1ad77653","","2151","
                <div class=""stimulus-container"">
                    <img src=""images/schematic_sequence/interview_scheme/interview_scheme_ten.png"" class=""exp-image"">
                    <div class=""question-area"">
                        <p style=""font-size: 20px; font-weight: bold; margin: 0;"">Is there a person in this image?</p>
                    </div>
                </div>","0","main_experiment_trial","ten","interview_scheme","schematic_sequence","","","","",""
"","","","","","html-keyboard-response","79","245846","0.0-79.0","FDB2CAA820C743F3A124EF8DF60E9276","019cf4b4-876b-797d-83ca-27fc6f71ba06","019cf498-06e0-702e-b525-9cde1ad77653","","null","<div style=""background-color: white; width: 100vw; height: 100vh;""></div>","null","","","","","","","","",""
"","","","","","html-keyboard-response","80","250848","0.0-80.0","FDB2CAA820C743F3A124EF8DF60E9276","019cf4b4-876b-797d-83ca-27fc6f71ba06","019cf498-06e0-702e-b525-9cde1ad77653","","null","
                <div class=""stimulus-container"">
                    <img src=""images/causal_sequence/package_causal/package_causal_1.png"" class=""exp-image"">
                    <div class=""question-area""></div> 
                </div>","null","","","","","","","","",""
"","","","","","html-button-response","81","251738","0.0-81.0","FDB2CAA820C743F3A124EF8DF60E9276","019cf4b4-876b-797d-83ca-27fc6f71ba06","019cf498-06e0-702e-b525-9cde1ad77653","","888","
                <div class=""stimulus-container"">
                    <img src=""images/causal_sequence/package_causal/package_causal_1.png"" class=""exp-image"">
                    <div class=""question-area"">
                        <p style=""font-size: 20px; font-weight: bold; margin: 0;"">Is there a person in this image?</p>
                    </div>
                </div>","0","main_experiment_trial","1","package_causal","causal_sequence","","","","",""
"","","","","","html-keyboard-response","82","256739","0.0-82.0","FDB2CAA820C743F3A124EF8DF60E9276","019cf4b4-876b-797d-83ca-27fc6f71ba06","019cf498-06e0-702e-b525-9cde1ad77653","","null","
                <div class=""stimulus-container"">
                    <img src=""images/causal_sequence/package_causal/package_causal_2.png"" class=""exp-image"">
                    <div class=""question-area""></div> 
                </div>","null","","","","","","","","",""
"","","","","","html-button-response","83","257101","0.0-83.0","FDB2CAA820C743F3A124EF8DF60E9276","019cf4b4-876b-797d-83ca-27fc6f71ba06","019cf498-06e0-702e-b525-9cde1ad77653","","359","
                <div class=""stimulus-container"">
                    <img src=""images/causal_sequence/package_causal/package_causal_2.png"" class=""exp-image"">
                    <div class=""question-area"">
                        <p style=""font-size: 20px; font-weight: bold; margin: 0;"">Is there a person in this image?</p>
                    </div>
                </div>","0","main_experiment_trial","2","package_causal","causal_sequence","","","","",""
"","","","","","html-keyboard-response","84","262103","0.0-84.0","FDB2CAA820C743F3A124EF8DF60E9276","019cf4b4-876b-797d-83ca-27fc6f71ba06","019cf498-06e0-702e-b525-9cde1ad77653","","null","
                <div class=""stimulus-container"">
                    <img src=""images/causal_sequence/package_causal/package_causal_3.png"" class=""exp-image"">
                    <div class=""question-area""></div> 
                </div>","null","","","","","","","","",""
"","","","","","html-button-response","85","262434","0.0-85.0","FDB2CAA820C743F3A124EF8DF60E9276","019cf4b4-876b-797d-83ca-27fc6f71ba06","019cf498-06e0-702e-b525-9cde1ad77653","","329","
                <div class=""stimulus-container"">
                    <img src=""images/causal_sequence/package_causal/package_causal_3.png"" class=""exp-image"">
                    <div class=""question-area"">
                        <p style=""font-size: 20px; font-weight: bold; margin: 0;"">Is there a person in this image?</p>
                    </div>
                </div>","0","main_experiment_trial","3","package_causal","causal_sequence","","","","",""
"","","","","","html-keyboard-response","86","267440","0.0-86.0","FDB2CAA820C743F3A124EF8DF60E9276","019cf4b4-876b-797d-83ca-27fc6f71ba06","019cf498-06e0-702e-b525-9cde1ad77653","","null","
                <div class=""stimulus-container"">
                    <img src=""images/causal_sequence/package_causal/package_causal_4.png"" class=""exp-image"">
                    <div class=""question-area""></div> 
                </div>","null","","","","","","","","",""
"","","","","","html-button-response","87","267846","0.0-87.0","FDB2CAA820C743F3A124EF8DF60E9276","019cf4b4-876b-797d-83ca-27fc6f71ba06","019cf498-06e0-702e-b525-9cde1ad77653","","403","
                <div class=""stimulus-container"">
                    <img src=""images/causal_sequence/package_causal/package_causal_4.png"" class=""exp-image"">
                    <div class=""question-area"">
                        <p style=""font-size: 20px; font-weight: bold; margin: 0;"">Is there a person in this image?</p>
                    </div>
                </div>","1","main_experiment_trial","4","package_causal","causal_sequence","","","","",""
"","","","","","html-keyboard-response","88","272851","0.0-88.0","FDB2CAA820C743F3A124EF8DF60E9276","019cf4b4-876b-797d-83ca-27fc6f71ba06","019cf498-06e0-702e-b525-9cde1ad77653","","null","
                <div class=""stimulus-container"">
                    <img src=""images/causal_sequence/package_causal/package_causal_5.png"" class=""exp-image"">
                    <div class=""question-area""></div> 
                </div>","null","","","","","","","","",""
"","","","","","html-button-response","89","273430","0.0-89.0","FDB2CAA820C743F3A124EF8DF60E9276","019cf4b4-876b-797d-83ca-27fc6f71ba06","019cf498-06e0-702e-b525-9cde1ad77653","","576","
                <div class=""stimulus-container"">
                    <img src=""images/causal_sequence/package_causal/package_causal_5.png"" class=""exp-image"">
                    <div class=""question-area"">
                        <p style=""font-size: 20px; font-weight: bold; margin: 0;"">Is there a person in this image?</p>
                    </div>
                </div>","0","main_experiment_trial","5","package_causal","causal_sequence","","","","",""
"","","","","","html-keyboard-response","90","278434","0.0-90.0","FDB2CAA820C743F3A124EF8DF60E9276","019cf4b4-876b-797d-83ca-27fc6f71ba06","019cf498-06e0-702e-b525-9cde1ad77653","","null","
                <div class=""stimulus-container"">
                    <img src=""images/causal_sequence/package_causal/package_causal_6.png"" class=""exp-image"">
                    <div class=""question-area""></div> 
                </div>","null","","","","","","","","",""
"","","","","","html-button-response","91","279975","0.0-91.0","FDB2CAA820C743F3A124EF8DF60E9276","019cf4b4-876b-797d-83ca-27fc6f71ba06","019cf498-06e0-702e-b525-9cde1ad77653","","1538","
                <div class=""stimulus-container"">
                    <img src=""images/causal_sequence/package_causal/package_causal_6.png"" class=""exp-image"">
                    <div class=""question-area"">
                        <p style=""font-size: 20px; font-weight: bold; margin: 0;"">Is there a person in this image?</p>
                    </div>
                </div>","0","main_experiment_trial","6","package_causal","causal_sequence","","","","",""
"","","","","","html-keyboard-response","92","284979","0.0-92.0","FDB2CAA820C743F3A124EF8DF60E9276","019cf4b4-876b-797d-83ca-27fc6f71ba06","019cf498-06e0-702e-b525-9cde1ad77653","","null","
                <div class=""stimulus-container"">
                    <img src=""images/causal_sequence/package_causal/package_causal_7.png"" class=""exp-image"">
                    <div class=""question-area""></div> 
                </div>","null","","","","","","","","",""
"","","","","","html-button-response","93","285363","0.0-93.0","FDB2CAA820C743F3A124EF8DF60E9276","019cf4b4-876b-797d-83ca-27fc6f71ba06","019cf498-06e0-702e-b525-9cde1ad77653","","381","
                <div class=""stimulus-container"">
                    <img src=""images/causal_sequence/package_causal/package_causal_7.png"" class=""exp-image"">
                    <div class=""question-area"">
                        <p style=""font-size: 20px; font-weight: bold; margin: 0;"">Is there a person in this image?</p>
                    </div>
                </div>","0","main_experiment_trial","7","package_causal","causal_sequence","","","","",""
"","","","","","html-keyboard-response","94","290366","0.0-94.0","FDB2CAA820C743F3A124EF8DF60E9276","019cf4b4-876b-797d-83ca-27fc6f71ba06","019cf498-06e0-702e-b525-9cde1ad77653","","null","
                <div class=""stimulus-container"">
                    <img src=""images/causal_sequence/package_causal/package_causal_8.png"" class=""exp-image"">
                    <div class=""question-area""></div> 
                </div>","null","","","","","","","","",""
"","","","","","html-button-response","95","290753","0.0-95.0","FDB2CAA820C743F3A124EF8DF60E9276","019cf4b4-876b-797d-83ca-27fc6f71ba06","019cf498-06e0-702e-b525-9cde1ad77653","","384","
                <div class=""stimulus-container"">
                    <img src=""images/causal_sequence/package_causal/package_causal_8.png"" class=""exp-image"">
                    <div class=""question-area"">
                        <p style=""font-size: 20px; font-weight: bold; margin: 0;"">Is there a person in this image?</p>
                    </div>
                </div>","0","main_experiment_trial","8","package_causal","causal_sequence","","","","",""
"","","","","","html-keyboard-response","96","295756","0.0-96.0","FDB2CAA820C743F3A124EF8DF60E9276","019cf4b4-876b-797d-83ca-27fc6f71ba06","019cf498-06e0-702e-b525-9cde1ad77653","","null","
                <div class=""stimulus-container"">
                    <img src=""images/causal_sequence/package_causal/package_causal_9.png"" class=""exp-image"">
                    <div class=""question-area""></div> 
                </div>","null","","","","","","","","",""
"","","","","","html-button-response","97","296290","0.0-97.0","FDB2CAA820C743F3A124EF8DF60E9276","019cf4b4-876b-797d-83ca-27fc6f71ba06","019cf498-06e0-702e-b525-9cde1ad77653","","531","
                <div class=""stimulus-container"">
                    <img src=""images/causal_sequence/package_causal/package_causal_9.png"" class=""exp-image"">
                    <div class=""question-area"">
                        <p style=""font-size: 20px; font-weight: bold; margin: 0;"">Is there a person in this image?</p>
                    </div>
                </div>","0","main_experiment_trial","9","package_causal","causal_sequence","","","","",""
"","","","","","html-keyboard-response","98","301294","0.0-98.0","FDB2CAA820C743F3A124EF8DF60E9276","019cf4b4-876b-797d-83ca-27fc6f71ba06","019cf498-06e0-702e-b525-9cde1ad77653","","null","
                <div class=""stimulus-container"">
                    <img src=""images/causal_sequence/package_causal/package_causal_ten.png"" class=""exp-image"">
                    <div class=""question-area""></div> 
                </div>","null","","","","","","","","",""
"","","","","","html-button-response","99","301638","0.0-99.0","FDB2CAA820C743F3A124EF8DF60E9276","019cf4b4-876b-797d-83ca-27fc6f71ba06","019cf498-06e0-702e-b525-9cde1ad77653","","341","
                <div class=""stimulus-container"">
                    <img src=""images/causal_sequence/package_causal/package_causal_ten.png"" class=""exp-image"">
                    <div class=""question-area"">
                        <p style=""font-size: 20px; font-weight: bold; margin: 0;"">Is there a person in this image?</p>
                    </div>
                </div>","0","main_experiment_trial","ten","package_causal","causal_sequence","","","","",""
"","","","","","html-keyboard-response","100","302641","0.0-100.0","FDB2CAA820C743F3A124EF8DF60E9276","019cf4b4-876b-797d-83ca-27fc6f71ba06","019cf498-06e0-702e-b525-9cde1ad77653","","null","<div style=""background-color: white; width: 100vw; height: 100vh;""></div>","null","","","","","","","","",""
"","","","","","html-keyboard-response","101","307644","0.0-101.0","FDB2CAA820C743F3A124EF8DF60E9276","019cf4b4-876b-797d-83ca-27fc6f71ba06","019cf498-06e0-702e-b525-9cde1ad77653","","null","
                <div class=""stimulus-container"">
                    <img src=""images/schematic_sequence/restaurant_scheme/restaurant_scheme_1.png"" class=""exp-image"">
                    <div class=""question-area""></div> 
                </div>","null","","","","","","","","",""
"","","","","","html-button-response","102","309662","0.0-102.0","FDB2CAA820C743F3A124EF8DF60E9276","019cf4b4-876b-797d-83ca-27fc6f71ba06","019cf498-06e0-702e-b525-9cde1ad77653","","2015","
                <div class=""stimulus-container"">
                    <img src=""images/schematic_sequence/restaurant_scheme/restaurant_scheme_1.png"" class=""exp-image"">
                    <div class=""question-area"">
                        <p style=""font-size: 20px; font-weight: bold; margin: 0;"">Is there a person in this image?</p>
                    </div>
                </div>","0","main_experiment_trial","1","restaurant_scheme","schematic_sequence","","","","",""
"","","","","","html-keyboard-response","103","314664","0.0-103.0","FDB2CAA820C743F3A124EF8DF60E9276","019cf4b4-876b-797d-83ca-27fc6f71ba06","019cf498-06e0-702e-b525-9cde1ad77653","","null","
                <div class=""stimulus-container"">
                    <img src=""images/schematic_sequence/restaurant_scheme/restaurant_scheme_2.png"" class=""exp-image"">
                    <div class=""question-area""></div> 
                </div>","null","","","","","","","","",""
"","","","","","html-button-response","104","316083","0.0-104.0","FDB2CAA820C743F3A124EF8DF60E9276","019cf4b4-876b-797d-83ca-27fc6f71ba06","019cf498-06e0-702e-b525-9cde1ad77653","","1415","
                <div class=""stimulus-container"">
                    <img src=""images/schematic_sequence/restaurant_scheme/restaurant_scheme_2.png"" class=""exp-image"">
                    <div class=""question-area"">
                        <p style=""font-size: 20px; font-weight: bold; margin: 0;"">Is there a person in this image?</p>
                    </div>
                </div>","1","main_experiment_trial","2","restaurant_scheme","schematic_sequence","","","","",""
"","","","","","html-keyboard-response","105","321086","0.0-105.0","FDB2CAA820C743F3A124EF8DF60E9276","019cf4b4-876b-797d-83ca-27fc6f71ba06","019cf498-06e0-702e-b525-9cde1ad77653","","null","
                <div class=""stimulus-container"">
                    <img src=""images/schematic_sequence/restaurant_scheme/restaurant_scheme_3.png"" class=""exp-image"">
                    <div class=""question-area""></div> 
                </div>","null","","","","","","","","",""
"","","","","","html-button-response","106","322041","0.0-106.0","FDB2CAA820C743F3A124EF8DF60E9276","019cf4b4-876b-797d-83ca-27fc6f71ba06","019cf498-06e0-702e-b525-9cde1ad77653","","953","
                <div class=""stimulus-container"">
                    <img src=""images/schematic_sequence/restaurant_scheme/restaurant_scheme_3.png"" class=""exp-image"">
                    <div class=""question-area"">
                        <p style=""font-size: 20px; font-weight: bold; margin: 0;"">Is there a person in this image?</p>
                    </div>
                </div>","1","main_experiment_trial","3","restaurant_scheme","schematic_sequence","","","","",""
"","","","","","html-keyboard-response","107","327043","0.0-107.0","FDB2CAA820C743F3A124EF8DF60E9276","019cf4b4-876b-797d-83ca-27fc6f71ba06","019cf498-06e0-702e-b525-9cde1ad77653","","null","
                <div class=""stimulus-container"">
                    <img src=""images/schematic_sequence/restaurant_scheme/restaurant_scheme_4.png"" class=""exp-image"">
                    <div class=""question-area""></div> 
                </div>","null","","","","","","","","",""
"","","","","","html-button-response","108","328100","0.0-108.0","FDB2CAA820C743F3A124EF8DF60E9276","019cf4b4-876b-797d-83ca-27fc6f71ba06","019cf498-06e0-702e-b525-9cde1ad77653","","1053","
                <div class=""stimulus-container"">
                    <img src=""images/schematic_sequence/restaurant_scheme/restaurant_scheme_4.png"" class=""exp-image"">
                    <div class=""question-area"">
                        <p style=""font-size: 20px; font-weight: bold; margin: 0;"">Is there a person in this image?</p>
                    </div>
                </div>","0","main_experiment_trial","4","restaurant_scheme","schematic_sequence","","","","",""
"","","","","","html-keyboard-response","109","333103","0.0-109.0","FDB2CAA820C743F3A124EF8DF60E9276","019cf4b4-876b-797d-83ca-27fc6f71ba06","019cf498-06e0-702e-b525-9cde1ad77653","","null","
                <div class=""stimulus-container"">
                    <img src=""images/schematic_sequence/restaurant_scheme/restaurant_scheme_5.png"" class=""exp-image"">
                    <div class=""question-area""></div> 
                </div>","null","","","","","","","","",""
"","","","","","html-button-response","110","334263","0.0-110.0","FDB2CAA820C743F3A124EF8DF60E9276","019cf4b4-876b-797d-83ca-27fc6f71ba06","019cf498-06e0-702e-b525-9cde1ad77653","","1158","
                <div class=""stimulus-container"">
                    <img src=""images/schematic_sequence/restaurant_scheme/restaurant_scheme_5.png"" class=""exp-image"">
                    <div class=""question-area"">
                        <p style=""font-size: 20px; font-weight: bold; margin: 0;"">Is there a person in this image?</p>
                    </div>
                </div>","0","main_experiment_trial","5","restaurant_scheme","schematic_sequence","","","","",""
"","","","","","html-keyboard-response","111","339265","0.0-111.0","FDB2CAA820C743F3A124EF8DF60E9276","019cf4b4-876b-797d-83ca-27fc6f71ba06","019cf498-06e0-702e-b525-9cde1ad77653","","null","
                <div class=""stimulus-container"">
                    <img src=""images/schematic_sequence/restaurant_scheme/restaurant_scheme_6.png"" class=""exp-image"">
                    <div class=""question-area""></div> 
                </div>","null","","","","","","","","",""
"","","","","","html-button-response","112","341162","0.0-112.0","FDB2CAA820C743F3A124EF8DF60E9276","019cf4b4-876b-797d-83ca-27fc6f71ba06","019cf498-06e0-702e-b525-9cde1ad77653","","1895","
                <div class=""stimulus-container"">
                    <img src=""images/schematic_sequence/restaurant_scheme/restaurant_scheme_6.png"" class=""exp-image"">
                    <div class=""question-area"">
                        <p style=""font-size: 20px; font-weight: bold; margin: 0;"">Is there a person in this image?</p>
                    </div>
                </div>","1","main_experiment_trial","6","restaurant_scheme","schematic_sequence","","","","",""
"","","","","","html-keyboard-response","113","346166","0.0-113.0","FDB2CAA820C743F3A124EF8DF60E9276","019cf4b4-876b-797d-83ca-27fc6f71ba06","019cf498-06e0-702e-b525-9cde1ad77653","","null","
                <div class=""stimulus-container"">
                    <img src=""images/schematic_sequence/restaurant_scheme/restaurant_scheme_7.png"" class=""exp-image"">
                    <div class=""question-area""></div> 
                </div>","null","","","","","","","","",""
"","","","","","html-button-response","114","346849","0.0-114.0","FDB2CAA820C743F3A124EF8DF60E9276","019cf4b4-876b-797d-83ca-27fc6f71ba06","019cf498-06e0-702e-b525-9cde1ad77653","","681","
                <div class=""stimulus-container"">
                    <img src=""images/schematic_sequence/restaurant_scheme/restaurant_scheme_7.png"" class=""exp-image"">
                    <div class=""question-area"">
                        <p style=""font-size: 20px; font-weight: bold; margin: 0;"">Is there a person in this image?</p>
                    </div>
                </div>","1","main_experiment_trial","7","restaurant_scheme","schematic_sequence","","","","",""
"","","","","","html-keyboard-response","115","351851","0.0-115.0","FDB2CAA820C743F3A124EF8DF60E9276","019cf4b4-876b-797d-83ca-27fc6f71ba06","019cf498-06e0-702e-b525-9cde1ad77653","","null","
                <div class=""stimulus-container"">
                    <img src=""images/schematic_sequence/restaurant_scheme/restaurant_scheme_8.png"" class=""exp-image"">
                    <div class=""question-area""></div> 
                </div>","null","","","","","","","","",""
"","","","","","html-button-response","116","352553","0.0-116.0","FDB2CAA820C743F3A124EF8DF60E9276","019cf4b4-876b-797d-83ca-27fc6f71ba06","019cf498-06e0-702e-b525-9cde1ad77653","","700","
                <div class=""stimulus-container"">
                    <img src=""images/schematic_sequence/restaurant_scheme/restaurant_scheme_8.png"" class=""exp-image"">
                    <div class=""question-area"">
                        <p style=""font-size: 20px; font-weight: bold; margin: 0;"">Is there a person in this image?</p>
                    </div>
                </div>","1","main_experiment_trial","8","restaurant_scheme","schematic_sequence","","","","",""
"","","","","","html-keyboard-response","117","357557","0.0-117.0","FDB2CAA820C743F3A124EF8DF60E9276","019cf4b4-876b-797d-83ca-27fc6f71ba06","019cf498-06e0-702e-b525-9cde1ad77653","","null","
                <div class=""stimulus-container"">
                    <img src=""images/schematic_sequence/restaurant_scheme/restaurant_scheme_9.png"" class=""exp-image"">
                    <div class=""question-area""></div> 
                </div>","null","","","","","","","","",""
"","","","","","html-button-response","118","359247","0.0-118.0","FDB2CAA820C743F3A124EF8DF60E9276","019cf4b4-876b-797d-83ca-27fc6f71ba06","019cf498-06e0-702e-b525-9cde1ad77653","","1688","
                <div class=""stimulus-container"">
                    <img src=""images/schematic_sequence/restaurant_scheme/restaurant_scheme_9.png"" class=""exp-image"">
                    <div class=""question-area"">
                        <p style=""font-size: 20px; font-weight: bold; margin: 0;"">Is there a person in this image?</p>
                    </div>
                </div>","0","main_experiment_trial","9","restaurant_scheme","schematic_sequence","","","","",""
"","","","","","html-keyboard-response","119","364250","0.0-119.0","FDB2CAA820C743F3A124EF8DF60E9276","019cf4b4-876b-797d-83ca-27fc6f71ba06","019cf498-06e0-702e-b525-9cde1ad77653","","null","
                <div class=""stimulus-container"">
                    <img src=""images/schematic_sequence/restaurant_scheme/restaurant_scheme_ten.png"" class=""exp-image"">
                    <div class=""question-area""></div> 
                </div>","null","","","","","","","","",""
"","","","","","html-button-response","120","365143","0.0-120.0","FDB2CAA820C743F3A124EF8DF60E9276","019cf4b4-876b-797d-83ca-27fc6f71ba06","019cf498-06e0-702e-b525-9cde1ad77653","","891","
                <div class=""stimulus-container"">
                    <img src=""images/schematic_sequence/restaurant_scheme/restaurant_scheme_ten.png"" class=""exp-image"">
                    <div class=""question-area"">
                        <p style=""font-size: 20px; font-weight: bold; margin: 0;"">Is there a person in this image?</p>
                    </div>
                </div>","0","main_experiment_trial","ten","restaurant_scheme","schematic_sequence","","","","",""
"","","","","","html-keyboard-response","121","366146","0.0-121.0","FDB2CAA820C743F3A124EF8DF60E9276","019cf4b4-876b-797d-83ca-27fc6f71ba06","019cf498-06e0-702e-b525-9cde1ad77653","","null","<div style=""background-color: white; width: 100vw; height: 100vh;""></div>","null","","","","","","","","",""
"","","","","","html-keyboard-response","122","371148","0.0-122.0","FDB2CAA820C743F3A124EF8DF60E9276","019cf4b4-876b-797d-83ca-27fc6f71ba06","019cf498-06e0-702e-b525-9cde1ad77653","","null","
                <div class=""stimulus-container"">
                    <img src=""images/causal_sequence/the_performance_causal/the_performance_causal_1.png"" class=""exp-image"">
                    <div class=""question-area""></div> 
                </div>","null","","","","","","","","",""
"","","","","","html-button-response","123","373224","0.0-123.0","FDB2CAA820C743F3A124EF8DF60E9276","019cf4b4-876b-797d-83ca-27fc6f71ba06","019cf498-06e0-702e-b525-9cde1ad77653","","2073","
                <div class=""stimulus-container"">
                    <img src=""images/causal_sequence/the_performance_causal/the_performance_causal_1.png"" class=""exp-image"">
                    <div class=""question-area"">
                        <p style=""font-size: 20px; font-weight: bold; margin: 0;"">Is there a person in this image?</p>
                    </div>
                </div>","0","main_experiment_trial","1","the_performance_causal","causal_sequence","","","","",""
"","","","","","html-keyboard-response","124","378226","0.0-124.0","FDB2CAA820C743F3A124EF8DF60E9276","019cf4b4-876b-797d-83ca-27fc6f71ba06","019cf498-06e0-702e-b525-9cde1ad77653","","null","
                <div class=""stimulus-container"">
                    <img src=""images/causal_sequence/the_performance_causal/the_performance_causal_2.png"" class=""exp-image"">
                    <div class=""question-area""></div> 
                </div>","null","","","","","","","","",""
"","","","","","html-button-response","125","380062","0.0-125.0","FDB2CAA820C743F3A124EF8DF60E9276","019cf4b4-876b-797d-83ca-27fc6f71ba06","019cf498-06e0-702e-b525-9cde1ad77653","","1834","
                <div class=""stimulus-container"">
                    <img src=""images/causal_sequence/the_performance_causal/the_performance_causal_2.png"" class=""exp-image"">
                    <div class=""question-area"">
                        <p style=""font-size: 20px; font-weight: bold; margin: 0;"">Is there a person in this image?</p>
                    </div>
                </div>","0","main_experiment_trial","2","the_performance_causal","causal_sequence","","","","",""
"","","","","","html-keyboard-response","126","385064","0.0-126.0","FDB2CAA820C743F3A124EF8DF60E9276","019cf4b4-876b-797d-83ca-27fc6f71ba06","019cf498-06e0-702e-b525-9cde1ad77653","","null","
                <div class=""stimulus-container"">
                    <img src=""images/causal_sequence/the_performance_causal/the_performance_causal_3.png"" class=""exp-image"">
                    <div class=""question-area""></div> 
                </div>","null","","","","","","","","",""
"","","","","","html-button-response","127","385883","0.0-127.0","FDB2CAA820C743F3A124EF8DF60E9276","019cf4b4-876b-797d-83ca-27fc6f71ba06","019cf498-06e0-702e-b525-9cde1ad77653","","816","
                <div class=""stimulus-container"">
                    <img src=""images/causal_sequence/the_performance_causal/the_performance_causal_3.png"" class=""exp-image"">
                    <div class=""question-area"">
                        <p style=""font-size: 20px; font-weight: bold; margin: 0;"">Is there a person in this image?</p>
                    </div>
                </div>","0","main_experiment_trial","3","the_performance_causal","causal_sequence","","","","",""
"","","","","","html-keyboard-response","128","390886","0.0-128.0","FDB2CAA820C743F3A124EF8DF60E9276","019cf4b4-876b-797d-83ca-27fc6f71ba06","019cf498-06e0-702e-b525-9cde1ad77653","","null","
                <div class=""stimulus-container"">
                    <img src=""images/causal_sequence/the_performance_causal/the_performance_causal_4.png"" class=""exp-image"">
                    <div class=""question-area""></div> 
                </div>","null","","","","","","","","",""
"","","","","","html-button-response","129","392006","0.0-129.0","FDB2CAA820C743F3A124EF8DF60E9276","019cf4b4-876b-797d-83ca-27fc6f71ba06","019cf498-06e0-702e-b525-9cde1ad77653","","1117","
                <div class=""stimulus-container"">
                    <img src=""images/causal_sequence/the_performance_causal/the_performance_causal_4.png"" class=""exp-image"">
                    <div class=""question-area"">
                        <p style=""font-size: 20px; font-weight: bold; margin: 0;"">Is there a person in this image?</p>
                    </div>
                </div>","0","main_experiment_trial","4","the_performance_causal","causal_sequence","","","","",""
"","","","","","html-keyboard-response","130","397009","0.0-130.0","FDB2CAA820C743F3A124EF8DF60E9276","019cf4b4-876b-797d-83ca-27fc6f71ba06","019cf498-06e0-702e-b525-9cde1ad77653","","null","
                <div class=""stimulus-container"">
                    <img src=""images/causal_sequence/the_performance_causal/the_performance_causal_5.png"" class=""exp-image"">
                    <div class=""question-area""></div> 
                </div>","null","","","","","","","","",""
"","","","","","html-button-response","131","399130","0.0-131.0","FDB2CAA820C743F3A124EF8DF60E9276","019cf4b4-876b-797d-83ca-27fc6f71ba06","019cf498-06e0-702e-b525-9cde1ad77653","","2118","
                <div class=""stimulus-container"">
                    <img src=""images/causal_sequence/the_performance_causal/the_performance_causal_5.png"" class=""exp-image"">
                    <div class=""question-area"">
                        <p style=""font-size: 20px; font-weight: bold; margin: 0;"">Is there a person in this image?</p>
                    </div>
                </div>","0","main_experiment_trial","5","the_performance_causal","causal_sequence","","","","",""
"","","","","","html-keyboard-response","132","404133","0.0-132.0","FDB2CAA820C743F3A124EF8DF60E9276","019cf4b4-876b-797d-83ca-27fc6f71ba06","019cf498-06e0-702e-b525-9cde1ad77653","","null","
                <div class=""stimulus-container"">
                    <img src=""images/causal_sequence/the_performance_causal/the_performance_causal_6.png"" class=""exp-image"">
                    <div class=""question-area""></div> 
                </div>","null","","","","","","","","",""
"","","","","","html-button-response","133","407114","0.0-133.0","FDB2CAA820C743F3A124EF8DF60E9276","019cf4b4-876b-797d-83ca-27fc6f71ba06","019cf498-06e0-702e-b525-9cde1ad77653","","2977","
                <div class=""stimulus-container"">
                    <img src=""images/causal_sequence/the_performance_causal/the_performance_causal_6.png"" class=""exp-image"">
                    <div class=""question-area"">
                        <p style=""font-size: 20px; font-weight: bold; margin: 0;"">Is there a person in this image?</p>
                    </div>
                </div>","0","main_experiment_trial","6","the_performance_causal","causal_sequence","","","","",""
"","","","","","html-keyboard-response","134","412117","0.0-134.0","FDB2CAA820C743F3A124EF8DF60E9276","019cf4b4-876b-797d-83ca-27fc6f71ba06","019cf498-06e0-702e-b525-9cde1ad77653","","null","
                <div class=""stimulus-container"">
                    <img src=""images/causal_sequence/the_performance_causal/the_performance_causal_7.png"" class=""exp-image"">
                    <div class=""question-area""></div> 
                </div>","null","","","","","","","","",""
"","","","","","html-button-response","135","412815","0.0-135.0","FDB2CAA820C743F3A124EF8DF60E9276","019cf4b4-876b-797d-83ca-27fc6f71ba06","019cf498-06e0-702e-b525-9cde1ad77653","","696","
                <div class=""stimulus-container"">
                    <img src=""images/causal_sequence/the_performance_causal/the_performance_causal_7.png"" class=""exp-image"">
                    <div class=""question-area"">
                        <p style=""font-size: 20px; font-weight: bold; margin: 0;"">Is there a person in this image?</p>
                    </div>
                </div>","0","main_experiment_trial","7","the_performance_causal","causal_sequence","","","","",""
"","","","","","html-keyboard-response","136","417819","0.0-136.0","FDB2CAA820C743F3A124EF8DF60E9276","019cf4b4-876b-797d-83ca-27fc6f71ba06","019cf498-06e0-702e-b525-9cde1ad77653","","null","
                <div class=""stimulus-container"">
                    <img src=""images/causal_sequence/the_performance_causal/the_performance_causal_8.png"" class=""exp-image"">
                    <div class=""question-area""></div> 
                </div>","null","","","","","","","","",""
"","","","","","html-button-response","137","419606","0.0-137.0","FDB2CAA820C743F3A124EF8DF60E9276","019cf4b4-876b-797d-83ca-27fc6f71ba06","019cf498-06e0-702e-b525-9cde1ad77653","","1785","
                <div class=""stimulus-container"">
                    <img src=""images/causal_sequence/the_performance_causal/the_performance_causal_8.png"" class=""exp-image"">
                    <div class=""question-area"">
                        <p style=""font-size: 20px; font-weight: bold; margin: 0;"">Is there a person in this image?</p>
                    </div>
                </div>","0","main_experiment_trial","8","the_performance_causal","causal_sequence","","","","",""
"","","","","","html-keyboard-response","138","424611","0.0-138.0","FDB2CAA820C743F3A124EF8DF60E9276","019cf4b4-876b-797d-83ca-27fc6f71ba06","019cf498-06e0-702e-b525-9cde1ad77653","","null","
                <div class=""stimulus-container"">
                    <img src=""images/causal_sequence/the_performance_causal/the_performance_causal_9.png"" class=""exp-image"">
                    <div class=""question-area""></div> 
                </div>","null","","","","","","","","",""
"","","","","","html-button-response","139","425729","0.0-139.0","FDB2CAA820C743F3A124EF8DF60E9276","019cf4b4-876b-797d-83ca-27fc6f71ba06","019cf498-06e0-702e-b525-9cde1ad77653","","1115","
                <div class=""stimulus-container"">
                    <img src=""images/causal_sequence/the_performance_causal/the_performance_causal_9.png"" class=""exp-image"">
                    <div class=""question-area"">
                        <p style=""font-size: 20px; font-weight: bold; margin: 0;"">Is there a person in this image?</p>
                    </div>
                </div>","0","main_experiment_trial","9","the_performance_causal","causal_sequence","","","","",""
"","","","","","html-keyboard-response","140","430732","0.0-140.0","FDB2CAA820C743F3A124EF8DF60E9276","019cf4b4-876b-797d-83ca-27fc6f71ba06","019cf498-06e0-702e-b525-9cde1ad77653","","null","
                <div class=""stimulus-container"">
                    <img src=""images/causal_sequence/the_performance_causal/the_performance_causal_ten.png"" class=""exp-image"">
                    <div class=""question-area""></div> 
                </div>","null","","","","","","","","",""
"","","","","","html-button-response","141","431375","0.0-141.0","FDB2CAA820C743F3A124EF8DF60E9276","019cf4b4-876b-797d-83ca-27fc6f71ba06","019cf498-06e0-702e-b525-9cde1ad77653","","640","
                <div class=""stimulus-container"">
                    <img src=""images/causal_sequence/the_performance_causal/the_performance_causal_ten.png"" class=""exp-image"">
                    <div class=""question-area"">
                        <p style=""font-size: 20px; font-weight: bold; margin: 0;"">Is there a person in this image?</p>
                    </div>
                </div>","0","main_experiment_trial","ten","the_performance_causal","causal_sequence","","","","",""
"","","","","","html-keyboard-response","142","432376","0.0-142.0","FDB2CAA820C743F3A124EF8DF60E9276","019cf4b4-876b-797d-83ca-27fc6f71ba06","019cf498-06e0-702e-b525-9cde1ad77653","","null","<div style=""background-color: white; width: 100vw; height: 100vh;""></div>","null","","","","","","","","",""
"","","","","","html-keyboard-response","143","437378","0.0-143.0","FDB2CAA820C743F3A124EF8DF60E9276","019cf4b4-876b-797d-83ca-27fc6f71ba06","019cf498-06e0-702e-b525-9cde1ad77653","","null","
                <div class=""stimulus-container"">
                    <img src=""images/schematic_sequence/dinner_party_scheme/dinner_party_scheme_1.png"" class=""exp-image"">
                    <div class=""question-area""></div> 
                </div>","null","","","","","","","","",""
"","","","","","html-button-response","144","437832","0.0-144.0","FDB2CAA820C743F3A124EF8DF60E9276","019cf4b4-876b-797d-83ca-27fc6f71ba06","019cf498-06e0-702e-b525-9cde1ad77653","","450","
                <div class=""stimulus-container"">
                    <img src=""images/schematic_sequence/dinner_party_scheme/dinner_party_scheme_1.png"" class=""exp-image"">
                    <div class=""question-area"">
                        <p style=""font-size: 20px; font-weight: bold; margin: 0;"">Is there a person in this image?</p>
                    </div>
                </div>","1","main_experiment_trial","1","dinner_party_scheme","schematic_sequence","","","","",""
"","","","","","html-keyboard-response","145","442837","0.0-145.0","FDB2CAA820C743F3A124EF8DF60E9276","019cf4b4-876b-797d-83ca-27fc6f71ba06","019cf498-06e0-702e-b525-9cde1ad77653","","null","
                <div class=""stimulus-container"">
                    <img src=""images/schematic_sequence/dinner_party_scheme/dinner_party_scheme_2.png"" class=""exp-image"">
                    <div class=""question-area""></div> 
                </div>","null","","","","","","","","",""
"","","","","","html-button-response","146","444025","0.0-146.0","FDB2CAA820C743F3A124EF8DF60E9276","019cf4b4-876b-797d-83ca-27fc6f71ba06","019cf498-06e0-702e-b525-9cde1ad77653","","1186","
                <div class=""stimulus-container"">
                    <img src=""images/schematic_sequence/dinner_party_scheme/dinner_party_scheme_2.png"" class=""exp-image"">
                    <div class=""question-area"">
                        <p style=""font-size: 20px; font-weight: bold; margin: 0;"">Is there a person in this image?</p>
                    </div>
                </div>","1","main_experiment_trial","2","dinner_party_scheme","schematic_sequence","","","","",""
"","","","","","html-keyboard-response","147","449030","0.0-147.0","FDB2CAA820C743F3A124EF8DF60E9276","019cf4b4-876b-797d-83ca-27fc6f71ba06","019cf498-06e0-702e-b525-9cde1ad77653","","null","
                <div class=""stimulus-container"">
                    <img src=""images/schematic_sequence/dinner_party_scheme/dinner_party_scheme_3.png"" class=""exp-image"">
                    <div class=""question-area""></div> 
                </div>","null","","","","","","","","",""
"","","","","","html-button-response","148","450893","0.0-148.0","FDB2CAA820C743F3A124EF8DF60E9276","019cf4b4-876b-797d-83ca-27fc6f71ba06","019cf498-06e0-702e-b525-9cde1ad77653","","1861","
                <div class=""stimulus-container"">
                    <img src=""images/schematic_sequence/dinner_party_scheme/dinner_party_scheme_3.png"" class=""exp-image"">
                    <div class=""question-area"">
                        <p style=""font-size: 20px; font-weight: bold; margin: 0;"">Is there a person in this image?</p>
                    </div>
                </div>","0","main_experiment_trial","3","dinner_party_scheme","schematic_sequence","","","","",""
"","","","","","html-keyboard-response","149","455898","0.0-149.0","FDB2CAA820C743F3A124EF8DF60E9276","019cf4b4-876b-797d-83ca-27fc6f71ba06","019cf498-06e0-702e-b525-9cde1ad77653","","null","
                <div class=""stimulus-container"">
                    <img src=""images/schematic_sequence/dinner_party_scheme/dinner_party_scheme_4.png"" class=""exp-image"">
                    <div class=""question-area""></div> 
                </div>","null","","","","","","","","",""
"","","","","","html-button-response","150","456250","0.0-150.0","FDB2CAA820C743F3A124EF8DF60E9276","019cf4b4-876b-797d-83ca-27fc6f71ba06","019cf498-06e0-702e-b525-9cde1ad77653","","350","
                <div class=""stimulus-container"">
                    <img src=""images/schematic_sequence/dinner_party_scheme/dinner_party_scheme_4.png"" class=""exp-image"">
                    <div class=""question-area"">
                        <p style=""font-size: 20px; font-weight: bold; margin: 0;"">Is there a person in this image?</p>
                    </div>
                </div>","0","main_experiment_trial","4","dinner_party_scheme","schematic_sequence","","","","",""
"","","","","","html-keyboard-response","151","461252","0.0-151.0","FDB2CAA820C743F3A124EF8DF60E9276","019cf4b4-876b-797d-83ca-27fc6f71ba06","019cf498-06e0-702e-b525-9cde1ad77653","","null","
                <div class=""stimulus-container"">
                    <img src=""images/schematic_sequence/dinner_party_scheme/dinner_party_scheme_5.png"" class=""exp-image"">
                    <div class=""question-area""></div> 
                </div>","null","","","","","","","","",""
"","","","","","html-button-response","152","461825","0.0-152.0","FDB2CAA820C743F3A124EF8DF60E9276","019cf4b4-876b-797d-83ca-27fc6f71ba06","019cf498-06e0-702e-b525-9cde1ad77653","","571","
                <div class=""stimulus-container"">
                    <img src=""images/schematic_sequence/dinner_party_scheme/dinner_party_scheme_5.png"" class=""exp-image"">
                    <div class=""question-area"">
                        <p style=""font-size: 20px; font-weight: bold; margin: 0;"">Is there a person in this image?</p>
                    </div>
                </div>","1","main_experiment_trial","5","dinner_party_scheme","schematic_sequence","","","","",""
"","","","","","html-keyboard-response","153","466830","0.0-153.0","FDB2CAA820C743F3A124EF8DF60E9276","019cf4b4-876b-797d-83ca-27fc6f71ba06","019cf498-06e0-702e-b525-9cde1ad77653","","null","
                <div class=""stimulus-container"">
                    <img src=""images/schematic_sequence/dinner_party_scheme/dinner_party_scheme_6.png"" class=""exp-image"">
                    <div class=""question-area""></div> 
                </div>","null","","","","","","","","",""
"","","","","","html-button-response","154","467714","0.0-154.0","FDB2CAA820C743F3A124EF8DF60E9276","019cf4b4-876b-797d-83ca-27fc6f71ba06","019cf498-06e0-702e-b525-9cde1ad77653","","881","
                <div class=""stimulus-container"">
                    <img src=""images/schematic_sequence/dinner_party_scheme/dinner_party_scheme_6.png"" class=""exp-image"">
                    <div class=""question-area"">
                        <p style=""font-size: 20px; font-weight: bold; margin: 0;"">Is there a person in this image?</p>
                    </div>
                </div>","0","main_experiment_trial","6","dinner_party_scheme","schematic_sequence","","","","",""
"","","","","","html-keyboard-response","155","472721","0.0-155.0","FDB2CAA820C743F3A124EF8DF60E9276","019cf4b4-876b-797d-83ca-27fc6f71ba06","019cf498-06e0-702e-b525-9cde1ad77653","","null","
                <div class=""stimulus-container"">
                    <img src=""images/schematic_sequence/dinner_party_scheme/dinner_party_scheme_7.png"" class=""exp-image"">
                    <div class=""question-area""></div> 
                </div>","null","","","","","","","","",""
"","","","","","html-button-response","156","474666","0.0-156.0","FDB2CAA820C743F3A124EF8DF60E9276","019cf4b4-876b-797d-83ca-27fc6f71ba06","019cf498-06e0-702e-b525-9cde1ad77653","","1943","
                <div class=""stimulus-container"">
                    <img src=""images/schematic_sequence/dinner_party_scheme/dinner_party_scheme_7.png"" class=""exp-image"">
                    <div class=""question-area"">
                        <p style=""font-size: 20px; font-weight: bold; margin: 0;"">Is there a person in this image?</p>
                    </div>
                </div>","0","main_experiment_trial","7","dinner_party_scheme","schematic_sequence","","","","",""
"","","","","","html-keyboard-response","157","479672","0.0-157.0","FDB2CAA820C743F3A124EF8DF60E9276","019cf4b4-876b-797d-83ca-27fc6f71ba06","019cf498-06e0-702e-b525-9cde1ad77653","","null","
                <div class=""stimulus-container"">
                    <img src=""images/schematic_sequence/dinner_party_scheme/dinner_party_scheme_8.png"" class=""exp-image"">
                    <div class=""question-area""></div> 
                </div>","null","","","","","","","","",""
"","","","","","html-button-response","158","481889","0.0-158.0","FDB2CAA820C743F3A124EF8DF60E9276","019cf4b4-876b-797d-83ca-27fc6f71ba06","019cf498-06e0-702e-b525-9cde1ad77653","","2213","
                <div class=""stimulus-container"">
                    <img src=""images/schematic_sequence/dinner_party_scheme/dinner_party_scheme_8.png"" class=""exp-image"">
                    <div class=""question-area"">
                        <p style=""font-size: 20px; font-weight: bold; margin: 0;"">Is there a person in this image?</p>
                    </div>
                </div>","0","main_experiment_trial","8","dinner_party_scheme","schematic_sequence","","","","",""
"","","","","","html-keyboard-response","159","486891","0.0-159.0","FDB2CAA820C743F3A124EF8DF60E9276","019cf4b4-876b-797d-83ca-27fc6f71ba06","019cf498-06e0-702e-b525-9cde1ad77653","","null","
                <div class=""stimulus-container"">
                    <img src=""images/schematic_sequence/dinner_party_scheme/dinner_party_scheme_9.png"" class=""exp-image"">
                    <div class=""question-area""></div> 
                </div>","null","","","","","","","","",""
"","","","","","html-button-response","160","487943","0.0-160.0","FDB2CAA820C743F3A124EF8DF60E9276","019cf4b4-876b-797d-83ca-27fc6f71ba06","019cf498-06e0-702e-b525-9cde1ad77653","","1050","
                <div class=""stimulus-container"">
                    <img src=""images/schematic_sequence/dinner_party_scheme/dinner_party_scheme_9.png"" class=""exp-image"">
                    <div class=""question-area"">
                        <p style=""font-size: 20px; font-weight: bold; margin: 0;"">Is there a person in this image?</p>
                    </div>
                </div>","0","main_experiment_trial","9","dinner_party_scheme","schematic_sequence","","","","",""
"","","","","","html-keyboard-response","161","492946","0.0-161.0","FDB2CAA820C743F3A124EF8DF60E9276","019cf4b4-876b-797d-83ca-27fc6f71ba06","019cf498-06e0-702e-b525-9cde1ad77653","","null","
                <div class=""stimulus-container"">
                    <img src=""images/schematic_sequence/dinner_party_scheme/dinner_party_scheme_ten.png"" class=""exp-image"">
                    <div class=""question-area""></div> 
                </div>","null","","","","","","","","",""
"","","","","","html-button-response","162","493271","0.0-162.0","FDB2CAA820C743F3A124EF8DF60E9276","019cf4b4-876b-797d-83ca-27fc6f71ba06","019cf498-06e0-702e-b525-9cde1ad77653","","323","
                <div class=""stimulus-container"">
                    <img src=""images/schematic_sequence/dinner_party_scheme/dinner_party_scheme_ten.png"" class=""exp-image"">
                    <div class=""question-area"">
                        <p style=""font-size: 20px; font-weight: bold; margin: 0;"">Is there a person in this image?</p>
                    </div>
                </div>","0","main_experiment_trial","ten","dinner_party_scheme","schematic_sequence","","","","",""
"","","","","","html-keyboard-response","163","494274","0.0-163.0","FDB2CAA820C743F3A124EF8DF60E9276","019cf4b4-876b-797d-83ca-27fc6f71ba06","019cf498-06e0-702e-b525-9cde1ad77653","","null","<div style=""background-color: white; width: 100vw; height: 100vh;""></div>","null","","","","","","","","",""
"","","","","","html-keyboard-response","164","499278","0.0-164.0","FDB2CAA820C743F3A124EF8DF60E9276","019cf4b4-876b-797d-83ca-27fc6f71ba06","019cf498-06e0-702e-b525-9cde1ad77653","","null","
                <div class=""stimulus-container"">
                    <img src=""images/schematic_sequence/flight_scheme/flight_scheme_1.png"" class=""exp-image"">
                    <div class=""question-area""></div> 
                </div>","null","","","","","","","","",""
"","","","","","html-button-response","165","499949","0.0-165.0","FDB2CAA820C743F3A124EF8DF60E9276","019cf4b4-876b-797d-83ca-27fc6f71ba06","019cf498-06e0-702e-b525-9cde1ad77653","","668","
                <div class=""stimulus-container"">
                    <img src=""images/schematic_sequence/flight_scheme/flight_scheme_1.png"" class=""exp-image"">
                    <div class=""question-area"">
                        <p style=""font-size: 20px; font-weight: bold; margin: 0;"">Is there a person in this image?</p>
                    </div>
                </div>","1","main_experiment_trial","1","flight_scheme","schematic_sequence","","","","",""
"","","","","","html-keyboard-response","166","504953","0.0-166.0","FDB2CAA820C743F3A124EF8DF60E9276","019cf4b4-876b-797d-83ca-27fc6f71ba06","019cf498-06e0-702e-b525-9cde1ad77653","","null","
                <div class=""stimulus-container"">
                    <img src=""images/schematic_sequence/flight_scheme/flight_scheme_2.png"" class=""exp-image"">
                    <div class=""question-area""></div> 
                </div>","null","","","","","","","","",""
"","","","","","html-button-response","167","505361","0.0-167.0","FDB2CAA820C743F3A124EF8DF60E9276","019cf4b4-876b-797d-83ca-27fc6f71ba06","019cf498-06e0-702e-b525-9cde1ad77653","","407","
                <div class=""stimulus-container"">
                    <img src=""images/schematic_sequence/flight_scheme/flight_scheme_2.png"" class=""exp-image"">
                    <div class=""question-area"">
                        <p style=""font-size: 20px; font-weight: bold; margin: 0;"">Is there a person in this image?</p>
                    </div>
                </div>","1","main_experiment_trial","2","flight_scheme","schematic_sequence","","","","",""
"","","","","","html-keyboard-response","168","510363","0.0-168.0","FDB2CAA820C743F3A124EF8DF60E9276","019cf4b4-876b-797d-83ca-27fc6f71ba06","019cf498-06e0-702e-b525-9cde1ad77653","","null","
                <div class=""stimulus-container"">
                    <img src=""images/schematic_sequence/flight_scheme/flight_scheme_3.png"" class=""exp-image"">
                    <div class=""question-area""></div> 
                </div>","null","","","","","","","","",""
"","","","","","html-button-response","169","511261","0.0-169.0","FDB2CAA820C743F3A124EF8DF60E9276","019cf4b4-876b-797d-83ca-27fc6f71ba06","019cf498-06e0-702e-b525-9cde1ad77653","","896","
                <div class=""stimulus-container"">
                    <img src=""images/schematic_sequence/flight_scheme/flight_scheme_3.png"" class=""exp-image"">
                    <div class=""question-area"">
                        <p style=""font-size: 20px; font-weight: bold; margin: 0;"">Is there a person in this image?</p>
                    </div>
                </div>","0","main_experiment_trial","3","flight_scheme","schematic_sequence","","","","",""
"","","","","","html-keyboard-response","170","516263","0.0-170.0","FDB2CAA820C743F3A124EF8DF60E9276","019cf4b4-876b-797d-83ca-27fc6f71ba06","019cf498-06e0-702e-b525-9cde1ad77653","","null","
                <div class=""stimulus-container"">
                    <img src=""images/schematic_sequence/flight_scheme/flight_scheme_4.png"" class=""exp-image"">
                    <div class=""question-area""></div> 
                </div>","null","","","","","","","","",""
"","","","","","html-button-response","171","516738","0.0-171.0","FDB2CAA820C743F3A124EF8DF60E9276","019cf4b4-876b-797d-83ca-27fc6f71ba06","019cf498-06e0-702e-b525-9cde1ad77653","","472","
                <div class=""stimulus-container"">
                    <img src=""images/schematic_sequence/flight_scheme/flight_scheme_4.png"" class=""exp-image"">
                    <div class=""question-area"">
                        <p style=""font-size: 20px; font-weight: bold; margin: 0;"">Is there a person in this image?</p>
                    </div>
                </div>","0","main_experiment_trial","4","flight_scheme","schematic_sequence","","","","",""
"","","","","","html-keyboard-response","172","521740","0.0-172.0","FDB2CAA820C743F3A124EF8DF60E9276","019cf4b4-876b-797d-83ca-27fc6f71ba06","019cf498-06e0-702e-b525-9cde1ad77653","","null","
                <div class=""stimulus-container"">
                    <img src=""images/schematic_sequence/flight_scheme/flight_scheme_5.png"" class=""exp-image"">
                    <div class=""question-area""></div> 
                </div>","null","","","","","","","","",""
"","","","","","html-button-response","173","522682","0.0-173.0","FDB2CAA820C743F3A124EF8DF60E9276","019cf4b4-876b-797d-83ca-27fc6f71ba06","019cf498-06e0-702e-b525-9cde1ad77653","","937","
                <div class=""stimulus-container"">
                    <img src=""images/schematic_sequence/flight_scheme/flight_scheme_5.png"" class=""exp-image"">
                    <div class=""question-area"">
                        <p style=""font-size: 20px; font-weight: bold; margin: 0;"">Is there a person in this image?</p>
                    </div>
                </div>","0","main_experiment_trial","5","flight_scheme","schematic_sequence","","","","",""
"","","","","","html-keyboard-response","174","527687","0.0-174.0","FDB2CAA820C743F3A124EF8DF60E9276","019cf4b4-876b-797d-83ca-27fc6f71ba06","019cf498-06e0-702e-b525-9cde1ad77653","","null","
                <div class=""stimulus-container"">
                    <img src=""images/schematic_sequence/flight_scheme/flight_scheme_6.png"" class=""exp-image"">
                    <div class=""question-area""></div> 
                </div>","null","","","","","","","","",""
"","","","","","html-button-response","175","529116","0.0-175.0","FDB2CAA820C743F3A124EF8DF60E9276","019cf4b4-876b-797d-83ca-27fc6f71ba06","019cf498-06e0-702e-b525-9cde1ad77653","","1427","
                <div class=""stimulus-container"">
                    <img src=""images/schematic_sequence/flight_scheme/flight_scheme_6.png"" class=""exp-image"">
                    <div class=""question-area"">
                        <p style=""font-size: 20px; font-weight: bold; margin: 0;"">Is there a person in this image?</p>
                    </div>
                </div>","1","main_experiment_trial","6","flight_scheme","schematic_sequence","","","","",""
"","","","","","html-keyboard-response","176","534117","0.0-176.0","FDB2CAA820C743F3A124EF8DF60E9276","019cf4b4-876b-797d-83ca-27fc6f71ba06","019cf498-06e0-702e-b525-9cde1ad77653","","null","
                <div class=""stimulus-container"">
                    <img src=""images/schematic_sequence/flight_scheme/flight_scheme_7.png"" class=""exp-image"">
                    <div class=""question-area""></div> 
                </div>","null","","","","","","","","",""
"","","","","","html-button-response","177","534665","0.0-177.0","FDB2CAA820C743F3A124EF8DF60E9276","019cf4b4-876b-797d-83ca-27fc6f71ba06","019cf498-06e0-702e-b525-9cde1ad77653","","545","
                <div class=""stimulus-container"">
                    <img src=""images/schematic_sequence/flight_scheme/flight_scheme_7.png"" class=""exp-image"">
                    <div class=""question-area"">
                        <p style=""font-size: 20px; font-weight: bold; margin: 0;"">Is there a person in this image?</p>
                    </div>
                </div>","1","main_experiment_trial","7","flight_scheme","schematic_sequence","","","","",""
"","","","","","html-keyboard-response","178","539668","0.0-178.0","FDB2CAA820C743F3A124EF8DF60E9276","019cf4b4-876b-797d-83ca-27fc6f71ba06","019cf498-06e0-702e-b525-9cde1ad77653","","null","
                <div class=""stimulus-container"">
                    <img src=""images/schematic_sequence/flight_scheme/flight_scheme_8.png"" class=""exp-image"">
                    <div class=""question-area""></div> 
                </div>","null","","","","","","","","",""
"","","","","","html-button-response","179","540140","0.0-179.0","FDB2CAA820C743F3A124EF8DF60E9276","019cf4b4-876b-797d-83ca-27fc6f71ba06","019cf498-06e0-702e-b525-9cde1ad77653","","468","
                <div class=""stimulus-container"">
                    <img src=""images/schematic_sequence/flight_scheme/flight_scheme_8.png"" class=""exp-image"">
                    <div class=""question-area"">
                        <p style=""font-size: 20px; font-weight: bold; margin: 0;"">Is there a person in this image?</p>
                    </div>
                </div>","1","main_experiment_trial","8","flight_scheme","schematic_sequence","","","","",""
"","","","","","html-keyboard-response","180","545144","0.0-180.0","FDB2CAA820C743F3A124EF8DF60E9276","019cf4b4-876b-797d-83ca-27fc6f71ba06","019cf498-06e0-702e-b525-9cde1ad77653","","null","
                <div class=""stimulus-container"">
                    <img src=""images/schematic_sequence/flight_scheme/flight_scheme_9.png"" class=""exp-image"">
                    <div class=""question-area""></div> 
                </div>","null","","","","","","","","",""
"","","","","","html-button-response","181","545694","0.0-181.0","FDB2CAA820C743F3A124EF8DF60E9276","019cf4b4-876b-797d-83ca-27fc6f71ba06","019cf498-06e0-702e-b525-9cde1ad77653","","548","
                <div class=""stimulus-container"">
                    <img src=""images/schematic_sequence/flight_scheme/flight_scheme_9.png"" class=""exp-image"">
                    <div class=""question-area"">
                        <p style=""font-size: 20px; font-weight: bold; margin: 0;"">Is there a person in this image?</p>
                    </div>
                </div>","0","main_experiment_trial","9","flight_scheme","schematic_sequence","","","","",""
"","","","","","html-keyboard-response","182","550695","0.0-182.0","FDB2CAA820C743F3A124EF8DF60E9276","019cf4b4-876b-797d-83ca-27fc6f71ba06","019cf498-06e0-702e-b525-9cde1ad77653","","null","
                <div class=""stimulus-container"">
                    <img src=""images/schematic_sequence/flight_scheme/flight_scheme_ten.png"" class=""exp-image"">
                    <div class=""question-area""></div> 
                </div>","null","","","","","","","","",""
"","","","","","html-button-response","183","551302","0.0-183.0","FDB2CAA820C743F3A124EF8DF60E9276","019cf4b4-876b-797d-83ca-27fc6f71ba06","019cf498-06e0-702e-b525-9cde1ad77653","","605","
                <div class=""stimulus-container"">
