"success","timeout","failed_images","failed_audio","failed_video","trial_type","trial_index","time_elapsed","internal_node_id","subject_id","study_id","session_id","view_history","rt","stimulus","response","task","image_index","folder","sequence_type","valuable_image_index","reward_type","correct_choice","chosen_image_index","target_X"
"true","false","[]","[]","[]","preload","0","6108","0.0-0.0","63135C957B8C43F1A29D919C84B65DE4","019cf79b-235f-7a0e-b720-21a6504418f0","019cf78c-cfcf-769c-9016-9b96552b5e33","","","","","","","","","","","","",""
"","","","","","instructions","1","20799","0.0-1.0","63135C957B8C43F1A29D919C84B65DE4","019cf79b-235f-7a0e-b720-21a6504418f0","019cf78c-cfcf-769c-9016-9b96552b5e33","[{""page_index"":0,""viewing_time"":14690}]","14691","","","","","","","","","","",""
"","","","","","instructions","2","23549","0.0-2.0","63135C957B8C43F1A29D919C84B65DE4","019cf79b-235f-7a0e-b720-21a6504418f0","019cf78c-cfcf-769c-9016-9b96552b5e33","[{""page_index"":0,""viewing_time"":2750}]","2750","","","","","","","","","","",""
"true","","","","","fullscreen","3","25952","0.0-3.0","63135C957B8C43F1A29D919C84B65DE4","019cf79b-235f-7a0e-b720-21a6504418f0","019cf78c-cfcf-769c-9016-9b96552b5e33","","1398","","","","","","","","","","",""
"","","","","","instructions","4","38717","0.0-4.0","63135C957B8C43F1A29D919C84B65DE4","019cf79b-235f-7a0e-b720-21a6504418f0","019cf78c-cfcf-769c-9016-9b96552b5e33","[{""page_index"":0,""viewing_time"":12764}]","12764","","","","","","","","","","",""
"","","","","","instructions","5","40880","0.0-5.0","63135C957B8C43F1A29D919C84B65DE4","019cf79b-235f-7a0e-b720-21a6504418f0","019cf78c-cfcf-769c-9016-9b96552b5e33","[{""page_index"":0,""viewing_time"":2162}]","2162","","","","","","","","","","",""
"","","","","","html-keyboard-response","6","44882","0.0-6.0","63135C957B8C43F1A29D919C84B65DE4","019cf79b-235f-7a0e-b720-21a6504418f0","019cf78c-cfcf-769c-9016-9b96552b5e33","","null","
                <div class=""stimulus-container"">
                    <img src=""images/instructions/movie_1.png"" class=""exp-image"">
                    <div class=""question-area""></div> 
                </div>","null","","","","","","","","",""
"","","","","","html-button-response","7","47886","0.0-7.0","63135C957B8C43F1A29D919C84B65DE4","019cf79b-235f-7a0e-b720-21a6504418f0","019cf78c-cfcf-769c-9016-9b96552b5e33","","null","
                <div class=""stimulus-container"">
                    <img src=""images/instructions/movie_1.png"" class=""exp-image"">
                    <div class=""question-area"">
                        <p style=""font-size: 20px; font-weight: bold; margin: 0;"">Was there a person in this image?</p>
                    </div>
                </div>","null","example_question","1","","","","","","",""
"","","","","","html-keyboard-response","8","51888","0.0-8.0","63135C957B8C43F1A29D919C84B65DE4","019cf79b-235f-7a0e-b720-21a6504418f0","019cf78c-cfcf-769c-9016-9b96552b5e33","","null","
                <div class=""stimulus-container"">
                    <img src=""images/instructions/movie_2.png"" class=""exp-image"">
                    <div class=""question-area""></div> 
                </div>","null","","","","","","","","",""
"","","","","","html-button-response","9","53518","0.0-9.0","63135C957B8C43F1A29D919C84B65DE4","019cf79b-235f-7a0e-b720-21a6504418f0","019cf78c-cfcf-769c-9016-9b96552b5e33","","1628","
                <div class=""stimulus-container"">
                    <img src=""images/instructions/movie_2.png"" class=""exp-image"">
                    <div class=""question-area"">
                        <p style=""font-size: 20px; font-weight: bold; margin: 0;"">Was there a person in this image?</p>
                    </div>
                </div>","0","example_question","2","","","","","","",""
"","","","","","html-keyboard-response","10","57521","0.0-10.0","63135C957B8C43F1A29D919C84B65DE4","019cf79b-235f-7a0e-b720-21a6504418f0","019cf78c-cfcf-769c-9016-9b96552b5e33","","null","
                <div class=""stimulus-container"">
                    <img src=""images/instructions/movie_3.png"" class=""exp-image"">
                    <div class=""question-area""></div> 
                </div>","null","","","","","","","","",""
"","","","","","html-button-response","11","58535","0.0-11.0","63135C957B8C43F1A29D919C84B65DE4","019cf79b-235f-7a0e-b720-21a6504418f0","019cf78c-cfcf-769c-9016-9b96552b5e33","","1012","
                <div class=""stimulus-container"">
                    <img src=""images/instructions/movie_3.png"" class=""exp-image"">
                    <div class=""question-area"">
                        <p style=""font-size: 20px; font-weight: bold; margin: 0;"">Was there a person in this image?</p>
                    </div>
                </div>","0","example_question","3","","","","","","",""
"","","","","","html-keyboard-response","12","62538","0.0-12.0","63135C957B8C43F1A29D919C84B65DE4","019cf79b-235f-7a0e-b720-21a6504418f0","019cf78c-cfcf-769c-9016-9b96552b5e33","","null","
                <div class=""stimulus-container"">
                    <img src=""images/instructions/movie_4.png"" class=""exp-image"">
                    <div class=""question-area""></div> 
                </div>","null","","","","","","","","",""
"","","","","","html-button-response","13","64167","0.0-13.0","63135C957B8C43F1A29D919C84B65DE4","019cf79b-235f-7a0e-b720-21a6504418f0","019cf78c-cfcf-769c-9016-9b96552b5e33","","1628","
                <div class=""stimulus-container"">
                    <img src=""images/instructions/movie_4.png"" class=""exp-image"">
                    <div class=""question-area"">
                        <p style=""font-size: 20px; font-weight: bold; margin: 0;"">Was there a person in this image?</p>
                    </div>
                </div>","0","example_question","4","","","","","","",""
"","","","","","instructions","14","65749","0.0-14.0","63135C957B8C43F1A29D919C84B65DE4","019cf79b-235f-7a0e-b720-21a6504418f0","019cf78c-cfcf-769c-9016-9b96552b5e33","[{""page_index"":0,""viewing_time"":1580}]","1581","","","","","","","","","","",""
"","","","","","instructions","15","69533","0.0-15.0","63135C957B8C43F1A29D919C84B65DE4","019cf79b-235f-7a0e-b720-21a6504418f0","019cf78c-cfcf-769c-9016-9b96552b5e33","[{""page_index"":0,""viewing_time"":3783}]","3784","","","","","","","","","","",""
"","","","","","html-keyboard-response","16","70536","0.0-16.0","63135C957B8C43F1A29D919C84B65DE4","019cf79b-235f-7a0e-b720-21a6504418f0","019cf78c-cfcf-769c-9016-9b96552b5e33","","null","<div style=""background-color: white; width: 100vw; height: 100vh;""></div>","null","","","","","","","","",""
"","","","","","html-keyboard-response","17","75539","0.0-17.0","63135C957B8C43F1A29D919C84B65DE4","019cf79b-235f-7a0e-b720-21a6504418f0","019cf78c-cfcf-769c-9016-9b96552b5e33","","null","
                <div class=""stimulus-container"">
                    <img src=""images/schematic_sequence/restaurant_scheme/restaurant_scheme_1.png"" class=""exp-image"">
                    <div class=""question-area""></div> 
                </div>","null","","","","","","","","",""
"","","","","","html-button-response","18","76533","0.0-18.0","63135C957B8C43F1A29D919C84B65DE4","019cf79b-235f-7a0e-b720-21a6504418f0","019cf78c-cfcf-769c-9016-9b96552b5e33","","992","
                <div class=""stimulus-container"">
                    <img src=""images/schematic_sequence/restaurant_scheme/restaurant_scheme_1.png"" class=""exp-image"">
                    <div class=""question-area"">
                        <p style=""font-size: 20px; font-weight: bold; margin: 0;"">Is there a person in this image?</p>
                    </div>
                </div>","0","main_experiment_trial","1","restaurant_scheme","schematic_sequence","","","","",""
"","","","","","html-keyboard-response","19","81535","0.0-19.0","63135C957B8C43F1A29D919C84B65DE4","019cf79b-235f-7a0e-b720-21a6504418f0","019cf78c-cfcf-769c-9016-9b96552b5e33","","null","
                <div class=""stimulus-container"">
                    <img src=""images/schematic_sequence/restaurant_scheme/restaurant_scheme_2.png"" class=""exp-image"">
                    <div class=""question-area""></div> 
                </div>","null","","","","","","","","",""
"","","","","","html-button-response","20","83331","0.0-20.0","63135C957B8C43F1A29D919C84B65DE4","019cf79b-235f-7a0e-b720-21a6504418f0","019cf78c-cfcf-769c-9016-9b96552b5e33","","1795","
                <div class=""stimulus-container"">
                    <img src=""images/schematic_sequence/restaurant_scheme/restaurant_scheme_2.png"" class=""exp-image"">
                    <div class=""question-area"">
                        <p style=""font-size: 20px; font-weight: bold; margin: 0;"">Is there a person in this image?</p>
                    </div>
                </div>","1","main_experiment_trial","2","restaurant_scheme","schematic_sequence","","","","",""
"","","","","","html-keyboard-response","21","88334","0.0-21.0","63135C957B8C43F1A29D919C84B65DE4","019cf79b-235f-7a0e-b720-21a6504418f0","019cf78c-cfcf-769c-9016-9b96552b5e33","","null","
                <div class=""stimulus-container"">
                    <img src=""images/schematic_sequence/restaurant_scheme/restaurant_scheme_3.png"" class=""exp-image"">
                    <div class=""question-area""></div> 
                </div>","null","","","","","","","","",""
"","","","","","html-button-response","22","89366","0.0-22.0","63135C957B8C43F1A29D919C84B65DE4","019cf79b-235f-7a0e-b720-21a6504418f0","019cf78c-cfcf-769c-9016-9b96552b5e33","","1026","
                <div class=""stimulus-container"">
                    <img src=""images/schematic_sequence/restaurant_scheme/restaurant_scheme_3.png"" class=""exp-image"">
                    <div class=""question-area"">
                        <p style=""font-size: 20px; font-weight: bold; margin: 0;"">Is there a person in this image?</p>
                    </div>
                </div>","1","main_experiment_trial","3","restaurant_scheme","schematic_sequence","","","","",""
"","","","","","html-keyboard-response","23","94367","0.0-23.0","63135C957B8C43F1A29D919C84B65DE4","019cf79b-235f-7a0e-b720-21a6504418f0","019cf78c-cfcf-769c-9016-9b96552b5e33","","null","
                <div class=""stimulus-container"">
                    <img src=""images/schematic_sequence/restaurant_scheme/restaurant_scheme_4.png"" class=""exp-image"">
                    <div class=""question-area""></div> 
                </div>","null","","","","","","","","",""
"","","","","","html-button-response","24","95317","0.0-24.0","63135C957B8C43F1A29D919C84B65DE4","019cf79b-235f-7a0e-b720-21a6504418f0","019cf78c-cfcf-769c-9016-9b96552b5e33","","948","
                <div class=""stimulus-container"">
                    <img src=""images/schematic_sequence/restaurant_scheme/restaurant_scheme_4.png"" class=""exp-image"">
                    <div class=""question-area"">
                        <p style=""font-size: 20px; font-weight: bold; margin: 0;"">Is there a person in this image?</p>
                    </div>
                </div>","0","main_experiment_trial","4","restaurant_scheme","schematic_sequence","","","","",""
"","","","","","html-keyboard-response","25","100319","0.0-25.0","63135C957B8C43F1A29D919C84B65DE4","019cf79b-235f-7a0e-b720-21a6504418f0","019cf78c-cfcf-769c-9016-9b96552b5e33","","null","
                <div class=""stimulus-container"">
                    <img src=""images/schematic_sequence/restaurant_scheme/restaurant_scheme_5.png"" class=""exp-image"">
                    <div class=""question-area""></div> 
                </div>","null","","","","","","","","",""
"","","","","","html-button-response","26","101750","0.0-26.0","63135C957B8C43F1A29D919C84B65DE4","019cf79b-235f-7a0e-b720-21a6504418f0","019cf78c-cfcf-769c-9016-9b96552b5e33","","1430","
                <div class=""stimulus-container"">
                    <img src=""images/schematic_sequence/restaurant_scheme/restaurant_scheme_5.png"" class=""exp-image"">
                    <div class=""question-area"">
                        <p style=""font-size: 20px; font-weight: bold; margin: 0;"">Is there a person in this image?</p>
                    </div>
                </div>","0","main_experiment_trial","5","restaurant_scheme","schematic_sequence","","","","",""
"","","","","","html-keyboard-response","27","106753","0.0-27.0","63135C957B8C43F1A29D919C84B65DE4","019cf79b-235f-7a0e-b720-21a6504418f0","019cf78c-cfcf-769c-9016-9b96552b5e33","","null","
                <div class=""stimulus-container"">
                    <img src=""images/schematic_sequence/restaurant_scheme/restaurant_scheme_6.png"" class=""exp-image"">
                    <div class=""question-area""></div> 
                </div>","null","","","","","","","","",""
"","","","","","html-button-response","28","107451","0.0-28.0","63135C957B8C43F1A29D919C84B65DE4","019cf79b-235f-7a0e-b720-21a6504418f0","019cf78c-cfcf-769c-9016-9b96552b5e33","","696","
                <div class=""stimulus-container"">
                    <img src=""images/schematic_sequence/restaurant_scheme/restaurant_scheme_6.png"" class=""exp-image"">
                    <div class=""question-area"">
                        <p style=""font-size: 20px; font-weight: bold; margin: 0;"">Is there a person in this image?</p>
                    </div>
                </div>","1","main_experiment_trial","6","restaurant_scheme","schematic_sequence","","","","",""
"","","","","","html-keyboard-response","29","112454","0.0-29.0","63135C957B8C43F1A29D919C84B65DE4","019cf79b-235f-7a0e-b720-21a6504418f0","019cf78c-cfcf-769c-9016-9b96552b5e33","","null","
                <div class=""stimulus-container"">
                    <img src=""images/schematic_sequence/restaurant_scheme/restaurant_scheme_7.png"" class=""exp-image"">
                    <div class=""question-area""></div> 
                </div>","null","","","","","","","","",""
"","","","","","html-button-response","30","113452","0.0-30.0","63135C957B8C43F1A29D919C84B65DE4","019cf79b-235f-7a0e-b720-21a6504418f0","019cf78c-cfcf-769c-9016-9b96552b5e33","","996","
                <div class=""stimulus-container"">
                    <img src=""images/schematic_sequence/restaurant_scheme/restaurant_scheme_7.png"" class=""exp-image"">
                    <div class=""question-area"">
                        <p style=""font-size: 20px; font-weight: bold; margin: 0;"">Is there a person in this image?</p>
                    </div>
                </div>","1","main_experiment_trial","7","restaurant_scheme","schematic_sequence","","","","",""
"","","","","","html-keyboard-response","31","118454","0.0-31.0","63135C957B8C43F1A29D919C84B65DE4","019cf79b-235f-7a0e-b720-21a6504418f0","019cf78c-cfcf-769c-9016-9b96552b5e33","","null","
                <div class=""stimulus-container"">
                    <img src=""images/schematic_sequence/restaurant_scheme/restaurant_scheme_8.png"" class=""exp-image"">
                    <div class=""question-area""></div> 
                </div>","null","","","","","","","","",""
"","","","","","html-button-response","32","119550","0.0-32.0","63135C957B8C43F1A29D919C84B65DE4","019cf79b-235f-7a0e-b720-21a6504418f0","019cf78c-cfcf-769c-9016-9b96552b5e33","","1095","
                <div class=""stimulus-container"">
                    <img src=""images/schematic_sequence/restaurant_scheme/restaurant_scheme_8.png"" class=""exp-image"">
                    <div class=""question-area"">
                        <p style=""font-size: 20px; font-weight: bold; margin: 0;"">Is there a person in this image?</p>
                    </div>
                </div>","0","main_experiment_trial","8","restaurant_scheme","schematic_sequence","","","","",""
"","","","","","html-keyboard-response","33","124553","0.0-33.0","63135C957B8C43F1A29D919C84B65DE4","019cf79b-235f-7a0e-b720-21a6504418f0","019cf78c-cfcf-769c-9016-9b96552b5e33","","null","
                <div class=""stimulus-container"">
                    <img src=""images/schematic_sequence/restaurant_scheme/restaurant_scheme_9.png"" class=""exp-image"">
                    <div class=""question-area""></div> 
                </div>","null","","","","","","","","",""
"","","","","","html-button-response","34","125718","0.0-34.0","63135C957B8C43F1A29D919C84B65DE4","019cf79b-235f-7a0e-b720-21a6504418f0","019cf78c-cfcf-769c-9016-9b96552b5e33","","1163","
                <div class=""stimulus-container"">
                    <img src=""images/schematic_sequence/restaurant_scheme/restaurant_scheme_9.png"" class=""exp-image"">
                    <div class=""question-area"">
                        <p style=""font-size: 20px; font-weight: bold; margin: 0;"">Is there a person in this image?</p>
                    </div>
                </div>","0","main_experiment_trial","9","restaurant_scheme","schematic_sequence","","","","",""
"","","","","","html-keyboard-response","35","130721","0.0-35.0","63135C957B8C43F1A29D919C84B65DE4","019cf79b-235f-7a0e-b720-21a6504418f0","019cf78c-cfcf-769c-9016-9b96552b5e33","","null","
                <div class=""stimulus-container"">
                    <img src=""images/schematic_sequence/restaurant_scheme/restaurant_scheme_ten.png"" class=""exp-image"">
                    <div class=""question-area""></div> 
                </div>","null","","","","","","","","",""
"","","","","","html-button-response","36","131684","0.0-36.0","63135C957B8C43F1A29D919C84B65DE4","019cf79b-235f-7a0e-b720-21a6504418f0","019cf78c-cfcf-769c-9016-9b96552b5e33","","962","
                <div class=""stimulus-container"">
                    <img src=""images/schematic_sequence/restaurant_scheme/restaurant_scheme_ten.png"" class=""exp-image"">
                    <div class=""question-area"">
                        <p style=""font-size: 20px; font-weight: bold; margin: 0;"">Is there a person in this image?</p>
                    </div>
                </div>","0","main_experiment_trial","ten","restaurant_scheme","schematic_sequence","","","","",""
"","","","","","html-keyboard-response","37","132686","0.0-37.0","63135C957B8C43F1A29D919C84B65DE4","019cf79b-235f-7a0e-b720-21a6504418f0","019cf78c-cfcf-769c-9016-9b96552b5e33","","null","<div style=""background-color: white; width: 100vw; height: 100vh;""></div>","null","","","","","","","","",""
"","","","","","html-keyboard-response","38","137688","0.0-38.0","63135C957B8C43F1A29D919C84B65DE4","019cf79b-235f-7a0e-b720-21a6504418f0","019cf78c-cfcf-769c-9016-9b96552b5e33","","null","
                <div class=""stimulus-container"">
                    <img src=""images/schematic_sequence/flight_scheme/flight_scheme_1.png"" class=""exp-image"">
                    <div class=""question-area""></div> 
                </div>","null","","","","","","","","",""
"","","","","","html-button-response","39","138551","0.0-39.0","63135C957B8C43F1A29D919C84B65DE4","019cf79b-235f-7a0e-b720-21a6504418f0","019cf78c-cfcf-769c-9016-9b96552b5e33","","861","
                <div class=""stimulus-container"">
                    <img src=""images/schematic_sequence/flight_scheme/flight_scheme_1.png"" class=""exp-image"">
                    <div class=""question-area"">
                        <p style=""font-size: 20px; font-weight: bold; margin: 0;"">Is there a person in this image?</p>
                    </div>
                </div>","0","main_experiment_trial","1","flight_scheme","schematic_sequence","","","","",""
"","","","","","html-keyboard-response","40","143554","0.0-40.0","63135C957B8C43F1A29D919C84B65DE4","019cf79b-235f-7a0e-b720-21a6504418f0","019cf78c-cfcf-769c-9016-9b96552b5e33","","null","
                <div class=""stimulus-container"">
                    <img src=""images/schematic_sequence/flight_scheme/flight_scheme_2.png"" class=""exp-image"">
                    <div class=""question-area""></div> 
                </div>","null","","","","","","","","",""
"","","","","","html-button-response","41","144933","0.0-41.0","63135C957B8C43F1A29D919C84B65DE4","019cf79b-235f-7a0e-b720-21a6504418f0","019cf78c-cfcf-769c-9016-9b96552b5e33","","1378","
                <div class=""stimulus-container"">
                    <img src=""images/schematic_sequence/flight_scheme/flight_scheme_2.png"" class=""exp-image"">
                    <div class=""question-area"">
                        <p style=""font-size: 20px; font-weight: bold; margin: 0;"">Is there a person in this image?</p>
                    </div>
                </div>","1","main_experiment_trial","2","flight_scheme","schematic_sequence","","","","",""
"","","","","","html-keyboard-response","42","149935","0.0-42.0","63135C957B8C43F1A29D919C84B65DE4","019cf79b-235f-7a0e-b720-21a6504418f0","019cf78c-cfcf-769c-9016-9b96552b5e33","","null","
                <div class=""stimulus-container"">
                    <img src=""images/schematic_sequence/flight_scheme/flight_scheme_3.png"" class=""exp-image"">
                    <div class=""question-area""></div> 
                </div>","null","","","","","","","","",""
"","","","","","html-button-response","43","150883","0.0-43.0","63135C957B8C43F1A29D919C84B65DE4","019cf79b-235f-7a0e-b720-21a6504418f0","019cf78c-cfcf-769c-9016-9b96552b5e33","","946","
                <div class=""stimulus-container"">
                    <img src=""images/schematic_sequence/flight_scheme/flight_scheme_3.png"" class=""exp-image"">
                    <div class=""question-area"">
                        <p style=""font-size: 20px; font-weight: bold; margin: 0;"">Is there a person in this image?</p>
                    </div>
                </div>","0","main_experiment_trial","3","flight_scheme","schematic_sequence","","","","",""
"","","","","","html-keyboard-response","44","155884","0.0-44.0","63135C957B8C43F1A29D919C84B65DE4","019cf79b-235f-7a0e-b720-21a6504418f0","019cf78c-cfcf-769c-9016-9b96552b5e33","","null","
                <div class=""stimulus-container"">
                    <img src=""images/schematic_sequence/flight_scheme/flight_scheme_4.png"" class=""exp-image"">
                    <div class=""question-area""></div> 
                </div>","null","","","","","","","","",""
"","","","","","html-button-response","45","156549","0.0-45.0","63135C957B8C43F1A29D919C84B65DE4","019cf79b-235f-7a0e-b720-21a6504418f0","019cf78c-cfcf-769c-9016-9b96552b5e33","","664","
                <div class=""stimulus-container"">
                    <img src=""images/schematic_sequence/flight_scheme/flight_scheme_4.png"" class=""exp-image"">
                    <div class=""question-area"">
                        <p style=""font-size: 20px; font-weight: bold; margin: 0;"">Is there a person in this image?</p>
                    </div>
                </div>","0","main_experiment_trial","4","flight_scheme","schematic_sequence","","","","",""
"","","","","","html-keyboard-response","46","161552","0.0-46.0","63135C957B8C43F1A29D919C84B65DE4","019cf79b-235f-7a0e-b720-21a6504418f0","019cf78c-cfcf-769c-9016-9b96552b5e33","","null","
                <div class=""stimulus-container"">
                    <img src=""images/schematic_sequence/flight_scheme/flight_scheme_5.png"" class=""exp-image"">
                    <div class=""question-area""></div> 
                </div>","null","","","","","","","","",""
"","","","","","html-button-response","47","163285","0.0-47.0","63135C957B8C43F1A29D919C84B65DE4","019cf79b-235f-7a0e-b720-21a6504418f0","019cf78c-cfcf-769c-9016-9b96552b5e33","","1732","
                <div class=""stimulus-container"">
                    <img src=""images/schematic_sequence/flight_scheme/flight_scheme_5.png"" class=""exp-image"">
                    <div class=""question-area"">
                        <p style=""font-size: 20px; font-weight: bold; margin: 0;"">Is there a person in this image?</p>
                    </div>
                </div>","0","main_experiment_trial","5","flight_scheme","schematic_sequence","","","","",""
"","","","","","html-keyboard-response","48","168288","0.0-48.0","63135C957B8C43F1A29D919C84B65DE4","019cf79b-235f-7a0e-b720-21a6504418f0","019cf78c-cfcf-769c-9016-9b96552b5e33","","null","
                <div class=""stimulus-container"">
                    <img src=""images/schematic_sequence/flight_scheme/flight_scheme_6.png"" class=""exp-image"">
                    <div class=""question-area""></div> 
                </div>","null","","","","","","","","",""
"","","","","","html-button-response","49","169667","0.0-49.0","63135C957B8C43F1A29D919C84B65DE4","019cf79b-235f-7a0e-b720-21a6504418f0","019cf78c-cfcf-769c-9016-9b96552b5e33","","1377","
                <div class=""stimulus-container"">
                    <img src=""images/schematic_sequence/flight_scheme/flight_scheme_6.png"" class=""exp-image"">
                    <div class=""question-area"">
                        <p style=""font-size: 20px; font-weight: bold; margin: 0;"">Is there a person in this image?</p>
                    </div>
                </div>","1","main_experiment_trial","6","flight_scheme","schematic_sequence","","","","",""
"","","","","","html-keyboard-response","50","174670","0.0-50.0","63135C957B8C43F1A29D919C84B65DE4","019cf79b-235f-7a0e-b720-21a6504418f0","019cf78c-cfcf-769c-9016-9b96552b5e33","","null","
                <div class=""stimulus-container"">
                    <img src=""images/schematic_sequence/flight_scheme/flight_scheme_7.png"" class=""exp-image"">
                    <div class=""question-area""></div> 
                </div>","null","","","","","","","","",""
"","","","","","html-button-response","51","175803","0.0-51.0","63135C957B8C43F1A29D919C84B65DE4","019cf79b-235f-7a0e-b720-21a6504418f0","019cf78c-cfcf-769c-9016-9b96552b5e33","","1131","
                <div class=""stimulus-container"">
                    <img src=""images/schematic_sequence/flight_scheme/flight_scheme_7.png"" class=""exp-image"">
                    <div class=""question-area"">
                        <p style=""font-size: 20px; font-weight: bold; margin: 0;"">Is there a person in this image?</p>
                    </div>
                </div>","0","main_experiment_trial","7","flight_scheme","schematic_sequence","","","","",""
"","","","","","html-keyboard-response","52","180804","0.0-52.0","63135C957B8C43F1A29D919C84B65DE4","019cf79b-235f-7a0e-b720-21a6504418f0","019cf78c-cfcf-769c-9016-9b96552b5e33","","null","
                <div class=""stimulus-container"">
                    <img src=""images/schematic_sequence/flight_scheme/flight_scheme_8.png"" class=""exp-image"">
                    <div class=""question-area""></div> 
                </div>","null","","","","","","","","",""
"","","","","","html-button-response","53","181668","0.0-53.0","63135C957B8C43F1A29D919C84B65DE4","019cf79b-235f-7a0e-b720-21a6504418f0","019cf78c-cfcf-769c-9016-9b96552b5e33","","862","
                <div class=""stimulus-container"">
                    <img src=""images/schematic_sequence/flight_scheme/flight_scheme_8.png"" class=""exp-image"">
                    <div class=""question-area"">
                        <p style=""font-size: 20px; font-weight: bold; margin: 0;"">Is there a person in this image?</p>
                    </div>
                </div>","1","main_experiment_trial","8","flight_scheme","schematic_sequence","","","","",""
"","","","","","html-keyboard-response","54","186670","0.0-54.0","63135C957B8C43F1A29D919C84B65DE4","019cf79b-235f-7a0e-b720-21a6504418f0","019cf78c-cfcf-769c-9016-9b96552b5e33","","null","
                <div class=""stimulus-container"">
                    <img src=""images/schematic_sequence/flight_scheme/flight_scheme_9.png"" class=""exp-image"">
                    <div class=""question-area""></div> 
                </div>","null","","","","","","","","",""
"","","","","","html-button-response","55","187668","0.0-55.0","63135C957B8C43F1A29D919C84B65DE4","019cf79b-235f-7a0e-b720-21a6504418f0","019cf78c-cfcf-769c-9016-9b96552b5e33","","996","
                <div class=""stimulus-container"">
                    <img src=""images/schematic_sequence/flight_scheme/flight_scheme_9.png"" class=""exp-image"">
                    <div class=""question-area"">
                        <p style=""font-size: 20px; font-weight: bold; margin: 0;"">Is there a person in this image?</p>
                    </div>
                </div>","0","main_experiment_trial","9","flight_scheme","schematic_sequence","","","","",""
"","","","","","html-keyboard-response","56","192671","0.0-56.0","63135C957B8C43F1A29D919C84B65DE4","019cf79b-235f-7a0e-b720-21a6504418f0","019cf78c-cfcf-769c-9016-9b96552b5e33","","null","
                <div class=""stimulus-container"">
                    <img src=""images/schematic_sequence/flight_scheme/flight_scheme_ten.png"" class=""exp-image"">
                    <div class=""question-area""></div> 
                </div>","null","","","","","","","","",""
"","","","","","html-button-response","57","194450","0.0-57.0","63135C957B8C43F1A29D919C84B65DE4","019cf79b-235f-7a0e-b720-21a6504418f0","019cf78c-cfcf-769c-9016-9b96552b5e33","","1777","
                <div class=""stimulus-container"">
                    <img src=""images/schematic_sequence/flight_scheme/flight_scheme_ten.png"" class=""exp-image"">
                    <div class=""question-area"">
                        <p style=""font-size: 20px; font-weight: bold; margin: 0;"">Is there a person in this image?</p>
                    </div>
                </div>","0","main_experiment_trial","ten","flight_scheme","schematic_sequence","","","","",""
"","","","","","html-keyboard-response","58","195452","0.0-58.0","63135C957B8C43F1A29D919C84B65DE4","019cf79b-235f-7a0e-b720-21a6504418f0","019cf78c-cfcf-769c-9016-9b96552b5e33","","null","<div style=""background-color: white; width: 100vw; height: 100vh;""></div>","null","","","","","","","","",""
"","","","","","html-keyboard-response","59","200454","0.0-59.0","63135C957B8C43F1A29D919C84B65DE4","019cf79b-235f-7a0e-b720-21a6504418f0","019cf78c-cfcf-769c-9016-9b96552b5e33","","null","
                <div class=""stimulus-container"">
                    <img src=""images/schematic_sequence/dinner_party_scheme/dinner_party_scheme_1.png"" class=""exp-image"">
                    <div class=""question-area""></div> 
                </div>","null","","","","","","","","",""
"","","","","","html-button-response","60","201452","0.0-60.0","63135C957B8C43F1A29D919C84B65DE4","019cf79b-235f-7a0e-b720-21a6504418f0","019cf78c-cfcf-769c-9016-9b96552b5e33","","996","
                <div class=""stimulus-container"">
                    <img src=""images/schematic_sequence/dinner_party_scheme/dinner_party_scheme_1.png"" class=""exp-image"">
                    <div class=""question-area"">
                        <p style=""font-size: 20px; font-weight: bold; margin: 0;"">Is there a person in this image?</p>
                    </div>
                </div>","0","main_experiment_trial","1","dinner_party_scheme","schematic_sequence","","","","",""
"","","","","","html-keyboard-response","61","206454","0.0-61.0","63135C957B8C43F1A29D919C84B65DE4","019cf79b-235f-7a0e-b720-21a6504418f0","019cf78c-cfcf-769c-9016-9b96552b5e33","","null","
                <div class=""stimulus-container"">
                    <img src=""images/schematic_sequence/dinner_party_scheme/dinner_party_scheme_2.png"" class=""exp-image"">
                    <div class=""question-area""></div> 
                </div>","null","","","","","","","","",""
"","","","","","html-button-response","62","209184","0.0-62.0","63135C957B8C43F1A29D919C84B65DE4","019cf79b-235f-7a0e-b720-21a6504418f0","019cf78c-cfcf-769c-9016-9b96552b5e33","","2729","
                <div class=""stimulus-container"">
                    <img src=""images/schematic_sequence/dinner_party_scheme/dinner_party_scheme_2.png"" class=""exp-image"">
                    <div class=""question-area"">
                        <p style=""font-size: 20px; font-weight: bold; margin: 0;"">Is there a person in this image?</p>
                    </div>
                </div>","0","main_experiment_trial","2","dinner_party_scheme","schematic_sequence","","","","",""
"","","","","","html-keyboard-response","63","214186","0.0-63.0","63135C957B8C43F1A29D919C84B65DE4","019cf79b-235f-7a0e-b720-21a6504418f0","019cf78c-cfcf-769c-9016-9b96552b5e33","","null","
                <div class=""stimulus-container"">
                    <img src=""images/schematic_sequence/dinner_party_scheme/dinner_party_scheme_3.png"" class=""exp-image"">
                    <div class=""question-area""></div> 
                </div>","null","","","","","","","","",""
"","","","","","html-button-response","64","215953","0.0-64.0","63135C957B8C43F1A29D919C84B65DE4","019cf79b-235f-7a0e-b720-21a6504418f0","019cf78c-cfcf-769c-9016-9b96552b5e33","","1765","
                <div class=""stimulus-container"">
                    <img src=""images/schematic_sequence/dinner_party_scheme/dinner_party_scheme_3.png"" class=""exp-image"">
                    <div class=""question-area"">
                        <p style=""font-size: 20px; font-weight: bold; margin: 0;"">Is there a person in this image?</p>
                    </div>
                </div>","0","main_experiment_trial","3","dinner_party_scheme","schematic_sequence","","","","",""
"","","","","","html-keyboard-response","65","220956","0.0-65.0","63135C957B8C43F1A29D919C84B65DE4","019cf79b-235f-7a0e-b720-21a6504418f0","019cf78c-cfcf-769c-9016-9b96552b5e33","","null","
                <div class=""stimulus-container"">
                    <img src=""images/schematic_sequence/dinner_party_scheme/dinner_party_scheme_4.png"" class=""exp-image"">
                    <div class=""question-area""></div> 
                </div>","null","","","","","","","","",""
"","","","","","html-button-response","66","222219","0.0-66.0","63135C957B8C43F1A29D919C84B65DE4","019cf79b-235f-7a0e-b720-21a6504418f0","019cf78c-cfcf-769c-9016-9b96552b5e33","","1260","
                <div class=""stimulus-container"">
                    <img src=""images/schematic_sequence/dinner_party_scheme/dinner_party_scheme_4.png"" class=""exp-image"">
                    <div class=""question-area"">
                        <p style=""font-size: 20px; font-weight: bold; margin: 0;"">Is there a person in this image?</p>
                    </div>
                </div>","0","main_experiment_trial","4","dinner_party_scheme","schematic_sequence","","","","",""
"","","","","","html-keyboard-response","67","227222","0.0-67.0","63135C957B8C43F1A29D919C84B65DE4","019cf79b-235f-7a0e-b720-21a6504418f0","019cf78c-cfcf-769c-9016-9b96552b5e33","","null","
                <div class=""stimulus-container"">
                    <img src=""images/schematic_sequence/dinner_party_scheme/dinner_party_scheme_5.png"" class=""exp-image"">
                    <div class=""question-area""></div> 
                </div>","null","","","","","","","","",""
"","","","","","html-button-response","68","228185","0.0-68.0","63135C957B8C43F1A29D919C84B65DE4","019cf79b-235f-7a0e-b720-21a6504418f0","019cf78c-cfcf-769c-9016-9b96552b5e33","","962","
                <div class=""stimulus-container"">
                    <img src=""images/schematic_sequence/dinner_party_scheme/dinner_party_scheme_5.png"" class=""exp-image"">
                    <div class=""question-area"">
                        <p style=""font-size: 20px; font-weight: bold; margin: 0;"">Is there a person in this image?</p>
                    </div>
                </div>","0","main_experiment_trial","5","dinner_party_scheme","schematic_sequence","","","","",""
"","","","","","html-keyboard-response","69","233189","0.0-69.0","63135C957B8C43F1A29D919C84B65DE4","019cf79b-235f-7a0e-b720-21a6504418f0","019cf78c-cfcf-769c-9016-9b96552b5e33","","null","
                <div class=""stimulus-container"">
                    <img src=""images/schematic_sequence/dinner_party_scheme/dinner_party_scheme_6.png"" class=""exp-image"">
                    <div class=""question-area""></div> 
                </div>","null","","","","","","","","",""
"","","","","","html-button-response","70","233985","0.0-70.0","63135C957B8C43F1A29D919C84B65DE4","019cf79b-235f-7a0e-b720-21a6504418f0","019cf78c-cfcf-769c-9016-9b96552b5e33","","794","
                <div class=""stimulus-container"">
                    <img src=""images/schematic_sequence/dinner_party_scheme/dinner_party_scheme_6.png"" class=""exp-image"">
                    <div class=""question-area"">
                        <p style=""font-size: 20px; font-weight: bold; margin: 0;"">Is there a person in this image?</p>
                    </div>
                </div>","0","main_experiment_trial","6","dinner_party_scheme","schematic_sequence","","","","",""
"","","","","","html-keyboard-response","71","238987","0.0-71.0","63135C957B8C43F1A29D919C84B65DE4","019cf79b-235f-7a0e-b720-21a6504418f0","019cf78c-cfcf-769c-9016-9b96552b5e33","","null","
                <div class=""stimulus-container"">
                    <img src=""images/schematic_sequence/dinner_party_scheme/dinner_party_scheme_7.png"" class=""exp-image"">
                    <div class=""question-area""></div> 
                </div>","null","","","","","","","","",""
"","","","","","html-button-response","72","239818","0.0-72.0","63135C957B8C43F1A29D919C84B65DE4","019cf79b-235f-7a0e-b720-21a6504418f0","019cf78c-cfcf-769c-9016-9b96552b5e33","","829","
                <div class=""stimulus-container"">
                    <img src=""images/schematic_sequence/dinner_party_scheme/dinner_party_scheme_7.png"" class=""exp-image"">
                    <div class=""question-area"">
                        <p style=""font-size: 20px; font-weight: bold; margin: 0;"">Is there a person in this image?</p>
                    </div>
                </div>","0","main_experiment_trial","7","dinner_party_scheme","schematic_sequence","","","","",""
"","","","","","html-keyboard-response","73","244820","0.0-73.0","63135C957B8C43F1A29D919C84B65DE4","019cf79b-235f-7a0e-b720-21a6504418f0","019cf78c-cfcf-769c-9016-9b96552b5e33","","null","
                <div class=""stimulus-container"">
                    <img src=""images/schematic_sequence/dinner_party_scheme/dinner_party_scheme_8.png"" class=""exp-image"">
                    <div class=""question-area""></div> 
                </div>","null","","","","","","","","",""
"","","","","","html-button-response","74","245466","0.0-74.0","63135C957B8C43F1A29D919C84B65DE4","019cf79b-235f-7a0e-b720-21a6504418f0","019cf78c-cfcf-769c-9016-9b96552b5e33","","645","
                <div class=""stimulus-container"">
                    <img src=""images/schematic_sequence/dinner_party_scheme/dinner_party_scheme_8.png"" class=""exp-image"">
                    <div class=""question-area"">
                        <p style=""font-size: 20px; font-weight: bold; margin: 0;"">Is there a person in this image?</p>
                    </div>
                </div>","0","main_experiment_trial","8","dinner_party_scheme","schematic_sequence","","","","",""
"","","","","","html-keyboard-response","75","250469","0.0-75.0","63135C957B8C43F1A29D919C84B65DE4","019cf79b-235f-7a0e-b720-21a6504418f0","019cf78c-cfcf-769c-9016-9b96552b5e33","","null","
                <div class=""stimulus-container"">
                    <img src=""images/schematic_sequence/dinner_party_scheme/dinner_party_scheme_9.png"" class=""exp-image"">
                    <div class=""question-area""></div> 
                </div>","null","","","","","","","","",""
"","","","","","html-button-response","76","251452","0.0-76.0","63135C957B8C43F1A29D919C84B65DE4","019cf79b-235f-7a0e-b720-21a6504418f0","019cf78c-cfcf-769c-9016-9b96552b5e33","","982","
                <div class=""stimulus-container"">
                    <img src=""images/schematic_sequence/dinner_party_scheme/dinner_party_scheme_9.png"" class=""exp-image"">
                    <div class=""question-area"">
                        <p style=""font-size: 20px; font-weight: bold; margin: 0;"">Is there a person in this image?</p>
                    </div>
                </div>","0","main_experiment_trial","9","dinner_party_scheme","schematic_sequence","","","","",""
"","","","","","html-keyboard-response","77","256455","0.0-77.0","63135C957B8C43F1A29D919C84B65DE4","019cf79b-235f-7a0e-b720-21a6504418f0","019cf78c-cfcf-769c-9016-9b96552b5e33","","null","
                <div class=""stimulus-container"">
                    <img src=""images/schematic_sequence/dinner_party_scheme/dinner_party_scheme_ten.png"" class=""exp-image"">
                    <div class=""question-area""></div> 
                </div>","null","","","","","","","","",""
"","","","","","html-button-response","78","257269","0.0-78.0","63135C957B8C43F1A29D919C84B65DE4","019cf79b-235f-7a0e-b720-21a6504418f0","019cf78c-cfcf-769c-9016-9b96552b5e33","","813","
                <div class=""stimulus-container"">
                    <img src=""images/schematic_sequence/dinner_party_scheme/dinner_party_scheme_ten.png"" class=""exp-image"">
                    <div class=""question-area"">
                        <p style=""font-size: 20px; font-weight: bold; margin: 0;"">Is there a person in this image?</p>
                    </div>
                </div>","0","main_experiment_trial","ten","dinner_party_scheme","schematic_sequence","","","","",""
"","","","","","html-keyboard-response","79","258272","0.0-79.0","63135C957B8C43F1A29D919C84B65DE4","019cf79b-235f-7a0e-b720-21a6504418f0","019cf78c-cfcf-769c-9016-9b96552b5e33","","null","<div style=""background-color: white; width: 100vw; height: 100vh;""></div>","null","","","","","","","","",""
"","","","","","html-keyboard-response","80","263275","0.0-80.0","63135C957B8C43F1A29D919C84B65DE4","019cf79b-235f-7a0e-b720-21a6504418f0","019cf78c-cfcf-769c-9016-9b96552b5e33","","null","
                <div class=""stimulus-container"">
                    <img src=""images/schematic_sequence/supermarket_scheme/supermarket_scheme_1.png"" class=""exp-image"">
                    <div class=""question-area""></div> 
                </div>","null","","","","","","","","",""
"","","","","","html-button-response","81","263968","0.0-81.0","63135C957B8C43F1A29D919C84B65DE4","019cf79b-235f-7a0e-b720-21a6504418f0","019cf78c-cfcf-769c-9016-9b96552b5e33","","692","
                <div class=""stimulus-container"">
                    <img src=""images/schematic_sequence/supermarket_scheme/supermarket_scheme_1.png"" class=""exp-image"">
                    <div class=""question-area"">
                        <p style=""font-size: 20px; font-weight: bold; margin: 0;"">Is there a person in this image?</p>
                    </div>
                </div>","1","main_experiment_trial","1","supermarket_scheme","schematic_sequence","","","","",""
"","","","","","html-keyboard-response","82","268971","0.0-82.0","63135C957B8C43F1A29D919C84B65DE4","019cf79b-235f-7a0e-b720-21a6504418f0","019cf78c-cfcf-769c-9016-9b96552b5e33","","null","
                <div class=""stimulus-container"">
                    <img src=""images/schematic_sequence/supermarket_scheme/supermarket_scheme_2.png"" class=""exp-image"">
                    <div class=""question-area""></div> 
                </div>","null","","","","","","","","",""
"","","","","","html-button-response","83","269803","0.0-83.0","63135C957B8C43F1A29D919C84B65DE4","019cf79b-235f-7a0e-b720-21a6504418f0","019cf78c-cfcf-769c-9016-9b96552b5e33","","830","
                <div class=""stimulus-container"">
                    <img src=""images/schematic_sequence/supermarket_scheme/supermarket_scheme_2.png"" class=""exp-image"">
                    <div class=""question-area"">
                        <p style=""font-size: 20px; font-weight: bold; margin: 0;"">Is there a person in this image?</p>
                    </div>
                </div>","1","main_experiment_trial","2","supermarket_scheme","schematic_sequence","","","","",""
"","","","","","html-keyboard-response","84","274805","0.0-84.0","63135C957B8C43F1A29D919C84B65DE4","019cf79b-235f-7a0e-b720-21a6504418f0","019cf78c-cfcf-769c-9016-9b96552b5e33","","null","
                <div class=""stimulus-container"">
                    <img src=""images/schematic_sequence/supermarket_scheme/supermarket_scheme_3.png"" class=""exp-image"">
                    <div class=""question-area""></div> 
                </div>","null","","","","","","","","",""
"","","","","","html-button-response","85","275868","0.0-85.0","63135C957B8C43F1A29D919C84B65DE4","019cf79b-235f-7a0e-b720-21a6504418f0","019cf78c-cfcf-769c-9016-9b96552b5e33","","1061","
                <div class=""stimulus-container"">
                    <img src=""images/schematic_sequence/supermarket_scheme/supermarket_scheme_3.png"" class=""exp-image"">
                    <div class=""question-area"">
                        <p style=""font-size: 20px; font-weight: bold; margin: 0;"">Is there a person in this image?</p>
                    </div>
                </div>","1","main_experiment_trial","3","supermarket_scheme","schematic_sequence","","","","",""
"","","","","","html-keyboard-response","86","280870","0.0-86.0","63135C957B8C43F1A29D919C84B65DE4","019cf79b-235f-7a0e-b720-21a6504418f0","019cf78c-cfcf-769c-9016-9b96552b5e33","","null","
                <div class=""stimulus-container"">
                    <img src=""images/schematic_sequence/supermarket_scheme/supermarket_scheme_4.png"" class=""exp-image"">
                    <div class=""question-area""></div> 
                </div>","null","","","","","","","","",""
"","","","","","html-button-response","87","281535","0.0-87.0","63135C957B8C43F1A29D919C84B65DE4","019cf79b-235f-7a0e-b720-21a6504418f0","019cf78c-cfcf-769c-9016-9b96552b5e33","","665","
                <div class=""stimulus-container"">
                    <img src=""images/schematic_sequence/supermarket_scheme/supermarket_scheme_4.png"" class=""exp-image"">
                    <div class=""question-area"">
                        <p style=""font-size: 20px; font-weight: bold; margin: 0;"">Is there a person in this image?</p>
                    </div>
                </div>","0","main_experiment_trial","4","supermarket_scheme","schematic_sequence","","","","",""
"","","","","","html-keyboard-response","88","286538","0.0-88.0","63135C957B8C43F1A29D919C84B65DE4","019cf79b-235f-7a0e-b720-21a6504418f0","019cf78c-cfcf-769c-9016-9b96552b5e33","","null","
                <div class=""stimulus-container"">
                    <img src=""images/schematic_sequence/supermarket_scheme/supermarket_scheme_5.png"" class=""exp-image"">
                    <div class=""question-area""></div> 
                </div>","null","","","","","","","","",""
"","","","","","html-button-response","89","287987","0.0-89.0","63135C957B8C43F1A29D919C84B65DE4","019cf79b-235f-7a0e-b720-21a6504418f0","019cf78c-cfcf-769c-9016-9b96552b5e33","","1447","
                <div class=""stimulus-container"">
                    <img src=""images/schematic_sequence/supermarket_scheme/supermarket_scheme_5.png"" class=""exp-image"">
                    <div class=""question-area"">
                        <p style=""font-size: 20px; font-weight: bold; margin: 0;"">Is there a person in this image?</p>
                    </div>
                </div>","1","main_experiment_trial","5","supermarket_scheme","schematic_sequence","","","","",""
"","","","","","html-keyboard-response","90","292988","0.0-90.0","63135C957B8C43F1A29D919C84B65DE4","019cf79b-235f-7a0e-b720-21a6504418f0","019cf78c-cfcf-769c-9016-9b96552b5e33","","null","
                <div class=""stimulus-container"">
                    <img src=""images/schematic_sequence/supermarket_scheme/supermarket_scheme_6.png"" class=""exp-image"">
                    <div class=""question-area""></div> 
                </div>","null","","","","","","","","",""
"","","","","","html-button-response","91","294033","0.0-91.0","63135C957B8C43F1A29D919C84B65DE4","019cf79b-235f-7a0e-b720-21a6504418f0","019cf78c-cfcf-769c-9016-9b96552b5e33","","1044","
                <div class=""stimulus-container"">
                    <img src=""images/schematic_sequence/supermarket_scheme/supermarket_scheme_6.png"" class=""exp-image"">
                    <div class=""question-area"">
                        <p style=""font-size: 20px; font-weight: bold; margin: 0;"">Is there a person in this image?</p>
                    </div>
                </div>","0","main_experiment_trial","6","supermarket_scheme","schematic_sequence","","","","",""
"","","","","","html-keyboard-response","92","299035","0.0-92.0","63135C957B8C43F1A29D919C84B65DE4","019cf79b-235f-7a0e-b720-21a6504418f0","019cf78c-cfcf-769c-9016-9b96552b5e33","","null","
                <div class=""stimulus-container"">
                    <img src=""images/schematic_sequence/supermarket_scheme/supermarket_scheme_7.png"" class=""exp-image"">
                    <div class=""question-area""></div> 
                </div>","null","","","","","","","","",""
"","","","","","html-button-response","93","299837","0.0-93.0","63135C957B8C43F1A29D919C84B65DE4","019cf79b-235f-7a0e-b720-21a6504418f0","019cf78c-cfcf-769c-9016-9b96552b5e33","","799","
                <div class=""stimulus-container"">
                    <img src=""images/schematic_sequence/supermarket_scheme/supermarket_scheme_7.png"" class=""exp-image"">
                    <div class=""question-area"">
                        <p style=""font-size: 20px; font-weight: bold; margin: 0;"">Is there a person in this image?</p>
                    </div>
                </div>","0","main_experiment_trial","7","supermarket_scheme","schematic_sequence","","","","",""
"","","","","","html-keyboard-response","94","304838","0.0-94.0","63135C957B8C43F1A29D919C84B65DE4","019cf79b-235f-7a0e-b720-21a6504418f0","019cf78c-cfcf-769c-9016-9b96552b5e33","","null","
                <div class=""stimulus-container"">
                    <img src=""images/schematic_sequence/supermarket_scheme/supermarket_scheme_8.png"" class=""exp-image"">
                    <div class=""question-area""></div> 
                </div>","null","","","","","","","","",""
"","","","","","html-button-response","95","305819","0.0-95.0","63135C957B8C43F1A29D919C84B65DE4","019cf79b-235f-7a0e-b720-21a6504418f0","019cf78c-cfcf-769c-9016-9b96552b5e33","","979","
                <div class=""stimulus-container"">
                    <img src=""images/schematic_sequence/supermarket_scheme/supermarket_scheme_8.png"" class=""exp-image"">
                    <div class=""question-area"">
                        <p style=""font-size: 20px; font-weight: bold; margin: 0;"">Is there a person in this image?</p>
                    </div>
                </div>","0","main_experiment_trial","8","supermarket_scheme","schematic_sequence","","","","",""
"","","","","","html-keyboard-response","96","310821","0.0-96.0","63135C957B8C43F1A29D919C84B65DE4","019cf79b-235f-7a0e-b720-21a6504418f0","019cf78c-cfcf-769c-9016-9b96552b5e33","","null","
                <div class=""stimulus-container"">
                    <img src=""images/schematic_sequence/supermarket_scheme/supermarket_scheme_9.png"" class=""exp-image"">
                    <div class=""question-area""></div> 
                </div>","null","","","","","","","","",""
"","","","","","html-button-response","97","311918","0.0-97.0","63135C957B8C43F1A29D919C84B65DE4","019cf79b-235f-7a0e-b720-21a6504418f0","019cf78c-cfcf-769c-9016-9b96552b5e33","","1095","
                <div class=""stimulus-container"">
                    <img src=""images/schematic_sequence/supermarket_scheme/supermarket_scheme_9.png"" class=""exp-image"">
                    <div class=""question-area"">
                        <p style=""font-size: 20px; font-weight: bold; margin: 0;"">Is there a person in this image?</p>
                    </div>
                </div>","0","main_experiment_trial","9","supermarket_scheme","schematic_sequence","","","","",""
"","","","","","html-keyboard-response","98","316920","0.0-98.0","63135C957B8C43F1A29D919C84B65DE4","019cf79b-235f-7a0e-b720-21a6504418f0","019cf78c-cfcf-769c-9016-9b96552b5e33","","null","
                <div class=""stimulus-container"">
                    <img src=""images/schematic_sequence/supermarket_scheme/supermarket_scheme_ten.png"" class=""exp-image"">
                    <div class=""question-area""></div> 
                </div>","null","","","","","","","","",""
"","","","","","html-button-response","99","317636","0.0-99.0","63135C957B8C43F1A29D919C84B65DE4","019cf79b-235f-7a0e-b720-21a6504418f0","019cf78c-cfcf-769c-9016-9b96552b5e33","","714","
                <div class=""stimulus-container"">
                    <img src=""images/schematic_sequence/supermarket_scheme/supermarket_scheme_ten.png"" class=""exp-image"">
                    <div class=""question-area"">
                        <p style=""font-size: 20px; font-weight: bold; margin: 0;"">Is there a person in this image?</p>
                    </div>
                </div>","1","main_experiment_trial","ten","supermarket_scheme","schematic_sequence","","","","",""
"","","","","","html-keyboard-response","100","318638","0.0-100.0","63135C957B8C43F1A29D919C84B65DE4","019cf79b-235f-7a0e-b720-21a6504418f0","019cf78c-cfcf-769c-9016-9b96552b5e33","","null","<div style=""background-color: white; width: 100vw; height: 100vh;""></div>","null","","","","","","","","",""
"","","","","","html-keyboard-response","101","323639","0.0-101.0","63135C957B8C43F1A29D919C84B65DE4","019cf79b-235f-7a0e-b720-21a6504418f0","019cf78c-cfcf-769c-9016-9b96552b5e33","","null","
                <div class=""stimulus-container"">
                    <img src=""images/semantic_sequence/market_semantic/market_semantic_1.png"" class=""exp-image"">
                    <div class=""question-area""></div> 
                </div>","null","","","","","","","","",""
"","","","","","html-button-response","102","324636","0.0-102.0","63135C957B8C43F1A29D919C84B65DE4","019cf79b-235f-7a0e-b720-21a6504418f0","019cf78c-cfcf-769c-9016-9b96552b5e33","","996","
                <div class=""stimulus-container"">
                    <img src=""images/semantic_sequence/market_semantic/market_semantic_1.png"" class=""exp-image"">
                    <div class=""question-area"">
                        <p style=""font-size: 20px; font-weight: bold; margin: 0;"">Is there a person in this image?</p>
                    </div>
                </div>","1","main_experiment_trial","1","market_semantic","semantic_sequence","","","","",""
"","","","","","html-keyboard-response","103","329638","0.0-103.0","63135C957B8C43F1A29D919C84B65DE4","019cf79b-235f-7a0e-b720-21a6504418f0","019cf78c-cfcf-769c-9016-9b96552b5e33","","null","
                <div class=""stimulus-container"">
                    <img src=""images/semantic_sequence/market_semantic/market_semantic_2.png"" class=""exp-image"">
                    <div class=""question-area""></div> 
                </div>","null","","","","","","","","",""
"","","","","","html-button-response","104","330237","0.0-104.0","63135C957B8C43F1A29D919C84B65DE4","019cf79b-235f-7a0e-b720-21a6504418f0","019cf78c-cfcf-769c-9016-9b96552b5e33","","597","
                <div class=""stimulus-container"">
                    <img src=""images/semantic_sequence/market_semantic/market_semantic_2.png"" class=""exp-image"">
                    <div class=""question-area"">
                        <p style=""font-size: 20px; font-weight: bold; margin: 0;"">Is there a person in this image?</p>
                    </div>
                </div>","1","main_experiment_trial","2","market_semantic","semantic_sequence","","","","",""
"","","","","","html-keyboard-response","105","335239","0.0-105.0","63135C957B8C43F1A29D919C84B65DE4","019cf79b-235f-7a0e-b720-21a6504418f0","019cf78c-cfcf-769c-9016-9b96552b5e33","","null","
                <div class=""stimulus-container"">
                    <img src=""images/semantic_sequence/market_semantic/market_semantic_3.png"" class=""exp-image"">
                    <div class=""question-area""></div> 
                </div>","null","","","","","","","","",""
"","","","","","html-button-response","106","336269","0.0-106.0","63135C957B8C43F1A29D919C84B65DE4","019cf79b-235f-7a0e-b720-21a6504418f0","019cf78c-cfcf-769c-9016-9b96552b5e33","","1028","
                <div class=""stimulus-container"">
                    <img src=""images/semantic_sequence/market_semantic/market_semantic_3.png"" class=""exp-image"">
                    <div class=""question-area"">
                        <p style=""font-size: 20px; font-weight: bold; margin: 0;"">Is there a person in this image?</p>
                    </div>
                </div>","1","main_experiment_trial","3","market_semantic","semantic_sequence","","","","",""
"","","","","","html-keyboard-response","107","341272","0.0-107.0","63135C957B8C43F1A29D919C84B65DE4","019cf79b-235f-7a0e-b720-21a6504418f0","019cf78c-cfcf-769c-9016-9b96552b5e33","","null","
                <div class=""stimulus-container"">
                    <img src=""images/semantic_sequence/market_semantic/market_semantic_4.png"" class=""exp-image"">
                    <div class=""question-area""></div> 
                </div>","null","","","","","","","","",""
"","","","","","html-button-response","108","342053","0.0-108.0","63135C957B8C43F1A29D919C84B65DE4","019cf79b-235f-7a0e-b720-21a6504418f0","019cf78c-cfcf-769c-9016-9b96552b5e33","","780","
                <div class=""stimulus-container"">
                    <img src=""images/semantic_sequence/market_semantic/market_semantic_4.png"" class=""exp-image"">
                    <div class=""question-area"">
                        <p style=""font-size: 20px; font-weight: bold; margin: 0;"">Is there a person in this image?</p>
                    </div>
                </div>","0","main_experiment_trial","4","market_semantic","semantic_sequence","","","","",""
"","","","","","html-keyboard-response","109","347055","0.0-109.0","63135C957B8C43F1A29D919C84B65DE4","019cf79b-235f-7a0e-b720-21a6504418f0","019cf78c-cfcf-769c-9016-9b96552b5e33","","null","
                <div class=""stimulus-container"">
                    <img src=""images/semantic_sequence/market_semantic/market_semantic_5.png"" class=""exp-image"">
                    <div class=""question-area""></div> 
                </div>","null","","","","","","","","",""
"","","","","","html-button-response","110","347900","0.0-110.0","63135C957B8C43F1A29D919C84B65DE4","019cf79b-235f-7a0e-b720-21a6504418f0","019cf78c-cfcf-769c-9016-9b96552b5e33","","845","
                <div class=""stimulus-container"">
                    <img src=""images/semantic_sequence/market_semantic/market_semantic_5.png"" class=""exp-image"">
                    <div class=""question-area"">
                        <p style=""font-size: 20px; font-weight: bold; margin: 0;"">Is there a person in this image?</p>
                    </div>
                </div>","1","main_experiment_trial","5","market_semantic","semantic_sequence","","","","",""
"","","","","","html-keyboard-response","111","352902","0.0-111.0","63135C957B8C43F1A29D919C84B65DE4","019cf79b-235f-7a0e-b720-21a6504418f0","019cf78c-cfcf-769c-9016-9b96552b5e33","","null","
                <div class=""stimulus-container"">
                    <img src=""images/semantic_sequence/market_semantic/market_semantic_6.png"" class=""exp-image"">
                    <div class=""question-area""></div> 
                </div>","null","","","","","","","","",""
"","","","","","html-button-response","112","355053","0.0-112.0","63135C957B8C43F1A29D919C84B65DE4","019cf79b-235f-7a0e-b720-21a6504418f0","019cf78c-cfcf-769c-9016-9b96552b5e33","","2149","
                <div class=""stimulus-container"">
                    <img src=""images/semantic_sequence/market_semantic/market_semantic_6.png"" class=""exp-image"">
                    <div class=""question-area"">
                        <p style=""font-size: 20px; font-weight: bold; margin: 0;"">Is there a person in this image?</p>
                    </div>
                </div>","0","main_experiment_trial","6","market_semantic","semantic_sequence","","","","",""
"","","","","","html-keyboard-response","113","360055","0.0-113.0","63135C957B8C43F1A29D919C84B65DE4","019cf79b-235f-7a0e-b720-21a6504418f0","019cf78c-cfcf-769c-9016-9b96552b5e33","","null","
                <div class=""stimulus-container"">
                    <img src=""images/semantic_sequence/market_semantic/market_semantic_7.png"" class=""exp-image"">
                    <div class=""question-area""></div> 
                </div>","null","","","","","","","","",""
"","","","","","html-button-response","114","361436","0.0-114.0","63135C957B8C43F1A29D919C84B65DE4","019cf79b-235f-7a0e-b720-21a6504418f0","019cf78c-cfcf-769c-9016-9b96552b5e33","","1377","
                <div class=""stimulus-container"">
                    <img src=""images/semantic_sequence/market_semantic/market_semantic_7.png"" class=""exp-image"">
                    <div class=""question-area"">
                        <p style=""font-size: 20px; font-weight: bold; margin: 0;"">Is there a person in this image?</p>
                    </div>
                </div>","0","main_experiment_trial","7","market_semantic","semantic_sequence","","","","",""
"","","","","","html-keyboard-response","115","366438","0.0-115.0","63135C957B8C43F1A29D919C84B65DE4","019cf79b-235f-7a0e-b720-21a6504418f0","019cf78c-cfcf-769c-9016-9b96552b5e33","","null","
                <div class=""stimulus-container"">
                    <img src=""images/semantic_sequence/market_semantic/market_semantic_8.png"" class=""exp-image"">
                    <div class=""question-area""></div> 
                </div>","null","","","","","","","","",""
"","","","","","html-button-response","116","367319","0.0-116.0","63135C957B8C43F1A29D919C84B65DE4","019cf79b-235f-7a0e-b720-21a6504418f0","019cf78c-cfcf-769c-9016-9b96552b5e33","","880","
                <div class=""stimulus-container"">
                    <img src=""images/semantic_sequence/market_semantic/market_semantic_8.png"" class=""exp-image"">
                    <div class=""question-area"">
                        <p style=""font-size: 20px; font-weight: bold; margin: 0;"">Is there a person in this image?</p>
                    </div>
                </div>","0","main_experiment_trial","8","market_semantic","semantic_sequence","","","","",""
"","","","","","html-keyboard-response","117","372322","0.0-117.0","63135C957B8C43F1A29D919C84B65DE4","019cf79b-235f-7a0e-b720-21a6504418f0","019cf78c-cfcf-769c-9016-9b96552b5e33","","null","
                <div class=""stimulus-container"">
                    <img src=""images/semantic_sequence/market_semantic/market_semantic_9.png"" class=""exp-image"">
                    <div class=""question-area""></div> 
                </div>","null","","","","","","","","",""
"","","","","","html-button-response","118","373071","0.0-118.0","63135C957B8C43F1A29D919C84B65DE4","019cf79b-235f-7a0e-b720-21a6504418f0","019cf78c-cfcf-769c-9016-9b96552b5e33","","747","
                <div class=""stimulus-container"">
                    <img src=""images/semantic_sequence/market_semantic/market_semantic_9.png"" class=""exp-image"">
                    <div class=""question-area"">
                        <p style=""font-size: 20px; font-weight: bold; margin: 0;"">Is there a person in this image?</p>
                    </div>
                </div>","0","main_experiment_trial","9","market_semantic","semantic_sequence","","","","",""
"","","","","","html-keyboard-response","119","378073","0.0-119.0","63135C957B8C43F1A29D919C84B65DE4","019cf79b-235f-7a0e-b720-21a6504418f0","019cf78c-cfcf-769c-9016-9b96552b5e33","","null","
                <div class=""stimulus-container"">
                    <img src=""images/semantic_sequence/market_semantic/market_semantic_ten.png"" class=""exp-image"">
                    <div class=""question-area""></div> 
                </div>","null","","","","","","","","",""
"","","","","","html-button-response","120","379287","0.0-120.0","63135C957B8C43F1A29D919C84B65DE4","019cf79b-235f-7a0e-b720-21a6504418f0","019cf78c-cfcf-769c-9016-9b96552b5e33","","1212","
                <div class=""stimulus-container"">
                    <img src=""images/semantic_sequence/market_semantic/market_semantic_ten.png"" class=""exp-image"">
                    <div class=""question-area"">
                        <p style=""font-size: 20px; font-weight: bold; margin: 0;"">Is there a person in this image?</p>
                    </div>
                </div>","1","main_experiment_trial","ten","market_semantic","semantic_sequence","","","","",""
"","","","","","html-keyboard-response","121","380289","0.0-121.0","63135C957B8C43F1A29D919C84B65DE4","019cf79b-235f-7a0e-b720-21a6504418f0","019cf78c-cfcf-769c-9016-9b96552b5e33","","null","<div style=""background-color: white; width: 100vw; height: 100vh;""></div>","null","","","","","","","","",""
"","","","","","html-keyboard-response","122","385291","0.0-122.0","63135C957B8C43F1A29D919C84B65DE4","019cf79b-235f-7a0e-b720-21a6504418f0","019cf78c-cfcf-769c-9016-9b96552b5e33","","null","
                <div class=""stimulus-container"">
                    <img src=""images/semantic_sequence/maintaining_a_car_semantic/maintaining_a_car_semantic_1.png"" class=""exp-image"">
                    <div class=""question-area""></div> 
                </div>","null","","","","","","","","",""
"","","","","","html-button-response","123","386336","0.0-123.0","63135C957B8C43F1A29D919C84B65DE4","019cf79b-235f-7a0e-b720-21a6504418f0","019cf78c-cfcf-769c-9016-9b96552b5e33","","1044","
                <div class=""stimulus-container"">
                    <img src=""images/semantic_sequence/maintaining_a_car_semantic/maintaining_a_car_semantic_1.png"" class=""exp-image"">
                    <div class=""question-area"">
                        <p style=""font-size: 20px; font-weight: bold; margin: 0;"">Is there a person in this image?</p>
                    </div>
                </div>","0","main_experiment_trial","1","maintaining_a_car_semantic","semantic_sequence","","","","",""
"","","","","","html-keyboard-response","124","391337","0.0-124.0","63135C957B8C43F1A29D919C84B65DE4","019cf79b-235f-7a0e-b720-21a6504418f0","019cf78c-cfcf-769c-9016-9b96552b5e33","","null","
                <div class=""stimulus-container"">
                    <img src=""images/semantic_sequence/maintaining_a_car_semantic/maintaining_a_car_semantic_2.png"" class=""exp-image"">
                    <div class=""question-area""></div> 
                </div>","null","","","","","","","","",""
"","","","","","html-button-response","125","392221","0.0-125.0","63135C957B8C43F1A29D919C84B65DE4","019cf79b-235f-7a0e-b720-21a6504418f0","019cf78c-cfcf-769c-9016-9b96552b5e33","","882","
                <div class=""stimulus-container"">
                    <img src=""images/semantic_sequence/maintaining_a_car_semantic/maintaining_a_car_semantic_2.png"" class=""exp-image"">
                    <div class=""question-area"">
                        <p style=""font-size: 20px; font-weight: bold; margin: 0;"">Is there a person in this image?</p>
                    </div>
                </div>","0","main_experiment_trial","2","maintaining_a_car_semantic","semantic_sequence","","","","",""
"","","","","","html-keyboard-response","126","397223","0.0-126.0","63135C957B8C43F1A29D919C84B65DE4","019cf79b-235f-7a0e-b720-21a6504418f0","019cf78c-cfcf-769c-9016-9b96552b5e33","","null","
                <div class=""stimulus-container"">
                    <img src=""images/semantic_sequence/maintaining_a_car_semantic/maintaining_a_car_semantic_3.png"" class=""exp-image"">
                    <div class=""question-area""></div> 
                </div>","null","","","","","","","","",""
"","","","","","html-button-response","127","398803","0.0-127.0","63135C957B8C43F1A29D919C84B65DE4","019cf79b-235f-7a0e-b720-21a6504418f0","019cf78c-cfcf-769c-9016-9b96552b5e33","","1579","
                <div class=""stimulus-container"">
                    <img src=""images/semantic_sequence/maintaining_a_car_semantic/maintaining_a_car_semantic_3.png"" class=""exp-image"">
                    <div class=""question-area"">
                        <p style=""font-size: 20px; font-weight: bold; margin: 0;"">Is there a person in this image?</p>
                    </div>
                </div>","0","main_experiment_trial","3","maintaining_a_car_semantic","semantic_sequence","","","","",""
"","","","","","html-keyboard-response","128","403805","0.0-128.0","63135C957B8C43F1A29D919C84B65DE4","019cf79b-235f-7a0e-b720-21a6504418f0","019cf78c-cfcf-769c-9016-9b96552b5e33","","null","
                <div class=""stimulus-container"">
                    <img src=""images/semantic_sequence/maintaining_a_car_semantic/maintaining_a_car_semantic_4.png"" class=""exp-image"">
                    <div class=""question-area""></div> 
                </div>","null","","","","","","","","",""
"","","","","","html-button-response","129","404437","0.0-129.0","63135C957B8C43F1A29D919C84B65DE4","019cf79b-235f-7a0e-b720-21a6504418f0","019cf78c-cfcf-769c-9016-9b96552b5e33","","631","
                <div class=""stimulus-container"">
                    <img src=""images/semantic_sequence/maintaining_a_car_semantic/maintaining_a_car_semantic_4.png"" class=""exp-image"">
                    <div class=""question-area"">
                        <p style=""font-size: 20px; font-weight: bold; margin: 0;"">Is there a person in this image?</p>
                    </div>
                </div>","0","main_experiment_trial","4","maintaining_a_car_semantic","semantic_sequence","","","","",""
"","","","","","html-keyboard-response","130","409439","0.0-130.0","63135C957B8C43F1A29D919C84B65DE4","019cf79b-235f-7a0e-b720-21a6504418f0","019cf78c-cfcf-769c-9016-9b96552b5e33","","null","
                <div class=""stimulus-container"">
                    <img src=""images/semantic_sequence/maintaining_a_car_semantic/maintaining_a_car_semantic_5.png"" class=""exp-image"">
                    <div class=""question-area""></div> 
                </div>","null","","","","","","","","",""
"","","","","","html-button-response","131","411519","0.0-131.0","63135C957B8C43F1A29D919C84B65DE4","019cf79b-235f-7a0e-b720-21a6504418f0","019cf78c-cfcf-769c-9016-9b96552b5e33","","2079","
                <div class=""stimulus-container"">
                    <img src=""images/semantic_sequence/maintaining_a_car_semantic/maintaining_a_car_semantic_5.png"" class=""exp-image"">
                    <div class=""question-area"">
                        <p style=""font-size: 20px; font-weight: bold; margin: 0;"">Is there a person in this image?</p>
                    </div>
                </div>","0","main_experiment_trial","5","maintaining_a_car_semantic","semantic_sequence","","","","",""
"","","","","","html-keyboard-response","132","416522","0.0-132.0","63135C957B8C43F1A29D919C84B65DE4","019cf79b-235f-7a0e-b720-21a6504418f0","019cf78c-cfcf-769c-9016-9b96552b5e33","","null","
                <div class=""stimulus-container"">
                    <img src=""images/semantic_sequence/maintaining_a_car_semantic/maintaining_a_car_semantic_6.png"" class=""exp-image"">
                    <div class=""question-area""></div> 
                </div>","null","","","","","","","","",""
"","","","","","html-button-response","133","417955","0.0-133.0","63135C957B8C43F1A29D919C84B65DE4","019cf79b-235f-7a0e-b720-21a6504418f0","019cf78c-cfcf-769c-9016-9b96552b5e33","","1431","
                <div class=""stimulus-container"">
                    <img src=""images/semantic_sequence/maintaining_a_car_semantic/maintaining_a_car_semantic_6.png"" class=""exp-image"">
                    <div class=""question-area"">
                        <p style=""font-size: 20px; font-weight: bold; margin: 0;"">Is there a person in this image?</p>
                    </div>
                </div>","0","main_experiment_trial","6","maintaining_a_car_semantic","semantic_sequence","","","","",""
"","","","","","html-keyboard-response","134","422958","0.0-134.0","63135C957B8C43F1A29D919C84B65DE4","019cf79b-235f-7a0e-b720-21a6504418f0","019cf78c-cfcf-769c-9016-9b96552b5e33","","null","
                <div class=""stimulus-container"">
                    <img src=""images/semantic_sequence/maintaining_a_car_semantic/maintaining_a_car_semantic_7.png"" class=""exp-image"">
                    <div class=""question-area""></div> 
                </div>","null","","","","","","","","",""
"","","","","","html-button-response","135","423669","0.0-135.0","63135C957B8C43F1A29D919C84B65DE4","019cf79b-235f-7a0e-b720-21a6504418f0","019cf78c-cfcf-769c-9016-9b96552b5e33","","710","
                <div class=""stimulus-container"">
                    <img src=""images/semantic_sequence/maintaining_a_car_semantic/maintaining_a_car_semantic_7.png"" class=""exp-image"">
                    <div class=""question-area"">
                        <p style=""font-size: 20px; font-weight: bold; margin: 0;"">Is there a person in this image?</p>
                    </div>
                </div>","0","main_experiment_trial","7","maintaining_a_car_semantic","semantic_sequence","","","","",""
"","","","","","html-keyboard-response","136","428671","0.0-136.0","63135C957B8C43F1A29D919C84B65DE4","019cf79b-235f-7a0e-b720-21a6504418f0","019cf78c-cfcf-769c-9016-9b96552b5e33","","null","
                <div class=""stimulus-container"">
                    <img src=""images/semantic_sequence/maintaining_a_car_semantic/maintaining_a_car_semantic_8.png"" class=""exp-image"">
                    <div class=""question-area""></div> 
                </div>","null","","","","","","","","",""
"","","","","","html-button-response","137","429437","0.0-137.0","63135C957B8C43F1A29D919C84B65DE4","019cf79b-235f-7a0e-b720-21a6504418f0","019cf78c-cfcf-769c-9016-9b96552b5e33","","764","
                <div class=""stimulus-container"">
                    <img src=""images/semantic_sequence/maintaining_a_car_semantic/maintaining_a_car_semantic_8.png"" class=""exp-image"">
                    <div class=""question-area"">
                        <p style=""font-size: 20px; font-weight: bold; margin: 0;"">Is there a person in this image?</p>
                    </div>
                </div>","0","main_experiment_trial","8","maintaining_a_car_semantic","semantic_sequence","","","","",""
"","","","","","html-keyboard-response","138","434439","0.0-138.0","63135C957B8C43F1A29D919C84B65DE4","019cf79b-235f-7a0e-b720-21a6504418f0","019cf78c-cfcf-769c-9016-9b96552b5e33","","null","
                <div class=""stimulus-container"">
                    <img src=""images/semantic_sequence/maintaining_a_car_semantic/maintaining_a_car_semantic_9.png"" class=""exp-image"">
                    <div class=""question-area""></div> 
                </div>","null","","","","","","","","",""
"","","","","","html-button-response","139","435870","0.0-139.0","63135C957B8C43F1A29D919C84B65DE4","019cf79b-235f-7a0e-b720-21a6504418f0","019cf78c-cfcf-769c-9016-9b96552b5e33","","1430","
                <div class=""stimulus-container"">
                    <img src=""images/semantic_sequence/maintaining_a_car_semantic/maintaining_a_car_semantic_9.png"" class=""exp-image"">
                    <div class=""question-area"">
                        <p style=""font-size: 20px; font-weight: bold; margin: 0;"">Is there a person in this image?</p>
                    </div>
                </div>","0","main_experiment_trial","9","maintaining_a_car_semantic","semantic_sequence","","","","",""
"","","","","","html-keyboard-response","140","440872","0.0-140.0","63135C957B8C43F1A29D919C84B65DE4","019cf79b-235f-7a0e-b720-21a6504418f0","019cf78c-cfcf-769c-9016-9b96552b5e33","","null","
                <div class=""stimulus-container"">
                    <img src=""images/semantic_sequence/maintaining_a_car_semantic/maintaining_a_car_semantic_ten.png"" class=""exp-image"">
                    <div class=""question-area""></div> 
                </div>","null","","","","","","","","",""
"","","","","","html-button-response","141","441437","0.0-141.0","63135C957B8C43F1A29D919C84B65DE4","019cf79b-235f-7a0e-b720-21a6504418f0","019cf78c-cfcf-769c-9016-9b96552b5e33","","564","
                <div class=""stimulus-container"">
                    <img src=""images/semantic_sequence/maintaining_a_car_semantic/maintaining_a_car_semantic_ten.png"" class=""exp-image"">
                    <div class=""question-area"">
                        <p style=""font-size: 20px; font-weight: bold; margin: 0;"">Is there a person in this image?</p>
                    </div>
                </div>","0","main_experiment_trial","ten","maintaining_a_car_semantic","semantic_sequence","","","","",""
"","","","","","html-keyboard-response","142","442439","0.0-142.0","63135C957B8C43F1A29D919C84B65DE4","019cf79b-235f-7a0e-b720-21a6504418f0","019cf78c-cfcf-769c-9016-9b96552b5e33","","null","<div style=""background-color: white; width: 100vw; height: 100vh;""></div>","null","","","","","","","","",""
"","","","","","html-keyboard-response","143","447441","0.0-143.0","63135C957B8C43F1A29D919C84B65DE4","019cf79b-235f-7a0e-b720-21a6504418f0","019cf78c-cfcf-769c-9016-9b96552b5e33","","null","
                <div class=""stimulus-container"">
                    <img src=""images/semantic_sequence/visiting_cities_semantic/visiting_cities_semantic_1.png"" class=""exp-image"">
                    <div class=""question-area""></div> 
                </div>","null","","","","","","","","",""
"","","","","","html-button-response","144","448155","0.0-144.0","63135C957B8C43F1A29D919C84B65DE4","019cf79b-235f-7a0e-b720-21a6504418f0","019cf78c-cfcf-769c-9016-9b96552b5e33","","713","
                <div class=""stimulus-container"">
                    <img src=""images/semantic_sequence/visiting_cities_semantic/visiting_cities_semantic_1.png"" class=""exp-image"">
                    <div class=""question-area"">
                        <p style=""font-size: 20px; font-weight: bold; margin: 0;"">Is there a person in this image?</p>
                    </div>
                </div>","0","main_experiment_trial","1","visiting_cities_semantic","semantic_sequence","","","","",""
"","","","","","html-keyboard-response","145","453157","0.0-145.0","63135C957B8C43F1A29D919C84B65DE4","019cf79b-235f-7a0e-b720-21a6504418f0","019cf78c-cfcf-769c-9016-9b96552b5e33","","null","
                <div class=""stimulus-container"">
                    <img src=""images/semantic_sequence/visiting_cities_semantic/visiting_cities_semantic_2.png"" class=""exp-image"">
                    <div class=""question-area""></div> 
                </div>","null","","","","","","","","",""
"","","","","","html-button-response","146","454204","0.0-146.0","63135C957B8C43F1A29D919C84B65DE4","019cf79b-235f-7a0e-b720-21a6504418f0","019cf78c-cfcf-769c-9016-9b96552b5e33","","1045","
                <div class=""stimulus-container"">
                    <img src=""images/semantic_sequence/visiting_cities_semantic/visiting_cities_semantic_2.png"" class=""exp-image"">
                    <div class=""question-area"">
                        <p style=""font-size: 20px; font-weight: bold; margin: 0;"">Is there a person in this image?</p>
                    </div>
                </div>","1","main_experiment_trial","2","visiting_cities_semantic","semantic_sequence","","","","",""
"","","","","","html-keyboard-response","147","459207","0.0-147.0","63135C957B8C43F1A29D919C84B65DE4","019cf79b-235f-7a0e-b720-21a6504418f0","019cf78c-cfcf-769c-9016-9b96552b5e33","","null","
                <div class=""stimulus-container"">
                    <img src=""images/semantic_sequence/visiting_cities_semantic/visiting_cities_semantic_3.png"" class=""exp-image"">
                    <div class=""question-area""></div> 
                </div>","null","","","","","","","","",""
"","","","","","html-button-response","148","459804","0.0-148.0","63135C957B8C43F1A29D919C84B65DE4","019cf79b-235f-7a0e-b720-21a6504418f0","019cf78c-cfcf-769c-9016-9b96552b5e33","","595","
                <div class=""stimulus-container"">
                    <img src=""images/semantic_sequence/visiting_cities_semantic/visiting_cities_semantic_3.png"" class=""exp-image"">
                    <div class=""question-area"">
                        <p style=""font-size: 20px; font-weight: bold; margin: 0;"">Is there a person in this image?</p>
                    </div>
                </div>","1","main_experiment_trial","3","visiting_cities_semantic","semantic_sequence","","","","",""
"","","","","","html-keyboard-response","149","464806","0.0-149.0","63135C957B8C43F1A29D919C84B65DE4","019cf79b-235f-7a0e-b720-21a6504418f0","019cf78c-cfcf-769c-9016-9b96552b5e33","","null","
                <div class=""stimulus-container"">
                    <img src=""images/semantic_sequence/visiting_cities_semantic/visiting_cities_semantic_4.png"" class=""exp-image"">
                    <div class=""question-area""></div> 
                </div>","null","","","","","","","","",""
"","","","","","html-button-response","150","465237","0.0-150.0","63135C957B8C43F1A29D919C84B65DE4","019cf79b-235f-7a0e-b720-21a6504418f0","019cf78c-cfcf-769c-9016-9b96552b5e33","","429","
                <div class=""stimulus-container"">
                    <img src=""images/semantic_sequence/visiting_cities_semantic/visiting_cities_semantic_4.png"" class=""exp-image"">
                    <div class=""question-area"">
                        <p style=""font-size: 20px; font-weight: bold; margin: 0;"">Is there a person in this image?</p>
                    </div>
                </div>","1","main_experiment_trial","4","visiting_cities_semantic","semantic_sequence","","","","",""
"","","","","","html-keyboard-response","151","470240","0.0-151.0","63135C957B8C43F1A29D919C84B65DE4","019cf79b-235f-7a0e-b720-21a6504418f0","019cf78c-cfcf-769c-9016-9b96552b5e33","","null","
                <div class=""stimulus-container"">
                    <img src=""images/semantic_sequence/visiting_cities_semantic/visiting_cities_semantic_5.png"" class=""exp-image"">
                    <div class=""question-area""></div> 
                </div>","null","","","","","","","","",""
"","","","","","html-button-response","152","471903","0.0-152.0","63135C957B8C43F1A29D919C84B65DE4","019cf79b-235f-7a0e-b720-21a6504418f0","019cf78c-cfcf-769c-9016-9b96552b5e33","","1662","
                <div class=""stimulus-container"">
                    <img src=""images/semantic_sequence/visiting_cities_semantic/visiting_cities_semantic_5.png"" class=""exp-image"">
                    <div class=""question-area"">
                        <p style=""font-size: 20px; font-weight: bold; margin: 0;"">Is there a person in this image?</p>
                    </div>
                </div>","0","main_experiment_trial","5","visiting_cities_semantic","semantic_sequence","","","","",""
"","","","","","html-keyboard-response","153","476906","0.0-153.0","63135C957B8C43F1A29D919C84B65DE4","019cf79b-235f-7a0e-b720-21a6504418f0","019cf78c-cfcf-769c-9016-9b96552b5e33","","null","
                <div class=""stimulus-container"">
                    <img src=""images/semantic_sequence/visiting_cities_semantic/visiting_cities_semantic_6.png"" class=""exp-image"">
                    <div class=""question-area""></div> 
                </div>","null","","","","","","","","",""
"","","","","","html-button-response","154","478537","0.0-154.0","63135C957B8C43F1A29D919C84B65DE4","019cf79b-235f-7a0e-b720-21a6504418f0","019cf78c-cfcf-769c-9016-9b96552b5e33","","1630","
                <div class=""stimulus-container"">
                    <img src=""images/semantic_sequence/visiting_cities_semantic/visiting_cities_semantic_6.png"" class=""exp-image"">
                    <div class=""question-area"">
                        <p style=""font-size: 20px; font-weight: bold; margin: 0;"">Is there a person in this image?</p>
                    </div>
                </div>","1","main_experiment_trial","6","visiting_cities_semantic","semantic_sequence","","","","",""
"","","","","","html-keyboard-response","155","483540","0.0-155.0","63135C957B8C43F1A29D919C84B65DE4","019cf79b-235f-7a0e-b720-21a6504418f0","019cf78c-cfcf-769c-9016-9b96552b5e33","","null","
                <div class=""stimulus-container"">
                    <img src=""images/semantic_sequence/visiting_cities_semantic/visiting_cities_semantic_7.png"" class=""exp-image"">
                    <div class=""question-area""></div> 
                </div>","null","","","","","","","","",""
"","","","","","html-button-response","156","484537","0.0-156.0","63135C957B8C43F1A29D919C84B65DE4","019cf79b-235f-7a0e-b720-21a6504418f0","019cf78c-cfcf-769c-9016-9b96552b5e33","","996","
                <div class=""stimulus-container"">
                    <img src=""images/semantic_sequence/visiting_cities_semantic/visiting_cities_semantic_7.png"" class=""exp-image"">
                    <div class=""question-area"">
                        <p style=""font-size: 20px; font-weight: bold; margin: 0;"">Is there a person in this image?</p>
                    </div>
                </div>","0","main_experiment_trial","7","visiting_cities_semantic","semantic_sequence","","","","",""
"","","","","","html-keyboard-response","157","489539","0.0-157.0","63135C957B8C43F1A29D919C84B65DE4","019cf79b-235f-7a0e-b720-21a6504418f0","019cf78c-cfcf-769c-9016-9b96552b5e33","","null","
                <div class=""stimulus-container"">
                    <img src=""images/semantic_sequence/visiting_cities_semantic/visiting_cities_semantic_8.png"" class=""exp-image"">
                    <div class=""question-area""></div> 
                </div>","null","","","","","","","","",""
"","","","","","html-button-response","158","490288","0.0-158.0","63135C957B8C43F1A29D919C84B65DE4","019cf79b-235f-7a0e-b720-21a6504418f0","019cf78c-cfcf-769c-9016-9b96552b5e33","","748","
                <div class=""stimulus-container"">
                    <img src=""images/semantic_sequence/visiting_cities_semantic/visiting_cities_semantic_8.png"" class=""exp-image"">
                    <div class=""question-area"">
                        <p style=""font-size: 20px; font-weight: bold; margin: 0;"">Is there a person in this image?</p>
                    </div>
                </div>","0","main_experiment_trial","8","visiting_cities_semantic","semantic_sequence","","","","",""
"","","","","","html-keyboard-response","159","495290","0.0-159.0","63135C957B8C43F1A29D919C84B65DE4","019cf79b-235f-7a0e-b720-21a6504418f0","019cf78c-cfcf-769c-9016-9b96552b5e33","","null","
                <div class=""stimulus-container"">
                    <img src=""images/semantic_sequence/visiting_cities_semantic/visiting_cities_semantic_9.png"" class=""exp-image"">
                    <div class=""question-area""></div> 
                </div>","null","","","","","","","","",""
"","","","","","html-button-response","160","496521","0.0-160.0","63135C957B8C43F1A29D919C84B65DE4","019cf79b-235f-7a0e-b720-21a6504418f0","019cf78c-cfcf-769c-9016-9b96552b5e33","","1230","
                <div class=""stimulus-container"">
                    <img src=""images/semantic_sequence/visiting_cities_semantic/visiting_cities_semantic_9.png"" class=""exp-image"">
                    <div class=""question-area"">
                        <p style=""font-size: 20px; font-weight: bold; margin: 0;"">Is there a person in this image?</p>
                    </div>
                </div>","0","main_experiment_trial","9","visiting_cities_semantic","semantic_sequence","","","","",""
"","","","","","html-keyboard-response","161","501525","0.0-161.0","63135C957B8C43F1A29D919C84B65DE4","019cf79b-235f-7a0e-b720-21a6504418f0","019cf78c-cfcf-769c-9016-9b96552b5e33","","null","
                <div class=""stimulus-container"">
                    <img src=""images/semantic_sequence/visiting_cities_semantic/visiting_cities_semantic_ten.png"" class=""exp-image"">
                    <div class=""question-area""></div> 
                </div>","null","","","","","","","","",""
"","","","","","html-button-response","162","502454","0.0-162.0","63135C957B8C43F1A29D919C84B65DE4","019cf79b-235f-7a0e-b720-21a6504418f0","019cf78c-cfcf-769c-9016-9b96552b5e33","","927","
                <div class=""stimulus-container"">
                    <img src=""images/semantic_sequence/visiting_cities_semantic/visiting_cities_semantic_ten.png"" class=""exp-image"">
                    <div class=""question-area"">
                        <p style=""font-size: 20px; font-weight: bold; margin: 0;"">Is there a person in this image?</p>
                    </div>
                </div>","0","main_experiment_trial","ten","visiting_cities_semantic","semantic_sequence","","","","",""
"","","","","","html-keyboard-response","163","503456","0.0-163.0","63135C957B8C43F1A29D919C84B65DE4","019cf79b-235f-7a0e-b720-21a6504418f0","019cf78c-cfcf-769c-9016-9b96552b5e33","","null","<div style=""background-color: white; width: 100vw; height: 100vh;""></div>","null","","","","","","","","",""
"","","","","","html-keyboard-response","164","508459","0.0-164.0","63135C957B8C43F1A29D919C84B65DE4","019cf79b-235f-7a0e-b720-21a6504418f0","019cf78c-cfcf-769c-9016-9b96552b5e33","","null","
                <div class=""stimulus-container"">
                    <img src=""images/schematic_sequence/interview_scheme/interview_scheme_1.png"" class=""exp-image"">
                    <div class=""question-area""></div> 
                </div>","null","","","","","","","","",""
"","","","","","html-button-response","165","509405","0.0-165.0","63135C957B8C43F1A29D919C84B65DE4","019cf79b-235f-7a0e-b720-21a6504418f0","019cf78c-cfcf-769c-9016-9b96552b5e33","","945","
                <div class=""stimulus-container"">
                    <img src=""images/schematic_sequence/interview_scheme/interview_scheme_1.png"" class=""exp-image"">
                    <div class=""question-area"">
                        <p style=""font-size: 20px; font-weight: bold; margin: 0;"">Is there a person in this image?</p>
                    </div>
                </div>","1","main_experiment_trial","1","interview_scheme","schematic_sequence","","","","",""
"","","","","","html-keyboard-response","166","514407","0.0-166.0","63135C957B8C43F1A29D919C84B65DE4","019cf79b-235f-7a0e-b720-21a6504418f0","019cf78c-cfcf-769c-9016-9b96552b5e33","","null","
                <div class=""stimulus-container"">
                    <img src=""images/schematic_sequence/interview_scheme/interview_scheme_2.png"" class=""exp-image"">
                    <div class=""question-area""></div> 
                </div>","null","","","","","","","","",""
"","","","","","html-button-response","167","515305","0.0-167.0","63135C957B8C43F1A29D919C84B65DE4","019cf79b-235f-7a0e-b720-21a6504418f0","019cf78c-cfcf-769c-9016-9b96552b5e33","","897","
                <div class=""stimulus-container"">
                    <img src=""images/schematic_sequence/interview_scheme/interview_scheme_2.png"" class=""exp-image"">
                    <div class=""question-area"">
                        <p style=""font-size: 20px; font-weight: bold; margin: 0;"">Is there a person in this image?</p>
                    </div>
                </div>","0","main_experiment_trial","2","interview_scheme","schematic_sequence","","","","",""
"","","","","","html-keyboard-response","168","520307","0.0-168.0","63135C957B8C43F1A29D919C84B65DE4","019cf79b-235f-7a0e-b720-21a6504418f0","019cf78c-cfcf-769c-9016-9b96552b5e33","","null","
                <div class=""stimulus-container"">
                    <img src=""images/schematic_sequence/interview_scheme/interview_scheme_3.png"" class=""exp-image"">
                    <div class=""question-area""></div> 
                </div>","null","","","","","","","","",""
"","","","","","html-button-response","169","521022","0.0-169.0","63135C957B8C43F1A29D919C84B65DE4","019cf79b-235f-7a0e-b720-21a6504418f0","019cf78c-cfcf-769c-9016-9b96552b5e33","","714","
                <div class=""stimulus-container"">
                    <img src=""images/schematic_sequence/interview_scheme/interview_scheme_3.png"" class=""exp-image"">
                    <div class=""question-area"">
                        <p style=""font-size: 20px; font-weight: bold; margin: 0;"">Is there a person in this image?</p>
                    </div>
                </div>","1","main_experiment_trial","3","interview_scheme","schematic_sequence","","","","",""
"","","","","","html-keyboard-response","170","526025","0.0-170.0","63135C957B8C43F1A29D919C84B65DE4","019cf79b-235f-7a0e-b720-21a6504418f0","019cf78c-cfcf-769c-9016-9b96552b5e33","","null","
                <div class=""stimulus-container"">
                    <img src=""images/schematic_sequence/interview_scheme/interview_scheme_4.png"" class=""exp-image"">
                    <div class=""question-area""></div> 
                </div>","null","","","","","","","","",""
"","","","","","html-button-response","171","527689","0.0-171.0","63135C957B8C43F1A29D919C84B65DE4","019cf79b-235f-7a0e-b720-21a6504418f0","019cf78c-cfcf-769c-9016-9b96552b5e33","","1662","
                <div class=""stimulus-container"">
                    <img src=""images/schematic_sequence/interview_scheme/interview_scheme_4.png"" class=""exp-image"">
                    <div class=""question-area"">
                        <p style=""font-size: 20px; font-weight: bold; margin: 0;"">Is there a person in this image?</p>
                    </div>
                </div>","1","main_experiment_trial","4","interview_scheme","schematic_sequence","","","","",""
"","","","","","html-keyboard-response","172","532691","0.0-172.0","63135C957B8C43F1A29D919C84B65DE4","019cf79b-235f-7a0e-b720-21a6504418f0","019cf78c-cfcf-769c-9016-9b96552b5e33","","null","
                <div class=""stimulus-container"">
                    <img src=""images/schematic_sequence/interview_scheme/interview_scheme_5.png"" class=""exp-image"">
                    <div class=""question-area""></div> 
                </div>","null","","","","","","","","",""
"","","","","","html-button-response","173","533938","0.0-173.0","63135C957B8C43F1A29D919C84B65DE4","019cf79b-235f-7a0e-b720-21a6504418f0","019cf78c-cfcf-769c-9016-9b96552b5e33","","1245","
                <div class=""stimulus-container"">
                    <img src=""images/schematic_sequence/interview_scheme/interview_scheme_5.png"" class=""exp-image"">
                    <div class=""question-area"">
                        <p style=""font-size: 20px; font-weight: bold; margin: 0;"">Is there a person in this image?</p>
                    </div>
                </div>","0","main_experiment_trial","5","interview_scheme","schematic_sequence","","","","",""
"","","","","","html-keyboard-response","174","538941","0.0-174.0","63135C957B8C43F1A29D919C84B65DE4","019cf79b-235f-7a0e-b720-21a6504418f0","019cf78c-cfcf-769c-9016-9b96552b5e33","","null","
                <div class=""stimulus-container"">
                    <img src=""images/schematic_sequence/interview_scheme/interview_scheme_6.png"" class=""exp-image"">
                    <div class=""question-area""></div> 
                </div>","null","","","","","","","","",""
"","","","","","html-button-response","175","539656","0.0-175.0","63135C957B8C43F1A29D919C84B65DE4","019cf79b-235f-7a0e-b720-21a6504418f0","019cf78c-cfcf-769c-9016-9b96552b5e33","","713","
                <div class=""stimulus-container"">
                    <img src=""images/schematic_sequence/interview_scheme/interview_scheme_6.png"" class=""exp-image"">
                    <div class=""question-area"">
                        <p style=""font-size: 20px; font-weight: bold; margin: 0;"">Is there a person in this image?</p>
                    </div>
                </div>","0","main_experiment_trial","6","interview_scheme","schematic_sequence","","","","",""
"","","","","","html-keyboard-response","176","544659","0.0-176.0","63135C957B8C43F1A29D919C84B65DE4","019cf79b-235f-7a0e-b720-21a6504418f0","019cf78c-cfcf-769c-9016-9b96552b5e33","","null","
                <div class=""stimulus-container"">
                    <img src=""images/schematic_sequence/interview_scheme/interview_scheme_7.png"" class=""exp-image"">
                    <div class=""question-area""></div> 
                </div>","null","","","","","","","","",""
"","","","","","html-button-response","177","545388","0.0-177.0","63135C957B8C43F1A29D919C84B65DE4","019cf79b-235f-7a0e-b720-21a6504418f0","019cf78c-cfcf-769c-9016-9b96552b5e33","","728","
                <div class=""stimulus-container"">
                    <img src=""images/schematic_sequence/interview_scheme/interview_scheme_7.png"" class=""exp-image"">
                    <div class=""question-area"">
                        <p style=""font-size: 20px; font-weight: bold; margin: 0;"">Is there a person in this image?</p>
                    </div>
                </div>","0","main_experiment_trial","7","interview_scheme","schematic_sequence","","","","",""
"","","","","","html-keyboard-response","178","550390","0.0-178.0","63135C957B8C43F1A29D919C84B65DE4","019cf79b-235f-7a0e-b720-21a6504418f0","019cf78c-cfcf-769c-9016-9b96552b5e33","","null","
                <div class=""stimulus-container"">
                    <img src=""images/schematic_sequence/interview_scheme/interview_scheme_8.png"" class=""exp-image"">
                    <div class=""question-area""></div> 
                </div>","null","","","","","","","","",""
"","","","","","html-button-response","179","550937","0.0-179.0","63135C957B8C43F1A29D919C84B65DE4","019cf79b-235f-7a0e-b720-21a6504418f0","019cf78c-cfcf-769c-9016-9b96552b5e33","","545","
                <div class=""stimulus-container"">
                    <img src=""images/schematic_sequence/interview_scheme/interview_scheme_8.png"" class=""exp-image"">
                    <div class=""question-area"">
                        <p style=""font-size: 20px; font-weight: bold; margin: 0;"">Is there a person in this image?</p>
                    </div>
                </div>","0","main_experiment_trial","8","interview_scheme","schematic_sequence","","","","",""
"","","","","","html-keyboard-response","180","555940","0.0-180.0","63135C957B8C43F1A29D919C84B65DE4","019cf79b-235f-7a0e-b720-21a6504418f0","019cf78c-cfcf-769c-9016-9b96552b5e33","","null","
                <div class=""stimulus-container"">
                    <img src=""images/schematic_sequence/interview_scheme/interview_scheme_9.png"" class=""exp-image"">
                    <div class=""question-area""></div> 
                </div>","null","","","","","","","","",""
"","","","","","html-button-response","181","556587","0.0-181.0","63135C957B8C43F1A29D919C84B65DE4","019cf79b-235f-7a0e-b720-21a6504418f0","019cf78c-cfcf-769c-9016-9b96552b5e33","","645","
                <div class=""stimulus-container"">
