"success","timeout","failed_images","failed_audio","failed_video","trial_type","trial_index","time_elapsed","internal_node_id","subject_id","study_id","session_id","view_history","rt","stimulus","response","task","image_index","folder","sequence_type","presentation_order","valuable_image_index","reward_type","distance_from_x","target_X","chosen_image_index","is_x_plus_dist","correct_choice"
"true","false","[]","[]","[]","preload","0","17467","0.0-0.0","5FC40272FE874F57AE1C7754D402B561","019cfa29-e83b-7459-ae41-7fe11bd69c59","019cfa18-54b6-74d4-8209-5fe92d2edcd5","","","","","","","","","","","","","","","",""
"","","","","","instructions","1","29241","0.0-1.0","5FC40272FE874F57AE1C7754D402B561","019cfa29-e83b-7459-ae41-7fe11bd69c59","019cfa18-54b6-74d4-8209-5fe92d2edcd5","[{""page_index"":0,""viewing_time"":11772}]","11772","","","","","","","","","","","","","",""
"","","","","","instructions","2","39533","0.0-2.0","5FC40272FE874F57AE1C7754D402B561","019cfa29-e83b-7459-ae41-7fe11bd69c59","019cfa18-54b6-74d4-8209-5fe92d2edcd5","[{""page_index"":0,""viewing_time"":10290}]","10290","","","","","","","","","","","","","",""
"true","","","","","fullscreen","3","43314","0.0-3.0","5FC40272FE874F57AE1C7754D402B561","019cfa29-e83b-7459-ae41-7fe11bd69c59","019cfa18-54b6-74d4-8209-5fe92d2edcd5","","2759","","","","","","","","","","","","","",""
"","","","","","instructions","4","70718","0.0-4.0","5FC40272FE874F57AE1C7754D402B561","019cfa29-e83b-7459-ae41-7fe11bd69c59","019cfa18-54b6-74d4-8209-5fe92d2edcd5","[{""page_index"":0,""viewing_time"":27403}]","27404","","","","","","","","","","","","","",""
"","","","","","instructions","5","83448","0.0-5.0","5FC40272FE874F57AE1C7754D402B561","019cfa29-e83b-7459-ae41-7fe11bd69c59","019cfa18-54b6-74d4-8209-5fe92d2edcd5","[{""page_index"":0,""viewing_time"":12728}]","12728","","","","","","","","","","","","","",""
"","","","","","html-keyboard-response","6","87467","0.0-6.0","5FC40272FE874F57AE1C7754D402B561","019cfa29-e83b-7459-ae41-7fe11bd69c59","019cfa18-54b6-74d4-8209-5fe92d2edcd5","","null","
                <div class=""stimulus-container"">
                    <img src=""images/instructions/movie_1.png"" class=""exp-image"">
                    <div class=""question-area""></div> 
                </div>","null","","","","","","","","","","","",""
"","","","","","html-button-response","7","89293","0.0-7.0","5FC40272FE874F57AE1C7754D402B561","019cfa29-e83b-7459-ae41-7fe11bd69c59","019cfa18-54b6-74d4-8209-5fe92d2edcd5","","1824","
                <div class=""stimulus-container"">
                    <img src=""images/instructions/movie_1.png"" class=""exp-image"">
                    <div class=""question-area"">
                        <p style=""font-size: 20px; font-weight: bold; margin: 0;"">Was there a person in this image?</p>
                    </div>
                </div>","0","example_question","1","","","","","","","","","",""
"","","","","","html-keyboard-response","8","93299","0.0-8.0","5FC40272FE874F57AE1C7754D402B561","019cfa29-e83b-7459-ae41-7fe11bd69c59","019cfa18-54b6-74d4-8209-5fe92d2edcd5","","null","
                <div class=""stimulus-container"">
                    <img src=""images/instructions/movie_2.png"" class=""exp-image"">
                    <div class=""question-area""></div> 
                </div>","null","","","","","","","","","","","",""
"","","","","","html-button-response","9","96308","0.0-9.0","5FC40272FE874F57AE1C7754D402B561","019cfa29-e83b-7459-ae41-7fe11bd69c59","019cfa18-54b6-74d4-8209-5fe92d2edcd5","","null","
                <div class=""stimulus-container"">
                    <img src=""images/instructions/movie_2.png"" class=""exp-image"">
                    <div class=""question-area"">
                        <p style=""font-size: 20px; font-weight: bold; margin: 0;"">Was there a person in this image?</p>
                    </div>
                </div>","null","example_question","2","","","","","","","","","",""
"","","","","","html-keyboard-response","10","100315","0.0-10.0","5FC40272FE874F57AE1C7754D402B561","019cfa29-e83b-7459-ae41-7fe11bd69c59","019cfa18-54b6-74d4-8209-5fe92d2edcd5","","null","
                <div class=""stimulus-container"">
                    <img src=""images/instructions/movie_3.png"" class=""exp-image"">
                    <div class=""question-area""></div> 
                </div>","null","","","","","","","","","","","",""
"","","","","","html-button-response","11","101441","0.0-11.0","5FC40272FE874F57AE1C7754D402B561","019cfa29-e83b-7459-ae41-7fe11bd69c59","019cfa18-54b6-74d4-8209-5fe92d2edcd5","","1124","
                <div class=""stimulus-container"">
                    <img src=""images/instructions/movie_3.png"" class=""exp-image"">
                    <div class=""question-area"">
                        <p style=""font-size: 20px; font-weight: bold; margin: 0;"">Was there a person in this image?</p>
                    </div>
                </div>","0","example_question","3","","","","","","","","","",""
"","","","","","html-keyboard-response","12","105444","0.0-12.0","5FC40272FE874F57AE1C7754D402B561","019cfa29-e83b-7459-ae41-7fe11bd69c59","019cfa18-54b6-74d4-8209-5fe92d2edcd5","","null","
                <div class=""stimulus-container"">
                    <img src=""images/instructions/movie_4.png"" class=""exp-image"">
                    <div class=""question-area""></div> 
                </div>","null","","","","","","","","","","","",""
"","","","","","html-button-response","13","106492","0.0-13.0","5FC40272FE874F57AE1C7754D402B561","019cfa29-e83b-7459-ae41-7fe11bd69c59","019cfa18-54b6-74d4-8209-5fe92d2edcd5","","1046","
                <div class=""stimulus-container"">
                    <img src=""images/instructions/movie_4.png"" class=""exp-image"">
                    <div class=""question-area"">
                        <p style=""font-size: 20px; font-weight: bold; margin: 0;"">Was there a person in this image?</p>
                    </div>
                </div>","0","example_question","4","","","","","","","","","",""
"","","","","","instructions","14","111153","0.0-14.0","5FC40272FE874F57AE1C7754D402B561","019cfa29-e83b-7459-ae41-7fe11bd69c59","019cfa18-54b6-74d4-8209-5fe92d2edcd5","[{""page_index"":0,""viewing_time"":4660}]","4660","","","","","","","","","","","","","",""
"","","","","","instructions","15","221115","0.0-15.0","5FC40272FE874F57AE1C7754D402B561","019cfa29-e83b-7459-ae41-7fe11bd69c59","019cfa18-54b6-74d4-8209-5fe92d2edcd5","[{""page_index"":0,""viewing_time"":109961}]","109961","","","","","","","","","","","","","",""
"","","","","","html-keyboard-response","16","226123","0.0-16.0","5FC40272FE874F57AE1C7754D402B561","019cfa29-e83b-7459-ae41-7fe11bd69c59","019cfa18-54b6-74d4-8209-5fe92d2edcd5","","null","<div style=""background-color: white; width: 100vw; height: 100vh;""></div>","null","","","","","","","","","","","",""
"","","","","","html-keyboard-response","17","227126","0.0-17.0","5FC40272FE874F57AE1C7754D402B561","019cfa29-e83b-7459-ae41-7fe11bd69c59","019cfa18-54b6-74d4-8209-5fe92d2edcd5","","null","
                <div class=""stimulus-container"">
                    <img src=""images/causal_sequence/coin_causal/coin_causal_1.png"" class=""exp-image"">
                    <div class=""question-area""></div> 
                </div>","null","","","","","","","","","","","",""
"","","","","","html-button-response","18","230139","0.0-18.0","5FC40272FE874F57AE1C7754D402B561","019cfa29-e83b-7459-ae41-7fe11bd69c59","019cfa18-54b6-74d4-8209-5fe92d2edcd5","","null","
                <div class=""stimulus-container"">
                    <img src=""images/causal_sequence/coin_causal/coin_causal_1.png"" class=""exp-image"">
                    <div class=""question-area"">
                        <p style=""font-size: 20px; font-weight: bold; margin: 0;"">Is there a person in this image?</p>
                    </div>
                </div>","null","main_experiment_trial","1","coin_causal","causal_sequence","chronological","","","","","","",""
"","","","","","html-keyboard-response","19","231155","0.0-19.0","5FC40272FE874F57AE1C7754D402B561","019cfa29-e83b-7459-ae41-7fe11bd69c59","019cfa18-54b6-74d4-8209-5fe92d2edcd5","","null","
                <div class=""stimulus-container"">
                    <img src=""images/causal_sequence/coin_causal/coin_causal_2.png"" class=""exp-image"">
                    <div class=""question-area""></div> 
                </div>","null","","","","","","","","","","","",""
"","","","","","html-button-response","20","232251","0.0-20.0","5FC40272FE874F57AE1C7754D402B561","019cfa29-e83b-7459-ae41-7fe11bd69c59","019cfa18-54b6-74d4-8209-5fe92d2edcd5","","1094","
                <div class=""stimulus-container"">
                    <img src=""images/causal_sequence/coin_causal/coin_causal_2.png"" class=""exp-image"">
                    <div class=""question-area"">
                        <p style=""font-size: 20px; font-weight: bold; margin: 0;"">Is there a person in this image?</p>
                    </div>
                </div>","0","main_experiment_trial","2","coin_causal","causal_sequence","chronological","","","","","","",""
"","","","","","html-keyboard-response","21","233263","0.0-21.0","5FC40272FE874F57AE1C7754D402B561","019cfa29-e83b-7459-ae41-7fe11bd69c59","019cfa18-54b6-74d4-8209-5fe92d2edcd5","","null","
                <div class=""stimulus-container"">
                    <img src=""images/causal_sequence/coin_causal/coin_causal_3.png"" class=""exp-image"">
                    <div class=""question-area""></div> 
                </div>","null","","","","","","","","","","","",""
"","","","","","html-button-response","22","234846","0.0-22.0","5FC40272FE874F57AE1C7754D402B561","019cfa29-e83b-7459-ae41-7fe11bd69c59","019cfa18-54b6-74d4-8209-5fe92d2edcd5","","1582","
                <div class=""stimulus-container"">
                    <img src=""images/causal_sequence/coin_causal/coin_causal_3.png"" class=""exp-image"">
                    <div class=""question-area"">
                        <p style=""font-size: 20px; font-weight: bold; margin: 0;"">Is there a person in this image?</p>
                    </div>
                </div>","0","main_experiment_trial","3","coin_causal","causal_sequence","chronological","","","","","","",""
"","","","","","html-keyboard-response","23","235854","0.0-23.0","5FC40272FE874F57AE1C7754D402B561","019cfa29-e83b-7459-ae41-7fe11bd69c59","019cfa18-54b6-74d4-8209-5fe92d2edcd5","","null","
                <div class=""stimulus-container"">
                    <img src=""images/causal_sequence/coin_causal/coin_causal_4.png"" class=""exp-image"">
                    <div class=""question-area""></div> 
                </div>","null","","","","","","","","","","","",""
"","","","","","html-button-response","24","236758","0.0-24.0","5FC40272FE874F57AE1C7754D402B561","019cfa29-e83b-7459-ae41-7fe11bd69c59","019cfa18-54b6-74d4-8209-5fe92d2edcd5","","902","
                <div class=""stimulus-container"">
                    <img src=""images/causal_sequence/coin_causal/coin_causal_4.png"" class=""exp-image"">
                    <div class=""question-area"">
                        <p style=""font-size: 20px; font-weight: bold; margin: 0;"">Is there a person in this image?</p>
                    </div>
                </div>","0","main_experiment_trial","4","coin_causal","causal_sequence","chronological","","","","","","",""
"","","","","","html-keyboard-response","25","237775","0.0-25.0","5FC40272FE874F57AE1C7754D402B561","019cfa29-e83b-7459-ae41-7fe11bd69c59","019cfa18-54b6-74d4-8209-5fe92d2edcd5","","null","
                <div class=""stimulus-container"">
                    <img src=""images/causal_sequence/coin_causal/coin_causal_5.png"" class=""exp-image"">
                    <div class=""question-area""></div> 
                </div>","null","","","","","","","","","","","",""
"","","","","","html-button-response","26","239522","0.0-26.0","5FC40272FE874F57AE1C7754D402B561","019cfa29-e83b-7459-ae41-7fe11bd69c59","019cfa18-54b6-74d4-8209-5fe92d2edcd5","","1746","
                <div class=""stimulus-container"">
                    <img src=""images/causal_sequence/coin_causal/coin_causal_5.png"" class=""exp-image"">
                    <div class=""question-area"">
                        <p style=""font-size: 20px; font-weight: bold; margin: 0;"">Is there a person in this image?</p>
                    </div>
                </div>","0","main_experiment_trial","5","coin_causal","causal_sequence","chronological","","","","","","",""
"","","","","","html-keyboard-response","27","240524","0.0-27.0","5FC40272FE874F57AE1C7754D402B561","019cfa29-e83b-7459-ae41-7fe11bd69c59","019cfa18-54b6-74d4-8209-5fe92d2edcd5","","null","
                <div class=""stimulus-container"">
                    <img src=""images/causal_sequence/coin_causal/coin_causal_6.png"" class=""exp-image"">
                    <div class=""question-area""></div> 
                </div>","null","","","","","","","","","","","",""
"","","","","","html-button-response","28","241595","0.0-28.0","5FC40272FE874F57AE1C7754D402B561","019cfa29-e83b-7459-ae41-7fe11bd69c59","019cfa18-54b6-74d4-8209-5fe92d2edcd5","","1069","
                <div class=""stimulus-container"">
                    <img src=""images/causal_sequence/coin_causal/coin_causal_6.png"" class=""exp-image"">
                    <div class=""question-area"">
                        <p style=""font-size: 20px; font-weight: bold; margin: 0;"">Is there a person in this image?</p>
                    </div>
                </div>","0","main_experiment_trial","6","coin_causal","causal_sequence","chronological","","","","","","",""
"","","","","","html-keyboard-response","29","242610","0.0-29.0","5FC40272FE874F57AE1C7754D402B561","019cfa29-e83b-7459-ae41-7fe11bd69c59","019cfa18-54b6-74d4-8209-5fe92d2edcd5","","null","
                <div class=""stimulus-container"">
                    <img src=""images/causal_sequence/coin_causal/coin_causal_7.png"" class=""exp-image"">
                    <div class=""question-area""></div> 
                </div>","null","","","","","","","","","","","",""
"","","","","","html-button-response","30","243831","0.0-30.0","5FC40272FE874F57AE1C7754D402B561","019cfa29-e83b-7459-ae41-7fe11bd69c59","019cfa18-54b6-74d4-8209-5fe92d2edcd5","","1219","
                <div class=""stimulus-container"">
                    <img src=""images/causal_sequence/coin_causal/coin_causal_7.png"" class=""exp-image"">
                    <div class=""question-area"">
                        <p style=""font-size: 20px; font-weight: bold; margin: 0;"">Is there a person in this image?</p>
                    </div>
                </div>","1","main_experiment_trial","7","coin_causal","causal_sequence","chronological","","","","","","",""
"","","","","","html-keyboard-response","31","244839","0.0-31.0","5FC40272FE874F57AE1C7754D402B561","019cfa29-e83b-7459-ae41-7fe11bd69c59","019cfa18-54b6-74d4-8209-5fe92d2edcd5","","null","
                <div class=""stimulus-container"">
                    <img src=""images/causal_sequence/coin_causal/coin_causal_8.png"" class=""exp-image"">
                    <div class=""question-area""></div> 
                </div>","null","","","","","","","","","","","",""
"","","","","","html-button-response","32","245935","0.0-32.0","5FC40272FE874F57AE1C7754D402B561","019cfa29-e83b-7459-ae41-7fe11bd69c59","019cfa18-54b6-74d4-8209-5fe92d2edcd5","","1095","
                <div class=""stimulus-container"">
                    <img src=""images/causal_sequence/coin_causal/coin_causal_8.png"" class=""exp-image"">
                    <div class=""question-area"">
                        <p style=""font-size: 20px; font-weight: bold; margin: 0;"">Is there a person in this image?</p>
                    </div>
                </div>","0","main_experiment_trial","8","coin_causal","causal_sequence","chronological","","","","","","",""
"","","","","","html-keyboard-response","33","246944","0.0-33.0","5FC40272FE874F57AE1C7754D402B561","019cfa29-e83b-7459-ae41-7fe11bd69c59","019cfa18-54b6-74d4-8209-5fe92d2edcd5","","null","
                <div class=""stimulus-container"">
                    <img src=""images/causal_sequence/coin_causal/coin_causal_9.png"" class=""exp-image"">
                    <div class=""question-area""></div> 
                </div>","null","","","","","","","","","","","",""
"","","","","","html-button-response","34","248017","0.0-34.0","5FC40272FE874F57AE1C7754D402B561","019cfa29-e83b-7459-ae41-7fe11bd69c59","019cfa18-54b6-74d4-8209-5fe92d2edcd5","","1072","
                <div class=""stimulus-container"">
                    <img src=""images/causal_sequence/coin_causal/coin_causal_9.png"" class=""exp-image"">
                    <div class=""question-area"">
                        <p style=""font-size: 20px; font-weight: bold; margin: 0;"">Is there a person in this image?</p>
                    </div>
                </div>","0","main_experiment_trial","9","coin_causal","causal_sequence","chronological","","","","","","",""
"","","","","","html-keyboard-response","35","249020","0.0-35.0","5FC40272FE874F57AE1C7754D402B561","019cfa29-e83b-7459-ae41-7fe11bd69c59","019cfa18-54b6-74d4-8209-5fe92d2edcd5","","null","
                <div class=""stimulus-container"">
                    <img src=""images/causal_sequence/coin_causal/coin_causal_ten.png"" class=""exp-image"">
                    <div class=""question-area""></div> 
                </div>","null","","","","","","","","","","","",""
"","","","","","html-button-response","36","250044","0.0-36.0","5FC40272FE874F57AE1C7754D402B561","019cfa29-e83b-7459-ae41-7fe11bd69c59","019cfa18-54b6-74d4-8209-5fe92d2edcd5","","1022","
                <div class=""stimulus-container"">
                    <img src=""images/causal_sequence/coin_causal/coin_causal_ten.png"" class=""exp-image"">
                    <div class=""question-area"">
                        <p style=""font-size: 20px; font-weight: bold; margin: 0;"">Is there a person in this image?</p>
                    </div>
                </div>","0","main_experiment_trial","ten","coin_causal","causal_sequence","chronological","","","","","","",""
"","","","","","html-keyboard-response","37","255047","0.0-37.0","5FC40272FE874F57AE1C7754D402B561","019cfa29-e83b-7459-ae41-7fe11bd69c59","019cfa18-54b6-74d4-8209-5fe92d2edcd5","","null","<div style=""background-color: white; width: 100vw; height: 100vh;""></div>","null","","","","","","","","","","","",""
"","","","","","html-keyboard-response","38","256064","0.0-38.0","5FC40272FE874F57AE1C7754D402B561","019cfa29-e83b-7459-ae41-7fe11bd69c59","019cfa18-54b6-74d4-8209-5fe92d2edcd5","","null","
                <div class=""stimulus-container"">
                    <img src=""images/semantic_sequence/physical_activity_semantic/physical_activity_semantic_1.png"" class=""exp-image"">
                    <div class=""question-area""></div> 
                </div>","null","","","","","","","","","","","",""
"","","","","","html-button-response","39","258114","0.0-39.0","5FC40272FE874F57AE1C7754D402B561","019cfa29-e83b-7459-ae41-7fe11bd69c59","019cfa18-54b6-74d4-8209-5fe92d2edcd5","","2049","
                <div class=""stimulus-container"">
                    <img src=""images/semantic_sequence/physical_activity_semantic/physical_activity_semantic_1.png"" class=""exp-image"">
                    <div class=""question-area"">
                        <p style=""font-size: 20px; font-weight: bold; margin: 0;"">Is there a person in this image?</p>
                    </div>
                </div>","0","main_experiment_trial","1","physical_activity_semantic","semantic_sequence","chronological","","","","","","",""
"","","","","","html-keyboard-response","40","259127","0.0-40.0","5FC40272FE874F57AE1C7754D402B561","019cfa29-e83b-7459-ae41-7fe11bd69c59","019cfa18-54b6-74d4-8209-5fe92d2edcd5","","null","
                <div class=""stimulus-container"">
                    <img src=""images/semantic_sequence/physical_activity_semantic/physical_activity_semantic_2.png"" class=""exp-image"">
                    <div class=""question-area""></div> 
                </div>","null","","","","","","","","","","","",""
"","","","","","html-button-response","41","259818","0.0-41.0","5FC40272FE874F57AE1C7754D402B561","019cfa29-e83b-7459-ae41-7fe11bd69c59","019cfa18-54b6-74d4-8209-5fe92d2edcd5","","689","
                <div class=""stimulus-container"">
                    <img src=""images/semantic_sequence/physical_activity_semantic/physical_activity_semantic_2.png"" class=""exp-image"">
                    <div class=""question-area"">
                        <p style=""font-size: 20px; font-weight: bold; margin: 0;"">Is there a person in this image?</p>
                    </div>
                </div>","0","main_experiment_trial","2","physical_activity_semantic","semantic_sequence","chronological","","","","","","",""
"","","","","","html-keyboard-response","42","260827","0.0-42.0","5FC40272FE874F57AE1C7754D402B561","019cfa29-e83b-7459-ae41-7fe11bd69c59","019cfa18-54b6-74d4-8209-5fe92d2edcd5","","null","
                <div class=""stimulus-container"">
                    <img src=""images/semantic_sequence/physical_activity_semantic/physical_activity_semantic_3.png"" class=""exp-image"">
                    <div class=""question-area""></div> 
                </div>","null","","","","","","","","","","","",""
"","","","","","html-button-response","43","261701","0.0-43.0","5FC40272FE874F57AE1C7754D402B561","019cfa29-e83b-7459-ae41-7fe11bd69c59","019cfa18-54b6-74d4-8209-5fe92d2edcd5","","873","
                <div class=""stimulus-container"">
                    <img src=""images/semantic_sequence/physical_activity_semantic/physical_activity_semantic_3.png"" class=""exp-image"">
                    <div class=""question-area"">
                        <p style=""font-size: 20px; font-weight: bold; margin: 0;"">Is there a person in this image?</p>
                    </div>
                </div>","0","main_experiment_trial","3","physical_activity_semantic","semantic_sequence","chronological","","","","","","",""
"","","","","","html-keyboard-response","44","262711","0.0-44.0","5FC40272FE874F57AE1C7754D402B561","019cfa29-e83b-7459-ae41-7fe11bd69c59","019cfa18-54b6-74d4-8209-5fe92d2edcd5","","null","
                <div class=""stimulus-container"">
                    <img src=""images/semantic_sequence/physical_activity_semantic/physical_activity_semantic_4.png"" class=""exp-image"">
                    <div class=""question-area""></div> 
                </div>","null","","","","","","","","","","","",""
"","","","","","html-button-response","45","263618","0.0-45.0","5FC40272FE874F57AE1C7754D402B561","019cfa29-e83b-7459-ae41-7fe11bd69c59","019cfa18-54b6-74d4-8209-5fe92d2edcd5","","905","
                <div class=""stimulus-container"">
                    <img src=""images/semantic_sequence/physical_activity_semantic/physical_activity_semantic_4.png"" class=""exp-image"">
                    <div class=""question-area"">
                        <p style=""font-size: 20px; font-weight: bold; margin: 0;"">Is there a person in this image?</p>
                    </div>
                </div>","0","main_experiment_trial","4","physical_activity_semantic","semantic_sequence","chronological","","","","","","",""
"","","","","","html-keyboard-response","46","264635","0.0-46.0","5FC40272FE874F57AE1C7754D402B561","019cfa29-e83b-7459-ae41-7fe11bd69c59","019cfa18-54b6-74d4-8209-5fe92d2edcd5","","null","
                <div class=""stimulus-container"">
                    <img src=""images/semantic_sequence/physical_activity_semantic/physical_activity_semantic_5.png"" class=""exp-image"">
                    <div class=""question-area""></div> 
                </div>","null","","","","","","","","","","","",""
"","","","","","html-button-response","47","265734","0.0-47.0","5FC40272FE874F57AE1C7754D402B561","019cfa29-e83b-7459-ae41-7fe11bd69c59","019cfa18-54b6-74d4-8209-5fe92d2edcd5","","1097","
                <div class=""stimulus-container"">
                    <img src=""images/semantic_sequence/physical_activity_semantic/physical_activity_semantic_5.png"" class=""exp-image"">
                    <div class=""question-area"">
                        <p style=""font-size: 20px; font-weight: bold; margin: 0;"">Is there a person in this image?</p>
                    </div>
                </div>","0","main_experiment_trial","5","physical_activity_semantic","semantic_sequence","chronological","","","","","","",""
"","","","","","html-keyboard-response","48","266744","0.0-48.0","5FC40272FE874F57AE1C7754D402B561","019cfa29-e83b-7459-ae41-7fe11bd69c59","019cfa18-54b6-74d4-8209-5fe92d2edcd5","","null","
                <div class=""stimulus-container"">
                    <img src=""images/semantic_sequence/physical_activity_semantic/physical_activity_semantic_6.png"" class=""exp-image"">
                    <div class=""question-area""></div> 
                </div>","null","","","","","","","","","","","",""
"","","","","","html-button-response","49","267819","0.0-49.0","5FC40272FE874F57AE1C7754D402B561","019cfa29-e83b-7459-ae41-7fe11bd69c59","019cfa18-54b6-74d4-8209-5fe92d2edcd5","","1073","
                <div class=""stimulus-container"">
                    <img src=""images/semantic_sequence/physical_activity_semantic/physical_activity_semantic_6.png"" class=""exp-image"">
                    <div class=""question-area"">
                        <p style=""font-size: 20px; font-weight: bold; margin: 0;"">Is there a person in this image?</p>
                    </div>
                </div>","0","main_experiment_trial","6","physical_activity_semantic","semantic_sequence","chronological","","","","","","",""
"","","","","","html-keyboard-response","50","268832","0.0-50.0","5FC40272FE874F57AE1C7754D402B561","019cfa29-e83b-7459-ae41-7fe11bd69c59","019cfa18-54b6-74d4-8209-5fe92d2edcd5","","null","
                <div class=""stimulus-container"">
                    <img src=""images/semantic_sequence/physical_activity_semantic/physical_activity_semantic_7.png"" class=""exp-image"">
                    <div class=""question-area""></div> 
                </div>","null","","","","","","","","","","","",""
"","","","","","html-button-response","51","270151","0.0-51.0","5FC40272FE874F57AE1C7754D402B561","019cfa29-e83b-7459-ae41-7fe11bd69c59","019cfa18-54b6-74d4-8209-5fe92d2edcd5","","1317","
                <div class=""stimulus-container"">
                    <img src=""images/semantic_sequence/physical_activity_semantic/physical_activity_semantic_7.png"" class=""exp-image"">
                    <div class=""question-area"">
                        <p style=""font-size: 20px; font-weight: bold; margin: 0;"">Is there a person in this image?</p>
                    </div>
                </div>","0","main_experiment_trial","7","physical_activity_semantic","semantic_sequence","chronological","","","","","","",""
"","","","","","html-keyboard-response","52","271166","0.0-52.0","5FC40272FE874F57AE1C7754D402B561","019cfa29-e83b-7459-ae41-7fe11bd69c59","019cfa18-54b6-74d4-8209-5fe92d2edcd5","","null","
                <div class=""stimulus-container"">
                    <img src=""images/semantic_sequence/physical_activity_semantic/physical_activity_semantic_8.png"" class=""exp-image"">
                    <div class=""question-area""></div> 
                </div>","null","","","","","","","","","","","",""
"","","","","","html-button-response","53","273783","0.0-53.0","5FC40272FE874F57AE1C7754D402B561","019cfa29-e83b-7459-ae41-7fe11bd69c59","019cfa18-54b6-74d4-8209-5fe92d2edcd5","","2616","
                <div class=""stimulus-container"">
                    <img src=""images/semantic_sequence/physical_activity_semantic/physical_activity_semantic_8.png"" class=""exp-image"">
                    <div class=""question-area"">
                        <p style=""font-size: 20px; font-weight: bold; margin: 0;"">Is there a person in this image?</p>
                    </div>
                </div>","0","main_experiment_trial","8","physical_activity_semantic","semantic_sequence","chronological","","","","","","",""
"","","","","","html-keyboard-response","54","274787","0.0-54.0","5FC40272FE874F57AE1C7754D402B561","019cfa29-e83b-7459-ae41-7fe11bd69c59","019cfa18-54b6-74d4-8209-5fe92d2edcd5","","null","
                <div class=""stimulus-container"">
                    <img src=""images/semantic_sequence/physical_activity_semantic/physical_activity_semantic_9.png"" class=""exp-image"">
                    <div class=""question-area""></div> 
                </div>","null","","","","","","","","","","","",""
"","","","","","html-button-response","55","275668","0.0-55.0","5FC40272FE874F57AE1C7754D402B561","019cfa29-e83b-7459-ae41-7fe11bd69c59","019cfa18-54b6-74d4-8209-5fe92d2edcd5","","878","
                <div class=""stimulus-container"">
                    <img src=""images/semantic_sequence/physical_activity_semantic/physical_activity_semantic_9.png"" class=""exp-image"">
                    <div class=""question-area"">
                        <p style=""font-size: 20px; font-weight: bold; margin: 0;"">Is there a person in this image?</p>
                    </div>
                </div>","0","main_experiment_trial","9","physical_activity_semantic","semantic_sequence","chronological","","","","","","",""
"","","","","","html-keyboard-response","56","276681","0.0-56.0","5FC40272FE874F57AE1C7754D402B561","019cfa29-e83b-7459-ae41-7fe11bd69c59","019cfa18-54b6-74d4-8209-5fe92d2edcd5","","null","
                <div class=""stimulus-container"">
                    <img src=""images/semantic_sequence/physical_activity_semantic/physical_activity_semantic_ten.png"" class=""exp-image"">
                    <div class=""question-area""></div> 
                </div>","null","","","","","","","","","","","",""
"","","","","","html-button-response","57","277550","0.0-57.0","5FC40272FE874F57AE1C7754D402B561","019cfa29-e83b-7459-ae41-7fe11bd69c59","019cfa18-54b6-74d4-8209-5fe92d2edcd5","","868","
                <div class=""stimulus-container"">
                    <img src=""images/semantic_sequence/physical_activity_semantic/physical_activity_semantic_ten.png"" class=""exp-image"">
                    <div class=""question-area"">
                        <p style=""font-size: 20px; font-weight: bold; margin: 0;"">Is there a person in this image?</p>
                    </div>
                </div>","0","main_experiment_trial","ten","physical_activity_semantic","semantic_sequence","chronological","","","","","","",""
"","","","","","html-keyboard-response","58","282563","0.0-58.0","5FC40272FE874F57AE1C7754D402B561","019cfa29-e83b-7459-ae41-7fe11bd69c59","019cfa18-54b6-74d4-8209-5fe92d2edcd5","","null","<div style=""background-color: white; width: 100vw; height: 100vh;""></div>","null","","","","","","","","","","","",""
"","","","","","html-keyboard-response","59","283574","0.0-59.0","5FC40272FE874F57AE1C7754D402B561","019cfa29-e83b-7459-ae41-7fe11bd69c59","019cfa18-54b6-74d4-8209-5fe92d2edcd5","","null","
                <div class=""stimulus-container"">
                    <img src=""images/causal_sequence/dog_causal/dog_causal_1.png"" class=""exp-image"">
                    <div class=""question-area""></div> 
                </div>","null","","","","","","","","","","","",""
"","","","","","html-button-response","60","285180","0.0-60.0","5FC40272FE874F57AE1C7754D402B561","019cfa29-e83b-7459-ae41-7fe11bd69c59","019cfa18-54b6-74d4-8209-5fe92d2edcd5","","1604","
                <div class=""stimulus-container"">
                    <img src=""images/causal_sequence/dog_causal/dog_causal_1.png"" class=""exp-image"">
                    <div class=""question-area"">
                        <p style=""font-size: 20px; font-weight: bold; margin: 0;"">Is there a person in this image?</p>
                    </div>
                </div>","0","main_experiment_trial","1","dog_causal","causal_sequence","chronological","","","","","","",""
"","","","","","html-keyboard-response","61","286186","0.0-61.0","5FC40272FE874F57AE1C7754D402B561","019cfa29-e83b-7459-ae41-7fe11bd69c59","019cfa18-54b6-74d4-8209-5fe92d2edcd5","","null","
                <div class=""stimulus-container"">
                    <img src=""images/causal_sequence/dog_causal/dog_causal_2.png"" class=""exp-image"">
                    <div class=""question-area""></div> 
                </div>","null","","","","","","","","","","","",""
"","","","","","html-button-response","62","287216","0.0-62.0","5FC40272FE874F57AE1C7754D402B561","019cfa29-e83b-7459-ae41-7fe11bd69c59","019cfa18-54b6-74d4-8209-5fe92d2edcd5","","1029","
                <div class=""stimulus-container"">
                    <img src=""images/causal_sequence/dog_causal/dog_causal_2.png"" class=""exp-image"">
                    <div class=""question-area"">
                        <p style=""font-size: 20px; font-weight: bold; margin: 0;"">Is there a person in this image?</p>
                    </div>
                </div>","0","main_experiment_trial","2","dog_causal","causal_sequence","chronological","","","","","","",""
"","","","","","html-keyboard-response","63","288225","0.0-63.0","5FC40272FE874F57AE1C7754D402B561","019cfa29-e83b-7459-ae41-7fe11bd69c59","019cfa18-54b6-74d4-8209-5fe92d2edcd5","","null","
                <div class=""stimulus-container"">
                    <img src=""images/causal_sequence/dog_causal/dog_causal_3.png"" class=""exp-image"">
                    <div class=""question-area""></div> 
                </div>","null","","","","","","","","","","","",""
"","","","","","html-button-response","64","289067","0.0-64.0","5FC40272FE874F57AE1C7754D402B561","019cfa29-e83b-7459-ae41-7fe11bd69c59","019cfa18-54b6-74d4-8209-5fe92d2edcd5","","840","
                <div class=""stimulus-container"">
                    <img src=""images/causal_sequence/dog_causal/dog_causal_3.png"" class=""exp-image"">
                    <div class=""question-area"">
                        <p style=""font-size: 20px; font-weight: bold; margin: 0;"">Is there a person in this image?</p>
                    </div>
                </div>","0","main_experiment_trial","3","dog_causal","causal_sequence","chronological","","","","","","",""
"","","","","","html-keyboard-response","65","290075","0.0-65.0","5FC40272FE874F57AE1C7754D402B561","019cfa29-e83b-7459-ae41-7fe11bd69c59","019cfa18-54b6-74d4-8209-5fe92d2edcd5","","null","
                <div class=""stimulus-container"">
                    <img src=""images/causal_sequence/dog_causal/dog_causal_4.png"" class=""exp-image"">
                    <div class=""question-area""></div> 
                </div>","null","","","","","","","","","","","",""
"","","","","","html-button-response","66","290750","0.0-66.0","5FC40272FE874F57AE1C7754D402B561","019cfa29-e83b-7459-ae41-7fe11bd69c59","019cfa18-54b6-74d4-8209-5fe92d2edcd5","","673","
                <div class=""stimulus-container"">
                    <img src=""images/causal_sequence/dog_causal/dog_causal_4.png"" class=""exp-image"">
                    <div class=""question-area"">
                        <p style=""font-size: 20px; font-weight: bold; margin: 0;"">Is there a person in this image?</p>
                    </div>
                </div>","0","main_experiment_trial","4","dog_causal","causal_sequence","chronological","","","","","","",""
"","","","","","html-keyboard-response","67","291767","0.0-67.0","5FC40272FE874F57AE1C7754D402B561","019cfa29-e83b-7459-ae41-7fe11bd69c59","019cfa18-54b6-74d4-8209-5fe92d2edcd5","","null","
                <div class=""stimulus-container"">
                    <img src=""images/causal_sequence/dog_causal/dog_causal_5.png"" class=""exp-image"">
                    <div class=""question-area""></div> 
                </div>","null","","","","","","","","","","","",""
"","","","","","html-button-response","68","293068","0.0-68.0","5FC40272FE874F57AE1C7754D402B561","019cfa29-e83b-7459-ae41-7fe11bd69c59","019cfa18-54b6-74d4-8209-5fe92d2edcd5","","1300","
                <div class=""stimulus-container"">
                    <img src=""images/causal_sequence/dog_causal/dog_causal_5.png"" class=""exp-image"">
                    <div class=""question-area"">
                        <p style=""font-size: 20px; font-weight: bold; margin: 0;"">Is there a person in this image?</p>
                    </div>
                </div>","0","main_experiment_trial","5","dog_causal","causal_sequence","chronological","","","","","","",""
"","","","","","html-keyboard-response","69","294071","0.0-69.0","5FC40272FE874F57AE1C7754D402B561","019cfa29-e83b-7459-ae41-7fe11bd69c59","019cfa18-54b6-74d4-8209-5fe92d2edcd5","","null","
                <div class=""stimulus-container"">
                    <img src=""images/causal_sequence/dog_causal/dog_causal_6.png"" class=""exp-image"">
                    <div class=""question-area""></div> 
                </div>","null","","","","","","","","","","","",""
"","","","","","html-button-response","70","294783","0.0-70.0","5FC40272FE874F57AE1C7754D402B561","019cfa29-e83b-7459-ae41-7fe11bd69c59","019cfa18-54b6-74d4-8209-5fe92d2edcd5","","710","
                <div class=""stimulus-container"">
                    <img src=""images/causal_sequence/dog_causal/dog_causal_6.png"" class=""exp-image"">
                    <div class=""question-area"">
                        <p style=""font-size: 20px; font-weight: bold; margin: 0;"">Is there a person in this image?</p>
                    </div>
                </div>","0","main_experiment_trial","6","dog_causal","causal_sequence","chronological","","","","","","",""
"","","","","","html-keyboard-response","71","295798","0.0-71.0","5FC40272FE874F57AE1C7754D402B561","019cfa29-e83b-7459-ae41-7fe11bd69c59","019cfa18-54b6-74d4-8209-5fe92d2edcd5","","null","
                <div class=""stimulus-container"">
                    <img src=""images/causal_sequence/dog_causal/dog_causal_7.png"" class=""exp-image"">
                    <div class=""question-area""></div> 
                </div>","null","","","","","","","","","","","",""
"","","","","","html-button-response","72","296970","0.0-72.0","5FC40272FE874F57AE1C7754D402B561","019cfa29-e83b-7459-ae41-7fe11bd69c59","019cfa18-54b6-74d4-8209-5fe92d2edcd5","","1171","
                <div class=""stimulus-container"">
                    <img src=""images/causal_sequence/dog_causal/dog_causal_7.png"" class=""exp-image"">
                    <div class=""question-area"">
                        <p style=""font-size: 20px; font-weight: bold; margin: 0;"">Is there a person in this image?</p>
                    </div>
                </div>","0","main_experiment_trial","7","dog_causal","causal_sequence","chronological","","","","","","",""
"","","","","","html-keyboard-response","73","297974","0.0-73.0","5FC40272FE874F57AE1C7754D402B561","019cfa29-e83b-7459-ae41-7fe11bd69c59","019cfa18-54b6-74d4-8209-5fe92d2edcd5","","null","
                <div class=""stimulus-container"">
                    <img src=""images/causal_sequence/dog_causal/dog_causal_8.png"" class=""exp-image"">
                    <div class=""question-area""></div> 
                </div>","null","","","","","","","","","","","",""
"","","","","","html-button-response","74","299412","0.0-74.0","5FC40272FE874F57AE1C7754D402B561","019cfa29-e83b-7459-ae41-7fe11bd69c59","019cfa18-54b6-74d4-8209-5fe92d2edcd5","","1436","
                <div class=""stimulus-container"">
                    <img src=""images/causal_sequence/dog_causal/dog_causal_8.png"" class=""exp-image"">
                    <div class=""question-area"">
                        <p style=""font-size: 20px; font-weight: bold; margin: 0;"">Is there a person in this image?</p>
                    </div>
                </div>","0","main_experiment_trial","8","dog_causal","causal_sequence","chronological","","","","","","",""
"","","","","","html-keyboard-response","75","300423","0.0-75.0","5FC40272FE874F57AE1C7754D402B561","019cfa29-e83b-7459-ae41-7fe11bd69c59","019cfa18-54b6-74d4-8209-5fe92d2edcd5","","null","
                <div class=""stimulus-container"">
                    <img src=""images/causal_sequence/dog_causal/dog_causal_9.png"" class=""exp-image"">
                    <div class=""question-area""></div> 
                </div>","null","","","","","","","","","","","",""
"","","","","","html-button-response","76","301202","0.0-76.0","5FC40272FE874F57AE1C7754D402B561","019cfa29-e83b-7459-ae41-7fe11bd69c59","019cfa18-54b6-74d4-8209-5fe92d2edcd5","","778","
                <div class=""stimulus-container"">
                    <img src=""images/causal_sequence/dog_causal/dog_causal_9.png"" class=""exp-image"">
                    <div class=""question-area"">
                        <p style=""font-size: 20px; font-weight: bold; margin: 0;"">Is there a person in this image?</p>
                    </div>
                </div>","0","main_experiment_trial","9","dog_causal","causal_sequence","chronological","","","","","","",""
"","","","","","html-keyboard-response","77","302218","0.0-77.0","5FC40272FE874F57AE1C7754D402B561","019cfa29-e83b-7459-ae41-7fe11bd69c59","019cfa18-54b6-74d4-8209-5fe92d2edcd5","","null","
                <div class=""stimulus-container"">
                    <img src=""images/causal_sequence/dog_causal/dog_causal_ten.png"" class=""exp-image"">
                    <div class=""question-area""></div> 
                </div>","null","","","","","","","","","","","",""
"","","","","","html-button-response","78","303102","0.0-78.0","5FC40272FE874F57AE1C7754D402B561","019cfa29-e83b-7459-ae41-7fe11bd69c59","019cfa18-54b6-74d4-8209-5fe92d2edcd5","","883","
                <div class=""stimulus-container"">
                    <img src=""images/causal_sequence/dog_causal/dog_causal_ten.png"" class=""exp-image"">
                    <div class=""question-area"">
                        <p style=""font-size: 20px; font-weight: bold; margin: 0;"">Is there a person in this image?</p>
                    </div>
                </div>","0","main_experiment_trial","ten","dog_causal","causal_sequence","chronological","","","","","","",""
"","","","","","html-keyboard-response","79","308119","0.0-79.0","5FC40272FE874F57AE1C7754D402B561","019cfa29-e83b-7459-ae41-7fe11bd69c59","019cfa18-54b6-74d4-8209-5fe92d2edcd5","","null","<div style=""background-color: white; width: 100vw; height: 100vh;""></div>","null","","","","","","","","","","","",""
"","","","","","html-keyboard-response","80","309128","0.0-80.0","5FC40272FE874F57AE1C7754D402B561","019cfa29-e83b-7459-ae41-7fe11bd69c59","019cfa18-54b6-74d4-8209-5fe92d2edcd5","","null","
                <div class=""stimulus-container"">
                    <img src=""images/semantic_sequence/using_technology_semantic/using_technology_semantic_1.png"" class=""exp-image"">
                    <div class=""question-area""></div> 
                </div>","null","","","","","","","","","","","",""
"","","","","","html-button-response","81","310710","0.0-81.0","5FC40272FE874F57AE1C7754D402B561","019cfa29-e83b-7459-ae41-7fe11bd69c59","019cfa18-54b6-74d4-8209-5fe92d2edcd5","","1580","
                <div class=""stimulus-container"">
                    <img src=""images/semantic_sequence/using_technology_semantic/using_technology_semantic_1.png"" class=""exp-image"">
                    <div class=""question-area"">
                        <p style=""font-size: 20px; font-weight: bold; margin: 0;"">Is there a person in this image?</p>
                    </div>
                </div>","0","main_experiment_trial","1","using_technology_semantic","semantic_sequence","chronological","","","","","","",""
"","","","","","html-keyboard-response","82","311719","0.0-82.0","5FC40272FE874F57AE1C7754D402B561","019cfa29-e83b-7459-ae41-7fe11bd69c59","019cfa18-54b6-74d4-8209-5fe92d2edcd5","","null","
                <div class=""stimulus-container"">
                    <img src=""images/semantic_sequence/using_technology_semantic/using_technology_semantic_2.png"" class=""exp-image"">
                    <div class=""question-area""></div> 
                </div>","null","","","","","","","","","","","",""
"","","","","","html-button-response","83","312402","0.0-83.0","5FC40272FE874F57AE1C7754D402B561","019cfa29-e83b-7459-ae41-7fe11bd69c59","019cfa18-54b6-74d4-8209-5fe92d2edcd5","","681","
                <div class=""stimulus-container"">
                    <img src=""images/semantic_sequence/using_technology_semantic/using_technology_semantic_2.png"" class=""exp-image"">
                    <div class=""question-area"">
                        <p style=""font-size: 20px; font-weight: bold; margin: 0;"">Is there a person in this image?</p>
                    </div>
                </div>","0","main_experiment_trial","2","using_technology_semantic","semantic_sequence","chronological","","","","","","",""
"","","","","","html-keyboard-response","84","313417","0.0-84.0","5FC40272FE874F57AE1C7754D402B561","019cfa29-e83b-7459-ae41-7fe11bd69c59","019cfa18-54b6-74d4-8209-5fe92d2edcd5","","null","
                <div class=""stimulus-container"">
                    <img src=""images/semantic_sequence/using_technology_semantic/using_technology_semantic_3.png"" class=""exp-image"">
                    <div class=""question-area""></div> 
                </div>","null","","","","","","","","","","","",""
"","","","","","html-button-response","85","314163","0.0-85.0","5FC40272FE874F57AE1C7754D402B561","019cfa29-e83b-7459-ae41-7fe11bd69c59","019cfa18-54b6-74d4-8209-5fe92d2edcd5","","744","
                <div class=""stimulus-container"">
                    <img src=""images/semantic_sequence/using_technology_semantic/using_technology_semantic_3.png"" class=""exp-image"">
                    <div class=""question-area"">
                        <p style=""font-size: 20px; font-weight: bold; margin: 0;"">Is there a person in this image?</p>
                    </div>
                </div>","0","main_experiment_trial","3","using_technology_semantic","semantic_sequence","chronological","","","","","","",""
"","","","","","html-keyboard-response","86","315167","0.0-86.0","5FC40272FE874F57AE1C7754D402B561","019cfa29-e83b-7459-ae41-7fe11bd69c59","019cfa18-54b6-74d4-8209-5fe92d2edcd5","","null","
                <div class=""stimulus-container"">
                    <img src=""images/semantic_sequence/using_technology_semantic/using_technology_semantic_4.png"" class=""exp-image"">
                    <div class=""question-area""></div> 
                </div>","null","","","","","","","","","","","",""
"","","","","","html-button-response","87","315981","0.0-87.0","5FC40272FE874F57AE1C7754D402B561","019cfa29-e83b-7459-ae41-7fe11bd69c59","019cfa18-54b6-74d4-8209-5fe92d2edcd5","","812","
                <div class=""stimulus-container"">
                    <img src=""images/semantic_sequence/using_technology_semantic/using_technology_semantic_4.png"" class=""exp-image"">
                    <div class=""question-area"">
                        <p style=""font-size: 20px; font-weight: bold; margin: 0;"">Is there a person in this image?</p>
                    </div>
                </div>","0","main_experiment_trial","4","using_technology_semantic","semantic_sequence","chronological","","","","","","",""
"","","","","","html-keyboard-response","88","316990","0.0-88.0","5FC40272FE874F57AE1C7754D402B561","019cfa29-e83b-7459-ae41-7fe11bd69c59","019cfa18-54b6-74d4-8209-5fe92d2edcd5","","null","
                <div class=""stimulus-container"">
                    <img src=""images/semantic_sequence/using_technology_semantic/using_technology_semantic_5.png"" class=""exp-image"">
                    <div class=""question-area""></div> 
                </div>","null","","","","","","","","","","","",""
"","","","","","html-button-response","89","317895","0.0-89.0","5FC40272FE874F57AE1C7754D402B561","019cfa29-e83b-7459-ae41-7fe11bd69c59","019cfa18-54b6-74d4-8209-5fe92d2edcd5","","904","
                <div class=""stimulus-container"">
                    <img src=""images/semantic_sequence/using_technology_semantic/using_technology_semantic_5.png"" class=""exp-image"">
                    <div class=""question-area"">
                        <p style=""font-size: 20px; font-weight: bold; margin: 0;"">Is there a person in this image?</p>
                    </div>
                </div>","0","main_experiment_trial","5","using_technology_semantic","semantic_sequence","chronological","","","","","","",""
"","","","","","html-keyboard-response","90","318898","0.0-90.0","5FC40272FE874F57AE1C7754D402B561","019cfa29-e83b-7459-ae41-7fe11bd69c59","019cfa18-54b6-74d4-8209-5fe92d2edcd5","","null","
                <div class=""stimulus-container"">
                    <img src=""images/semantic_sequence/using_technology_semantic/using_technology_semantic_6.png"" class=""exp-image"">
                    <div class=""question-area""></div> 
                </div>","null","","","","","","","","","","","",""
"","","","","","html-button-response","91","320828","0.0-91.0","5FC40272FE874F57AE1C7754D402B561","019cfa29-e83b-7459-ae41-7fe11bd69c59","019cfa18-54b6-74d4-8209-5fe92d2edcd5","","1927","
                <div class=""stimulus-container"">
                    <img src=""images/semantic_sequence/using_technology_semantic/using_technology_semantic_6.png"" class=""exp-image"">
                    <div class=""question-area"">
                        <p style=""font-size: 20px; font-weight: bold; margin: 0;"">Is there a person in this image?</p>
                    </div>
                </div>","0","main_experiment_trial","6","using_technology_semantic","semantic_sequence","chronological","","","","","","",""
"","","","","","html-keyboard-response","92","321832","0.0-92.0","5FC40272FE874F57AE1C7754D402B561","019cfa29-e83b-7459-ae41-7fe11bd69c59","019cfa18-54b6-74d4-8209-5fe92d2edcd5","","null","
                <div class=""stimulus-container"">
                    <img src=""images/semantic_sequence/using_technology_semantic/using_technology_semantic_7.png"" class=""exp-image"">
                    <div class=""question-area""></div> 
                </div>","null","","","","","","","","","","","",""
"","","","","","html-button-response","93","322600","0.0-93.0","5FC40272FE874F57AE1C7754D402B561","019cfa29-e83b-7459-ae41-7fe11bd69c59","019cfa18-54b6-74d4-8209-5fe92d2edcd5","","767","
                <div class=""stimulus-container"">
                    <img src=""images/semantic_sequence/using_technology_semantic/using_technology_semantic_7.png"" class=""exp-image"">
                    <div class=""question-area"">
                        <p style=""font-size: 20px; font-weight: bold; margin: 0;"">Is there a person in this image?</p>
                    </div>
                </div>","0","main_experiment_trial","7","using_technology_semantic","semantic_sequence","chronological","","","","","","",""
"","","","","","html-keyboard-response","94","323617","0.0-94.0","5FC40272FE874F57AE1C7754D402B561","019cfa29-e83b-7459-ae41-7fe11bd69c59","019cfa18-54b6-74d4-8209-5fe92d2edcd5","","null","
                <div class=""stimulus-container"">
                    <img src=""images/semantic_sequence/using_technology_semantic/using_technology_semantic_8.png"" class=""exp-image"">
                    <div class=""question-area""></div> 
                </div>","null","","","","","","","","","","","",""
"","","","","","html-button-response","95","324448","0.0-95.0","5FC40272FE874F57AE1C7754D402B561","019cfa29-e83b-7459-ae41-7fe11bd69c59","019cfa18-54b6-74d4-8209-5fe92d2edcd5","","830","
                <div class=""stimulus-container"">
                    <img src=""images/semantic_sequence/using_technology_semantic/using_technology_semantic_8.png"" class=""exp-image"">
                    <div class=""question-area"">
                        <p style=""font-size: 20px; font-weight: bold; margin: 0;"">Is there a person in this image?</p>
                    </div>
                </div>","0","main_experiment_trial","8","using_technology_semantic","semantic_sequence","chronological","","","","","","",""
"","","","","","html-keyboard-response","96","325451","0.0-96.0","5FC40272FE874F57AE1C7754D402B561","019cfa29-e83b-7459-ae41-7fe11bd69c59","019cfa18-54b6-74d4-8209-5fe92d2edcd5","","null","
                <div class=""stimulus-container"">
                    <img src=""images/semantic_sequence/using_technology_semantic/using_technology_semantic_9.png"" class=""exp-image"">
                    <div class=""question-area""></div> 
                </div>","null","","","","","","","","","","","",""
"","","","","","html-button-response","97","326302","0.0-97.0","5FC40272FE874F57AE1C7754D402B561","019cfa29-e83b-7459-ae41-7fe11bd69c59","019cfa18-54b6-74d4-8209-5fe92d2edcd5","","850","
                <div class=""stimulus-container"">
                    <img src=""images/semantic_sequence/using_technology_semantic/using_technology_semantic_9.png"" class=""exp-image"">
                    <div class=""question-area"">
                        <p style=""font-size: 20px; font-weight: bold; margin: 0;"">Is there a person in this image?</p>
                    </div>
                </div>","0","main_experiment_trial","9","using_technology_semantic","semantic_sequence","chronological","","","","","","",""
"","","","","","html-keyboard-response","98","327316","0.0-98.0","5FC40272FE874F57AE1C7754D402B561","019cfa29-e83b-7459-ae41-7fe11bd69c59","019cfa18-54b6-74d4-8209-5fe92d2edcd5","","null","
                <div class=""stimulus-container"">
                    <img src=""images/semantic_sequence/using_technology_semantic/using_technology_semantic_ten.png"" class=""exp-image"">
                    <div class=""question-area""></div> 
                </div>","null","","","","","","","","","","","",""
"","","","","","html-button-response","99","328003","0.0-99.0","5FC40272FE874F57AE1C7754D402B561","019cfa29-e83b-7459-ae41-7fe11bd69c59","019cfa18-54b6-74d4-8209-5fe92d2edcd5","","685","
                <div class=""stimulus-container"">
                    <img src=""images/semantic_sequence/using_technology_semantic/using_technology_semantic_ten.png"" class=""exp-image"">
                    <div class=""question-area"">
                        <p style=""font-size: 20px; font-weight: bold; margin: 0;"">Is there a person in this image?</p>
                    </div>
                </div>","0","main_experiment_trial","ten","using_technology_semantic","semantic_sequence","chronological","","","","","","",""
"","","","","","html-keyboard-response","100","333021","0.0-100.0","5FC40272FE874F57AE1C7754D402B561","019cfa29-e83b-7459-ae41-7fe11bd69c59","019cfa18-54b6-74d4-8209-5fe92d2edcd5","","null","<div style=""background-color: white; width: 100vw; height: 100vh;""></div>","null","","","","","","","","","","","",""
"","","","","","html-keyboard-response","101","334026","0.0-101.0","5FC40272FE874F57AE1C7754D402B561","019cfa29-e83b-7459-ae41-7fe11bd69c59","019cfa18-54b6-74d4-8209-5fe92d2edcd5","","null","
                <div class=""stimulus-container"">
                    <img src=""images/semantic_sequence/market_semantic/market_semantic_1.png"" class=""exp-image"">
                    <div class=""question-area""></div> 
                </div>","null","","","","","","","","","","","",""
"","","","","","html-button-response","102","335165","0.0-102.0","5FC40272FE874F57AE1C7754D402B561","019cfa29-e83b-7459-ae41-7fe11bd69c59","019cfa18-54b6-74d4-8209-5fe92d2edcd5","","1137","
                <div class=""stimulus-container"">
                    <img src=""images/semantic_sequence/market_semantic/market_semantic_1.png"" class=""exp-image"">
                    <div class=""question-area"">
                        <p style=""font-size: 20px; font-weight: bold; margin: 0;"">Is there a person in this image?</p>
                    </div>
                </div>","1","main_experiment_trial","1","market_semantic","semantic_sequence","chronological","","","","","","",""
"","","","","","html-keyboard-response","103","336177","0.0-103.0","5FC40272FE874F57AE1C7754D402B561","019cfa29-e83b-7459-ae41-7fe11bd69c59","019cfa18-54b6-74d4-8209-5fe92d2edcd5","","null","
                <div class=""stimulus-container"">
                    <img src=""images/semantic_sequence/market_semantic/market_semantic_2.png"" class=""exp-image"">
                    <div class=""question-area""></div> 
                </div>","null","","","","","","","","","","","",""
"","","","","","html-button-response","104","337268","0.0-104.0","5FC40272FE874F57AE1C7754D402B561","019cfa29-e83b-7459-ae41-7fe11bd69c59","019cfa18-54b6-74d4-8209-5fe92d2edcd5","","1090","
                <div class=""stimulus-container"">
                    <img src=""images/semantic_sequence/market_semantic/market_semantic_2.png"" class=""exp-image"">
                    <div class=""question-area"">
                        <p style=""font-size: 20px; font-weight: bold; margin: 0;"">Is there a person in this image?</p>
                    </div>
                </div>","1","main_experiment_trial","2","market_semantic","semantic_sequence","chronological","","","","","","",""
"","","","","","html-keyboard-response","105","338277","0.0-105.0","5FC40272FE874F57AE1C7754D402B561","019cfa29-e83b-7459-ae41-7fe11bd69c59","019cfa18-54b6-74d4-8209-5fe92d2edcd5","","null","
                <div class=""stimulus-container"">
                    <img src=""images/semantic_sequence/market_semantic/market_semantic_3.png"" class=""exp-image"">
                    <div class=""question-area""></div> 
                </div>","null","","","","","","","","","","","",""
"","","","","","html-button-response","106","339802","0.0-106.0","5FC40272FE874F57AE1C7754D402B561","019cfa29-e83b-7459-ae41-7fe11bd69c59","019cfa18-54b6-74d4-8209-5fe92d2edcd5","","1524","
                <div class=""stimulus-container"">
                    <img src=""images/semantic_sequence/market_semantic/market_semantic_3.png"" class=""exp-image"">
                    <div class=""question-area"">
                        <p style=""font-size: 20px; font-weight: bold; margin: 0;"">Is there a person in this image?</p>
                    </div>
                </div>","1","main_experiment_trial","3","market_semantic","semantic_sequence","chronological","","","","","","",""
"","","","","","html-keyboard-response","107","340805","0.0-107.0","5FC40272FE874F57AE1C7754D402B561","019cfa29-e83b-7459-ae41-7fe11bd69c59","019cfa18-54b6-74d4-8209-5fe92d2edcd5","","null","
                <div class=""stimulus-container"">
                    <img src=""images/semantic_sequence/market_semantic/market_semantic_4.png"" class=""exp-image"">
                    <div class=""question-area""></div> 
                </div>","null","","","","","","","","","","","",""
"","","","","","html-button-response","108","341852","0.0-108.0","5FC40272FE874F57AE1C7754D402B561","019cfa29-e83b-7459-ae41-7fe11bd69c59","019cfa18-54b6-74d4-8209-5fe92d2edcd5","","1045","
                <div class=""stimulus-container"">
                    <img src=""images/semantic_sequence/market_semantic/market_semantic_4.png"" class=""exp-image"">
                    <div class=""question-area"">
                        <p style=""font-size: 20px; font-weight: bold; margin: 0;"">Is there a person in this image?</p>
                    </div>
                </div>","0","main_experiment_trial","4","market_semantic","semantic_sequence","chronological","","","","","","",""
"","","","","","html-keyboard-response","109","342855","0.0-109.0","5FC40272FE874F57AE1C7754D402B561","019cfa29-e83b-7459-ae41-7fe11bd69c59","019cfa18-54b6-74d4-8209-5fe92d2edcd5","","null","
                <div class=""stimulus-container"">
                    <img src=""images/semantic_sequence/market_semantic/market_semantic_5.png"" class=""exp-image"">
                    <div class=""question-area""></div> 
                </div>","null","","","","","","","","","","","",""
"","","","","","html-button-response","110","343786","0.0-110.0","5FC40272FE874F57AE1C7754D402B561","019cfa29-e83b-7459-ae41-7fe11bd69c59","019cfa18-54b6-74d4-8209-5fe92d2edcd5","","930","
                <div class=""stimulus-container"">
                    <img src=""images/semantic_sequence/market_semantic/market_semantic_5.png"" class=""exp-image"">
                    <div class=""question-area"">
                        <p style=""font-size: 20px; font-weight: bold; margin: 0;"">Is there a person in this image?</p>
                    </div>
                </div>","1","main_experiment_trial","5","market_semantic","semantic_sequence","chronological","","","","","","",""
"","","","","","html-keyboard-response","111","344789","0.0-111.0","5FC40272FE874F57AE1C7754D402B561","019cfa29-e83b-7459-ae41-7fe11bd69c59","019cfa18-54b6-74d4-8209-5fe92d2edcd5","","null","
                <div class=""stimulus-container"">
                    <img src=""images/semantic_sequence/market_semantic/market_semantic_6.png"" class=""exp-image"">
                    <div class=""question-area""></div> 
                </div>","null","","","","","","","","","","","",""
"","","","","","html-button-response","112","345915","0.0-112.0","5FC40272FE874F57AE1C7754D402B561","019cfa29-e83b-7459-ae41-7fe11bd69c59","019cfa18-54b6-74d4-8209-5fe92d2edcd5","","1124","
                <div class=""stimulus-container"">
                    <img src=""images/semantic_sequence/market_semantic/market_semantic_6.png"" class=""exp-image"">
                    <div class=""question-area"">
                        <p style=""font-size: 20px; font-weight: bold; margin: 0;"">Is there a person in this image?</p>
                    </div>
                </div>","1","main_experiment_trial","6","market_semantic","semantic_sequence","chronological","","","","","","",""
"","","","","","html-keyboard-response","113","346921","0.0-113.0","5FC40272FE874F57AE1C7754D402B561","019cfa29-e83b-7459-ae41-7fe11bd69c59","019cfa18-54b6-74d4-8209-5fe92d2edcd5","","null","
                <div class=""stimulus-container"">
                    <img src=""images/semantic_sequence/market_semantic/market_semantic_7.png"" class=""exp-image"">
                    <div class=""question-area""></div> 
                </div>","null","","","","","","","","","","","",""
"","","","","","html-button-response","114","347891","0.0-114.0","5FC40272FE874F57AE1C7754D402B561","019cfa29-e83b-7459-ae41-7fe11bd69c59","019cfa18-54b6-74d4-8209-5fe92d2edcd5","","968","
                <div class=""stimulus-container"">
                    <img src=""images/semantic_sequence/market_semantic/market_semantic_7.png"" class=""exp-image"">
                    <div class=""question-area"">
                        <p style=""font-size: 20px; font-weight: bold; margin: 0;"">Is there a person in this image?</p>
                    </div>
                </div>","0","main_experiment_trial","7","market_semantic","semantic_sequence","chronological","","","","","","",""
"","","","","","html-keyboard-response","115","348895","0.0-115.0","5FC40272FE874F57AE1C7754D402B561","019cfa29-e83b-7459-ae41-7fe11bd69c59","019cfa18-54b6-74d4-8209-5fe92d2edcd5","","null","
                <div class=""stimulus-container"">
                    <img src=""images/semantic_sequence/market_semantic/market_semantic_8.png"" class=""exp-image"">
                    <div class=""question-area""></div> 
                </div>","null","","","","","","","","","","","",""
"","","","","","html-button-response","116","351799","0.0-116.0","5FC40272FE874F57AE1C7754D402B561","019cfa29-e83b-7459-ae41-7fe11bd69c59","019cfa18-54b6-74d4-8209-5fe92d2edcd5","","2902","
                <div class=""stimulus-container"">
                    <img src=""images/semantic_sequence/market_semantic/market_semantic_8.png"" class=""exp-image"">
                    <div class=""question-area"">
                        <p style=""font-size: 20px; font-weight: bold; margin: 0;"">Is there a person in this image?</p>
                    </div>
                </div>","0","main_experiment_trial","8","market_semantic","semantic_sequence","chronological","","","","","","",""
"","","","","","html-keyboard-response","117","352803","0.0-117.0","5FC40272FE874F57AE1C7754D402B561","019cfa29-e83b-7459-ae41-7fe11bd69c59","019cfa18-54b6-74d4-8209-5fe92d2edcd5","","null","
                <div class=""stimulus-container"">
                    <img src=""images/semantic_sequence/market_semantic/market_semantic_9.png"" class=""exp-image"">
                    <div class=""question-area""></div> 
                </div>","null","","","","","","","","","","","",""
"","","","","","html-button-response","118","353837","0.0-118.0","5FC40272FE874F57AE1C7754D402B561","019cfa29-e83b-7459-ae41-7fe11bd69c59","019cfa18-54b6-74d4-8209-5fe92d2edcd5","","1033","
                <div class=""stimulus-container"">
                    <img src=""images/semantic_sequence/market_semantic/market_semantic_9.png"" class=""exp-image"">
                    <div class=""question-area"">
                        <p style=""font-size: 20px; font-weight: bold; margin: 0;"">Is there a person in this image?</p>
                    </div>
                </div>","0","main_experiment_trial","9","market_semantic","semantic_sequence","chronological","","","","","","",""
"","","","","","html-keyboard-response","119","354847","0.0-119.0","5FC40272FE874F57AE1C7754D402B561","019cfa29-e83b-7459-ae41-7fe11bd69c59","019cfa18-54b6-74d4-8209-5fe92d2edcd5","","null","
                <div class=""stimulus-container"">
                    <img src=""images/semantic_sequence/market_semantic/market_semantic_ten.png"" class=""exp-image"">
                    <div class=""question-area""></div> 
                </div>","null","","","","","","","","","","","",""
"","","","","","html-button-response","120","356334","0.0-120.0","5FC40272FE874F57AE1C7754D402B561","019cfa29-e83b-7459-ae41-7fe11bd69c59","019cfa18-54b6-74d4-8209-5fe92d2edcd5","","1485","
                <div class=""stimulus-container"">
                    <img src=""images/semantic_sequence/market_semantic/market_semantic_ten.png"" class=""exp-image"">
                    <div class=""question-area"">
                        <p style=""font-size: 20px; font-weight: bold; margin: 0;"">Is there a person in this image?</p>
                    </div>
                </div>","1","main_experiment_trial","ten","market_semantic","semantic_sequence","chronological","","","","","","",""
"","","","","","html-keyboard-response","121","361336","0.0-121.0","5FC40272FE874F57AE1C7754D402B561","019cfa29-e83b-7459-ae41-7fe11bd69c59","019cfa18-54b6-74d4-8209-5fe92d2edcd5","","null","<div style=""background-color: white; width: 100vw; height: 100vh;""></div>","null","","","","","","","","","","","",""
"","","","","","html-keyboard-response","122","362341","0.0-122.0","5FC40272FE874F57AE1C7754D402B561","019cfa29-e83b-7459-ae41-7fe11bd69c59","019cfa18-54b6-74d4-8209-5fe92d2edcd5","","null","
                <div class=""stimulus-container"">
                    <img src=""images/semantic_sequence/cat_care_semantic/cat_care_semantic_1.png"" class=""exp-image"">
                    <div class=""question-area""></div> 
                </div>","null","","","","","","","","","","","",""
"","","","","","html-button-response","123","363270","0.0-123.0","5FC40272FE874F57AE1C7754D402B561","019cfa29-e83b-7459-ae41-7fe11bd69c59","019cfa18-54b6-74d4-8209-5fe92d2edcd5","","928","
                <div class=""stimulus-container"">
                    <img src=""images/semantic_sequence/cat_care_semantic/cat_care_semantic_1.png"" class=""exp-image"">
                    <div class=""question-area"">
                        <p style=""font-size: 20px; font-weight: bold; margin: 0;"">Is there a person in this image?</p>
                    </div>
                </div>","0","main_experiment_trial","1","cat_care_semantic","semantic_sequence","chronological","","","","","","",""
"","","","","","html-keyboard-response","124","364283","0.0-124.0","5FC40272FE874F57AE1C7754D402B561","019cfa29-e83b-7459-ae41-7fe11bd69c59","019cfa18-54b6-74d4-8209-5fe92d2edcd5","","null","
                <div class=""stimulus-container"">
                    <img src=""images/semantic_sequence/cat_care_semantic/cat_care_semantic_2.png"" class=""exp-image"">
                    <div class=""question-area""></div> 
                </div>","null","","","","","","","","","","","",""
"","","","","","html-button-response","125","365053","0.0-125.0","5FC40272FE874F57AE1C7754D402B561","019cfa29-e83b-7459-ae41-7fe11bd69c59","019cfa18-54b6-74d4-8209-5fe92d2edcd5","","769","
                <div class=""stimulus-container"">
                    <img src=""images/semantic_sequence/cat_care_semantic/cat_care_semantic_2.png"" class=""exp-image"">
                    <div class=""question-area"">
                        <p style=""font-size: 20px; font-weight: bold; margin: 0;"">Is there a person in this image?</p>
                    </div>
                </div>","0","main_experiment_trial","2","cat_care_semantic","semantic_sequence","chronological","","","","","","",""
"","","","","","html-keyboard-response","126","366068","0.0-126.0","5FC40272FE874F57AE1C7754D402B561","019cfa29-e83b-7459-ae41-7fe11bd69c59","019cfa18-54b6-74d4-8209-5fe92d2edcd5","","null","
                <div class=""stimulus-container"">
                    <img src=""images/semantic_sequence/cat_care_semantic/cat_care_semantic_3.png"" class=""exp-image"">
                    <div class=""question-area""></div> 
                </div>","null","","","","","","","","","","","",""
"","","","","","html-button-response","127","366935","0.0-127.0","5FC40272FE874F57AE1C7754D402B561","019cfa29-e83b-7459-ae41-7fe11bd69c59","019cfa18-54b6-74d4-8209-5fe92d2edcd5","","866","
                <div class=""stimulus-container"">
                    <img src=""images/semantic_sequence/cat_care_semantic/cat_care_semantic_3.png"" class=""exp-image"">
                    <div class=""question-area"">
                        <p style=""font-size: 20px; font-weight: bold; margin: 0;"">Is there a person in this image?</p>
                    </div>
                </div>","0","main_experiment_trial","3","cat_care_semantic","semantic_sequence","chronological","","","","","","",""
"","","","","","html-keyboard-response","128","367950","0.0-128.0","5FC40272FE874F57AE1C7754D402B561","019cfa29-e83b-7459-ae41-7fe11bd69c59","019cfa18-54b6-74d4-8209-5fe92d2edcd5","","null","
                <div class=""stimulus-container"">
                    <img src=""images/semantic_sequence/cat_care_semantic/cat_care_semantic_4.png"" class=""exp-image"">
                    <div class=""question-area""></div> 
                </div>","null","","","","","","","","","","","",""
"","","","","","html-button-response","129","368819","0.0-129.0","5FC40272FE874F57AE1C7754D402B561","019cfa29-e83b-7459-ae41-7fe11bd69c59","019cfa18-54b6-74d4-8209-5fe92d2edcd5","","866","
                <div class=""stimulus-container"">
                    <img src=""images/semantic_sequence/cat_care_semantic/cat_care_semantic_4.png"" class=""exp-image"">
                    <div class=""question-area"">
                        <p style=""font-size: 20px; font-weight: bold; margin: 0;"">Is there a person in this image?</p>
                    </div>
                </div>","0","main_experiment_trial","4","cat_care_semantic","semantic_sequence","chronological","","","","","","",""
"","","","","","html-keyboard-response","130","369832","0.0-130.0","5FC40272FE874F57AE1C7754D402B561","019cfa29-e83b-7459-ae41-7fe11bd69c59","019cfa18-54b6-74d4-8209-5fe92d2edcd5","","null","
                <div class=""stimulus-container"">
                    <img src=""images/semantic_sequence/cat_care_semantic/cat_care_semantic_5.png"" class=""exp-image"">
                    <div class=""question-area""></div> 
                </div>","null","","","","","","","","","","","",""
"","","","","","html-button-response","131","370621","0.0-131.0","5FC40272FE874F57AE1C7754D402B561","019cfa29-e83b-7459-ae41-7fe11bd69c59","019cfa18-54b6-74d4-8209-5fe92d2edcd5","","787","
                <div class=""stimulus-container"">
                    <img src=""images/semantic_sequence/cat_care_semantic/cat_care_semantic_5.png"" class=""exp-image"">
                    <div class=""question-area"">
                        <p style=""font-size: 20px; font-weight: bold; margin: 0;"">Is there a person in this image?</p>
                    </div>
                </div>","0","main_experiment_trial","5","cat_care_semantic","semantic_sequence","chronological","","","","","","",""
"","","","","","html-keyboard-response","132","371634","0.0-132.0","5FC40272FE874F57AE1C7754D402B561","019cfa29-e83b-7459-ae41-7fe11bd69c59","019cfa18-54b6-74d4-8209-5fe92d2edcd5","","null","
                <div class=""stimulus-container"">
                    <img src=""images/semantic_sequence/cat_care_semantic/cat_care_semantic_6.png"" class=""exp-image"">
                    <div class=""question-area""></div> 
                </div>","null","","","","","","","","","","","",""
"","","","","","html-button-response","133","372419","0.0-133.0","5FC40272FE874F57AE1C7754D402B561","019cfa29-e83b-7459-ae41-7fe11bd69c59","019cfa18-54b6-74d4-8209-5fe92d2edcd5","","784","
                <div class=""stimulus-container"">
                    <img src=""images/semantic_sequence/cat_care_semantic/cat_care_semantic_6.png"" class=""exp-image"">
                    <div class=""question-area"">
                        <p style=""font-size: 20px; font-weight: bold; margin: 0;"">Is there a person in this image?</p>
                    </div>
                </div>","0","main_experiment_trial","6","cat_care_semantic","semantic_sequence","chronological","","","","","","",""
"","","","","","html-keyboard-response","134","373433","0.0-134.0","5FC40272FE874F57AE1C7754D402B561","019cfa29-e83b-7459-ae41-7fe11bd69c59","019cfa18-54b6-74d4-8209-5fe92d2edcd5","","null","
                <div class=""stimulus-container"">
                    <img src=""images/semantic_sequence/cat_care_semantic/cat_care_semantic_7.png"" class=""exp-image"">
                    <div class=""question-area""></div> 
                </div>","null","","","","","","","","","","","",""
"","","","","","html-button-response","135","374170","0.0-135.0","5FC40272FE874F57AE1C7754D402B561","019cfa29-e83b-7459-ae41-7fe11bd69c59","019cfa18-54b6-74d4-8209-5fe92d2edcd5","","735","
                <div class=""stimulus-container"">
                    <img src=""images/semantic_sequence/cat_care_semantic/cat_care_semantic_7.png"" class=""exp-image"">
                    <div class=""question-area"">
                        <p style=""font-size: 20px; font-weight: bold; margin: 0;"">Is there a person in this image?</p>
                    </div>
                </div>","0","main_experiment_trial","7","cat_care_semantic","semantic_sequence","chronological","","","","","","",""
"","","","","","html-keyboard-response","136","375186","0.0-136.0","5FC40272FE874F57AE1C7754D402B561","019cfa29-e83b-7459-ae41-7fe11bd69c59","019cfa18-54b6-74d4-8209-5fe92d2edcd5","","null","
                <div class=""stimulus-container"">
                    <img src=""images/semantic_sequence/cat_care_semantic/cat_care_semantic_8.png"" class=""exp-image"">
                    <div class=""question-area""></div> 
                </div>","null","","","","","","","","","","","",""
"","","","","","html-button-response","137","376853","0.0-137.0","5FC40272FE874F57AE1C7754D402B561","019cfa29-e83b-7459-ae41-7fe11bd69c59","019cfa18-54b6-74d4-8209-5fe92d2edcd5","","1665","
                <div class=""stimulus-container"">
                    <img src=""images/semantic_sequence/cat_care_semantic/cat_care_semantic_8.png"" class=""exp-image"">
                    <div class=""question-area"">
                        <p style=""font-size: 20px; font-weight: bold; margin: 0;"">Is there a person in this image?</p>
                    </div>
                </div>","0","main_experiment_trial","8","cat_care_semantic","semantic_sequence","chronological","","","","","","",""
"","","","","","html-keyboard-response","138","377861","0.0-138.0","5FC40272FE874F57AE1C7754D402B561","019cfa29-e83b-7459-ae41-7fe11bd69c59","019cfa18-54b6-74d4-8209-5fe92d2edcd5","","null","
                <div class=""stimulus-container"">
                    <img src=""images/semantic_sequence/cat_care_semantic/cat_care_semantic_9.png"" class=""exp-image"">
                    <div class=""question-area""></div> 
                </div>","null","","","","","","","","","","","",""
"","","","","","html-button-response","139","378702","0.0-139.0","5FC40272FE874F57AE1C7754D402B561","019cfa29-e83b-7459-ae41-7fe11bd69c59","019cfa18-54b6-74d4-8209-5fe92d2edcd5","","840","
                <div class=""stimulus-container"">
                    <img src=""images/semantic_sequence/cat_care_semantic/cat_care_semantic_9.png"" class=""exp-image"">
                    <div class=""question-area"">
                        <p style=""font-size: 20px; font-weight: bold; margin: 0;"">Is there a person in this image?</p>
                    </div>
                </div>","0","main_experiment_trial","9","cat_care_semantic","semantic_sequence","chronological","","","","","","",""
"","","","","","html-keyboard-response","140","379715","0.0-140.0","5FC40272FE874F57AE1C7754D402B561","019cfa29-e83b-7459-ae41-7fe11bd69c59","019cfa18-54b6-74d4-8209-5fe92d2edcd5","","null","
                <div class=""stimulus-container"">
                    <img src=""images/semantic_sequence/cat_care_semantic/cat_care_semantic_ten.png"" class=""exp-image"">
                    <div class=""question-area""></div> 
                </div>","null","","","","","","","","","","","",""
"","","","","","html-button-response","141","381402","0.0-141.0","5FC40272FE874F57AE1C7754D402B561","019cfa29-e83b-7459-ae41-7fe11bd69c59","019cfa18-54b6-74d4-8209-5fe92d2edcd5","","1685","
                <div class=""stimulus-container"">
                    <img src=""images/semantic_sequence/cat_care_semantic/cat_care_semantic_ten.png"" class=""exp-image"">
                    <div class=""question-area"">
                        <p style=""font-size: 20px; font-weight: bold; margin: 0;"">Is there a person in this image?</p>
                    </div>
                </div>","1","main_experiment_trial","ten","cat_care_semantic","semantic_sequence","chronological","","","","","","",""
"","","","","","html-keyboard-response","142","386405","0.0-142.0","5FC40272FE874F57AE1C7754D402B561","019cfa29-e83b-7459-ae41-7fe11bd69c59","019cfa18-54b6-74d4-8209-5fe92d2edcd5","","null","<div style=""background-color: white; width: 100vw; height: 100vh;""></div>","null","","","","","","","","","","","",""
"","","","","","html-keyboard-response","143","387419","0.0-143.0","5FC40272FE874F57AE1C7754D402B561","019cfa29-e83b-7459-ae41-7fe11bd69c59","019cfa18-54b6-74d4-8209-5fe92d2edcd5","","null","
                <div class=""stimulus-container"">
                    <img src=""images/semantic_sequence/exploring_nature_semantic/exploring_nature_semantic_1.png"" class=""exp-image"">
                    <div class=""question-area""></div> 
                </div>","null","","","","","","","","","","","",""
"","","","","","html-button-response","144","388645","0.0-144.0","5FC40272FE874F57AE1C7754D402B561","019cfa29-e83b-7459-ae41-7fe11bd69c59","019cfa18-54b6-74d4-8209-5fe92d2edcd5","","1225","
                <div class=""stimulus-container"">
                    <img src=""images/semantic_sequence/exploring_nature_semantic/exploring_nature_semantic_1.png"" class=""exp-image"">
                    <div class=""question-area"">
                        <p style=""font-size: 20px; font-weight: bold; margin: 0;"">Is there a person in this image?</p>
                    </div>
                </div>","0","main_experiment_trial","1","exploring_nature_semantic","semantic_sequence","chronological","","","","","","",""
"","","","","","html-keyboard-response","145","389654","0.0-145.0","5FC40272FE874F57AE1C7754D402B561","019cfa29-e83b-7459-ae41-7fe11bd69c59","019cfa18-54b6-74d4-8209-5fe92d2edcd5","","null","
                <div class=""stimulus-container"">
                    <img src=""images/semantic_sequence/exploring_nature_semantic/exploring_nature_semantic_2.png"" class=""exp-image"">
                    <div class=""question-area""></div> 
                </div>","null","","","","","","","","","","","",""
"","","","","","html-button-response","146","390404","0.0-146.0","5FC40272FE874F57AE1C7754D402B561","019cfa29-e83b-7459-ae41-7fe11bd69c59","019cfa18-54b6-74d4-8209-5fe92d2edcd5","","748","
                <div class=""stimulus-container"">
                    <img src=""images/semantic_sequence/exploring_nature_semantic/exploring_nature_semantic_2.png"" class=""exp-image"">
                    <div class=""question-area"">
                        <p style=""font-size: 20px; font-weight: bold; margin: 0;"">Is there a person in this image?</p>
                    </div>
                </div>","0","main_experiment_trial","2","exploring_nature_semantic","semantic_sequence","chronological","","","","","","",""
"","","","","","html-keyboard-response","147","391411","0.0-147.0","5FC40272FE874F57AE1C7754D402B561","019cfa29-e83b-7459-ae41-7fe11bd69c59","019cfa18-54b6-74d4-8209-5fe92d2edcd5","","null","
                <div class=""stimulus-container"">
                    <img src=""images/semantic_sequence/exploring_nature_semantic/exploring_nature_semantic_3.png"" class=""exp-image"">
                    <div class=""question-area""></div> 
                </div>","null","","","","","","","","","","","",""
"","","","","","html-button-response","148","392921","0.0-148.0","5FC40272FE874F57AE1C7754D402B561","019cfa29-e83b-7459-ae41-7fe11bd69c59","019cfa18-54b6-74d4-8209-5fe92d2edcd5","","1509","
                <div class=""stimulus-container"">
                    <img src=""images/semantic_sequence/exploring_nature_semantic/exploring_nature_semantic_3.png"" class=""exp-image"">
                    <div class=""question-area"">
                        <p style=""font-size: 20px; font-weight: bold; margin: 0;"">Is there a person in this image?</p>
                    </div>
                </div>","0","main_experiment_trial","3","exploring_nature_semantic","semantic_sequence","chronological","","","","","","",""
"","","","","","html-keyboard-response","149","393927","0.0-149.0","5FC40272FE874F57AE1C7754D402B561","019cfa29-e83b-7459-ae41-7fe11bd69c59","019cfa18-54b6-74d4-8209-5fe92d2edcd5","","null","
                <div class=""stimulus-container"">
                    <img src=""images/semantic_sequence/exploring_nature_semantic/exploring_nature_semantic_4.png"" class=""exp-image"">
                    <div class=""question-area""></div> 
                </div>","null","","","","","","","","","","","",""
"","","","","","html-button-response","150","394872","0.0-150.0","5FC40272FE874F57AE1C7754D402B561","019cfa29-e83b-7459-ae41-7fe11bd69c59","019cfa18-54b6-74d4-8209-5fe92d2edcd5","","944","
                <div class=""stimulus-container"">
                    <img src=""images/semantic_sequence/exploring_nature_semantic/exploring_nature_semantic_4.png"" class=""exp-image"">
                    <div class=""question-area"">
                        <p style=""font-size: 20px; font-weight: bold; margin: 0;"">Is there a person in this image?</p>
                    </div>
                </div>","0","main_experiment_trial","4","exploring_nature_semantic","semantic_sequence","chronological","","","","","","",""
"","","","","","html-keyboard-response","151","395887","0.0-151.0","5FC40272FE874F57AE1C7754D402B561","019cfa29-e83b-7459-ae41-7fe11bd69c59","019cfa18-54b6-74d4-8209-5fe92d2edcd5","","null","
                <div class=""stimulus-container"">
                    <img src=""images/semantic_sequence/exploring_nature_semantic/exploring_nature_semantic_5.png"" class=""exp-image"">
                    <div class=""question-area""></div> 
                </div>","null","","","","","","","","","","","",""
"","","","","","html-button-response","152","397100","0.0-152.0","5FC40272FE874F57AE1C7754D402B561","019cfa29-e83b-7459-ae41-7fe11bd69c59","019cfa18-54b6-74d4-8209-5fe92d2edcd5","","1212","
                <div class=""stimulus-container"">
                    <img src=""images/semantic_sequence/exploring_nature_semantic/exploring_nature_semantic_5.png"" class=""exp-image"">
                    <div class=""question-area"">
                        <p style=""font-size: 20px; font-weight: bold; margin: 0;"">Is there a person in this image?</p>
                    </div>
                </div>","0","main_experiment_trial","5","exploring_nature_semantic","semantic_sequence","chronological","","","","","","",""
"","","","","","html-keyboard-response","153","398116","0.0-153.0","5FC40272FE874F57AE1C7754D402B561","019cfa29-e83b-7459-ae41-7fe11bd69c59","019cfa18-54b6-74d4-8209-5fe92d2edcd5","","null","
                <div class=""stimulus-container"">
                    <img src=""images/semantic_sequence/exploring_nature_semantic/exploring_nature_semantic_6.png"" class=""exp-image"">
                    <div class=""question-area""></div> 
                </div>","null","","","","","","","","","","","",""
"","","","","","html-button-response","154","398971","0.0-154.0","5FC40272FE874F57AE1C7754D402B561","019cfa29-e83b-7459-ae41-7fe11bd69c59","019cfa18-54b6-74d4-8209-5fe92d2edcd5","","853","
                <div class=""stimulus-container"">
                    <img src=""images/semantic_sequence/exploring_nature_semantic/exploring_nature_semantic_6.png"" class=""exp-image"">
                    <div class=""question-area"">
                        <p style=""font-size: 20px; font-weight: bold; margin: 0;"">Is there a person in this image?</p>
                    </div>
                </div>","0","main_experiment_trial","6","exploring_nature_semantic","semantic_sequence","chronological","","","","","","",""
"","","","","","html-keyboard-response","155","399976","0.0-155.0","5FC40272FE874F57AE1C7754D402B561","019cfa29-e83b-7459-ae41-7fe11bd69c59","019cfa18-54b6-74d4-8209-5fe92d2edcd5","","null","
                <div class=""stimulus-container"">
                    <img src=""images/semantic_sequence/exploring_nature_semantic/exploring_nature_semantic_7.png"" class=""exp-image"">
                    <div class=""question-area""></div> 
                </div>","null","","","","","","","","","","","",""
"","","","","","html-button-response","156","400729","0.0-156.0","5FC40272FE874F57AE1C7754D402B561","019cfa29-e83b-7459-ae41-7fe11bd69c59","019cfa18-54b6-74d4-8209-5fe92d2edcd5","","752","
                <div class=""stimulus-container"">
                    <img src=""images/semantic_sequence/exploring_nature_semantic/exploring_nature_semantic_7.png"" class=""exp-image"">
                    <div class=""question-area"">
                        <p style=""font-size: 20px; font-weight: bold; margin: 0;"">Is there a person in this image?</p>
                    </div>
                </div>","0","main_experiment_trial","7","exploring_nature_semantic","semantic_sequence","chronological","","","","","","",""
"","","","","","html-keyboard-response","157","401739","0.0-157.0","5FC40272FE874F57AE1C7754D402B561","019cfa29-e83b-7459-ae41-7fe11bd69c59","019cfa18-54b6-74d4-8209-5fe92d2edcd5","","null","
                <div class=""stimulus-container"">
                    <img src=""images/semantic_sequence/exploring_nature_semantic/exploring_nature_semantic_8.png"" class=""exp-image"">
                    <div class=""question-area""></div> 
                </div>","null","","","","","","","","","","","",""
"","","","","","html-button-response","158","403020","0.0-158.0","5FC40272FE874F57AE1C7754D402B561","019cfa29-e83b-7459-ae41-7fe11bd69c59","019cfa18-54b6-74d4-8209-5fe92d2edcd5","","1279","
                <div class=""stimulus-container"">
                    <img src=""images/semantic_sequence/exploring_nature_semantic/exploring_nature_semantic_8.png"" class=""exp-image"">
                    <div class=""question-area"">
                        <p style=""font-size: 20px; font-weight: bold; margin: 0;"">Is there a person in this image?</p>
                    </div>
                </div>","0","main_experiment_trial","8","exploring_nature_semantic","semantic_sequence","chronological","","","","","","",""
"","","","","","html-keyboard-response","159","404032","0.0-159.0","5FC40272FE874F57AE1C7754D402B561","019cfa29-e83b-7459-ae41-7fe11bd69c59","019cfa18-54b6-74d4-8209-5fe92d2edcd5","","null","
                <div class=""stimulus-container"">
                    <img src=""images/semantic_sequence/exploring_nature_semantic/exploring_nature_semantic_9.png"" class=""exp-image"">
                    <div class=""question-area""></div> 
                </div>","null","","","","","","","","","","","",""
"","","","","","html-button-response","160","404753","0.0-160.0","5FC40272FE874F57AE1C7754D402B561","019cfa29-e83b-7459-ae41-7fe11bd69c59","019cfa18-54b6-74d4-8209-5fe92d2edcd5","","719","
                <div class=""stimulus-container"">
                    <img src=""images/semantic_sequence/exploring_nature_semantic/exploring_nature_semantic_9.png"" class=""exp-image"">
                    <div class=""question-area"">
                        <p style=""font-size: 20px; font-weight: bold; margin: 0;"">Is there a person in this image?</p>
                    </div>
                </div>","0","main_experiment_trial","9","exploring_nature_semantic","semantic_sequence","chronological","","","","","","",""
"","","","","","html-keyboard-response","161","405760","0.0-161.0","5FC40272FE874F57AE1C7754D402B561","019cfa29-e83b-7459-ae41-7fe11bd69c59","019cfa18-54b6-74d4-8209-5fe92d2edcd5","","null","
                <div class=""stimulus-container"">
                    <img src=""images/semantic_sequence/exploring_nature_semantic/exploring_nature_semantic_ten.png"" class=""exp-image"">
                    <div class=""question-area""></div> 
                </div>","null","","","","","","","","","","","",""
"","","","","","html-button-response","162","406487","0.0-162.0","5FC40272FE874F57AE1C7754D402B561","019cfa29-e83b-7459-ae41-7fe11bd69c59","019cfa18-54b6-74d4-8209-5fe92d2edcd5","","725","
                <div class=""stimulus-container"">
                    <img src=""images/semantic_sequence/exploring_nature_semantic/exploring_nature_semantic_ten.png"" class=""exp-image"">
                    <div class=""question-area"">
                        <p style=""font-size: 20px; font-weight: bold; margin: 0;"">Is there a person in this image?</p>
                    </div>
                </div>","0","main_experiment_trial","ten","exploring_nature_semantic","semantic_sequence","chronological","","","","","","",""
"","","","","","html-keyboard-response","163","411504","0.0-163.0","5FC40272FE874F57AE1C7754D402B561","019cfa29-e83b-7459-ae41-7fe11bd69c59","019cfa18-54b6-74d4-8209-5fe92d2edcd5","","null","<div style=""background-color: white; width: 100vw; height: 100vh;""></div>","null","","","","","","","","","","","",""
"","","","","","html-keyboard-response","164","412520","0.0-164.0","5FC40272FE874F57AE1C7754D402B561","019cfa29-e83b-7459-ae41-7fe11bd69c59","019cfa18-54b6-74d4-8209-5fe92d2edcd5","","null","
                <div class=""stimulus-container"">
                    <img src=""images/semantic_sequence/kitchen_operations_semantic/kitchen_operations_semantic_1.png"" class=""exp-image"">
                    <div class=""question-area""></div> 
                </div>","null","","","","","","","","","","","",""
"","","","","","html-button-response","165","413682","0.0-165.0","5FC40272FE874F57AE1C7754D402B561","019cfa29-e83b-7459-ae41-7fe11bd69c59","019cfa18-54b6-74d4-8209-5fe92d2edcd5","","1160","
                <div class=""stimulus-container"">
                    <img src=""images/semantic_sequence/kitchen_operations_semantic/kitchen_operations_semantic_1.png"" class=""exp-image"">
                    <div class=""question-area"">
                        <p style=""font-size: 20px; font-weight: bold; margin: 0;"">Is there a person in this image?</p>
                    </div>
                </div>","0","main_experiment_trial","1","kitchen_operations_semantic","semantic_sequence","chronological","","","","","","",""
"","","","","","html-keyboard-response","166","414688","0.0-166.0","5FC40272FE874F57AE1C7754D402B561","019cfa29-e83b-7459-ae41-7fe11bd69c59","019cfa18-54b6-74d4-8209-5fe92d2edcd5","","null","
                <div class=""stimulus-container"">
                    <img src=""images/semantic_sequence/kitchen_operations_semantic/kitchen_operations_semantic_2.png"" class=""exp-image"">
                    <div class=""question-area""></div> 
                </div>","null","","","","","","","","","","","",""
"","","","","","html-button-response","167","415382","0.0-167.0","5FC40272FE874F57AE1C7754D402B561","019cfa29-e83b-7459-ae41-7fe11bd69c59","019cfa18-54b6-74d4-8209-5fe92d2edcd5","","693","
                <div class=""stimulus-container"">
                    <img src=""images/semantic_sequence/kitchen_operations_semantic/kitchen_operations_semantic_2.png"" class=""exp-image"">
                    <div class=""question-area"">
                        <p style=""font-size: 20px; font-weight: bold; margin: 0;"">Is there a person in this image?</p>
                    </div>
                </div>","0","main_experiment_trial","2","kitchen_operations_semantic","semantic_sequence","chronological","","","","","","",""
"","","","","","html-keyboard-response","168","416398","0.0-168.0","5FC40272FE874F57AE1C7754D402B561","019cfa29-e83b-7459-ae41-7fe11bd69c59","019cfa18-54b6-74d4-8209-5fe92d2edcd5","","null","
                <div class=""stimulus-container"">
                    <img src=""images/semantic_sequence/kitchen_operations_semantic/kitchen_operations_semantic_3.png"" class=""exp-image"">
                    <div class=""question-area""></div> 
                </div>","null","","","","","","","","","","","",""
"","","","","","html-button-response","169","417069","0.0-169.0","5FC40272FE874F57AE1C7754D402B561","019cfa29-e83b-7459-ae41-7fe11bd69c59","019cfa18-54b6-74d4-8209-5fe92d2edcd5","","669","
                <div class=""stimulus-container"">
                    <img src=""images/semantic_sequence/kitchen_operations_semantic/kitchen_operations_semantic_3.png"" class=""exp-image"">
                    <div class=""question-area"">
                        <p style=""font-size: 20px; font-weight: bold; margin: 0;"">Is there a person in this image?</p>
                    </div>
                </div>","0","main_experiment_trial","3","kitchen_operations_semantic","semantic_sequence","chronological","","","","","","",""
"","","","","","html-keyboard-response","170","418086","0.0-170.0","5FC40272FE874F57AE1C7754D402B561","019cfa29-e83b-7459-ae41-7fe11bd69c59","019cfa18-54b6-74d4-8209-5fe92d2edcd5","","null","
                <div class=""stimulus-container"">
                    <img src=""images/semantic_sequence/kitchen_operations_semantic/kitchen_operations_semantic_4.png"" class=""exp-image"">
                    <div class=""question-area""></div> 
                </div>","null","","","","","","","","","","","",""
"","","","","","html-button-response","171","418837","0.0-171.0","5FC40272FE874F57AE1C7754D402B561","019cfa29-e83b-7459-ae41-7fe11bd69c59","019cfa18-54b6-74d4-8209-5fe92d2edcd5","","750","
                <div class=""stimulus-container"">
                    <img src=""images/semantic_sequence/kitchen_operations_semantic/kitchen_operations_semantic_4.png"" class=""exp-image"">
                    <div class=""question-area"">
                        <p style=""font-size: 20px; font-weight: bold; margin: 0;"">Is there a person in this image?</p>
                    </div>
                </div>","0","main_experiment_trial","4","kitchen_operations_semantic","semantic_sequence","chronological","","","","","","",""
"","","","","","html-keyboard-response","172","419853","0.0-172.0","5FC40272FE874F57AE1C7754D402B561","019cfa29-e83b-7459-ae41-7fe11bd69c59","019cfa18-54b6-74d4-8209-5fe92d2edcd5","","null","
                <div class=""stimulus-container"">
                    <img src=""images/semantic_sequence/kitchen_operations_semantic/kitchen_operations_semantic_5.png"" class=""exp-image"">
                    <div class=""question-area""></div> 
                </div>","null","","","","","","","","","","","",""
"","","","","","html-button-response","173","420554","0.0-173.0","5FC40272FE874F57AE1C7754D402B561","019cfa29-e83b-7459-ae41-7fe11bd69c59","019cfa18-54b6-74d4-8209-5fe92d2edcd5","","700","
                <div class=""stimulus-container"">
                    <img src=""images/semantic_sequence/kitchen_operations_semantic/kitchen_operations_semantic_5.png"" class=""exp-image"">
                    <div class=""question-area"">
                        <p style=""font-size: 20px; font-weight: bold; margin: 0;"">Is there a person in this image?</p>
                    </div>
                </div>","0","main_experiment_trial","5","kitchen_operations_semantic","semantic_sequence","chronological","","","","","","",""
"","","","","","html-keyboard-response","174","421562","0.0-174.0","5FC40272FE874F57AE1C7754D402B561","019cfa29-e83b-7459-ae41-7fe11bd69c59","019cfa18-54b6-74d4-8209-5fe92d2edcd5","","null","
                <div class=""stimulus-container"">
                    <img src=""images/semantic_sequence/kitchen_operations_semantic/kitchen_operations_semantic_6.png"" class=""exp-image"">
                    <div class=""question-area""></div> 
                </div>","null","","","","","","","","","","","",""
"","","","","","html-button-response","175","422298","0.0-175.0","5FC40272FE874F57AE1C7754D402B561","019cfa29-e83b-7459-ae41-7fe11bd69c59","019cfa18-54b6-74d4-8209-5fe92d2edcd5","","735","
                <div class=""stimulus-container"">
                    <img src=""images/semantic_sequence/kitchen_operations_semantic/kitchen_operations_semantic_6.png"" class=""exp-image"">
                    <div class=""question-area"">
                        <p style=""font-size: 20px; font-weight: bold; margin: 0;"">Is there a person in this image?</p>
                    </div>
                </div>","0","main_experiment_trial","6","kitchen_operations_semantic","semantic_sequence","chronological","","","","","","",""
"","","","","","html-keyboard-response","176","423310","0.0-176.0","5FC40272FE874F57AE1C7754D402B561","019cfa29-e83b-7459-ae41-7fe11bd69c59","019cfa18-54b6-74d4-8209-5fe92d2edcd5","","null","
                <div class=""stimulus-container"">
                    <img src=""images/semantic_sequence/kitchen_operations_semantic/kitchen_operations_semantic_7.png"" class=""exp-image"">
