"success","timeout","failed_images","failed_audio","failed_video","trial_type","trial_index","time_elapsed","internal_node_id","rt","view_history","stimulus","response","task","folder","image_index","valuable_image_index","reward_type","distance_from_x","v_index","n_index","sequence_type","valuable_folder","neutral_folder","chosen_valuable"
"true","false","[]","[]","[]","preload","0","7034","0.0-0.0","","","","","","","","","","","","","","","",""
"true","","","","","fullscreen","1","27871","0.0-1.0","19836","","","","","","","","","","","","","","",""
"","","","","","instructions","2","29315","0.0-2.0","1443","[{""page_index"":0,""viewing_time"":1443}]","","","","","","","","","","","","","",""
"","","","","","html-keyboard-response","3","32316","0.0-3.0","null","","<div style=""background-color: white; width: 100vw; height: 100vh;""></div>","null","","","","","","","","","","","",""
"","","","","","html-keyboard-response","4","36318","0.0-4.0","null","","<div class=""stimulus-container""><img src=""images/causal_sequence/saving_a_cat_causal/saving_a_cat_causal_1.png"" class=""exp-image""></div>","null","","","","","","","","","","","",""
"","","","","","html-button-response","5","38726","0.0-5.0","2407","","<div class=""stimulus-container""><img src=""images/causal_sequence/saving_a_cat_causal/saving_a_cat_causal_1.png"" class=""exp-image""><div class=""question-area""><b>Is there a person?</b></div></div>","0","person_check","saving_a_cat_causal","1","","","","","","","","",""
"","","","","","html-keyboard-response","6","42728","0.0-6.0","null","","<div class=""stimulus-container""><img src=""images/causal_sequence/saving_a_cat_causal/saving_a_cat_causal_2.png"" class=""exp-image""></div>","null","","","","","","","","","","","",""
"","","","","","html-button-response","7","43722","0.0-7.0","993","","<div class=""stimulus-container""><img src=""images/causal_sequence/saving_a_cat_causal/saving_a_cat_causal_2.png"" class=""exp-image""><div class=""question-area""><b>Is there a person?</b></div></div>","1","person_check","saving_a_cat_causal","2","","","","","","","","",""
"","","","","","html-keyboard-response","8","47725","0.0-8.0","null","","<div class=""stimulus-container""><img src=""images/causal_sequence/saving_a_cat_causal/saving_a_cat_causal_3.png"" class=""exp-image""></div>","null","","","","","","","","","","","",""
"","","","","","html-button-response","9","48237","0.0-9.0","512","","<div class=""stimulus-container""><img src=""images/causal_sequence/saving_a_cat_causal/saving_a_cat_causal_3.png"" class=""exp-image""><div class=""question-area""><b>Is there a person?</b></div></div>","1","person_check","saving_a_cat_causal","3","","","","","","","","",""
"","","","","","html-keyboard-response","10","52238","0.0-10.0","null","","<div class=""stimulus-container""><img src=""images/causal_sequence/saving_a_cat_causal/saving_a_cat_causal_4.png"" class=""exp-image""></div>","null","","","","","","","","","","","",""
"","","","","","html-button-response","11","52760","0.0-11.0","521","","<div class=""stimulus-container""><img src=""images/causal_sequence/saving_a_cat_causal/saving_a_cat_causal_4.png"" class=""exp-image""><div class=""question-area""><b>Is there a person?</b></div></div>","0","person_check","saving_a_cat_causal","4","","","","","","","","",""
"","","","","","html-keyboard-response","12","56761","0.0-12.0","null","","<div class=""stimulus-container""><img src=""images/causal_sequence/saving_a_cat_causal/saving_a_cat_causal_5.png"" class=""exp-image""></div>","null","","","","","","","","","","","",""
"","","","","","html-button-response","13","57342","0.0-13.0","580","","<div class=""stimulus-container""><img src=""images/causal_sequence/saving_a_cat_causal/saving_a_cat_causal_5.png"" class=""exp-image""><div class=""question-area""><b>Is there a person?</b></div></div>","0","person_check","saving_a_cat_causal","5","","","","","","","","",""
"","","","","","html-keyboard-response","14","61344","0.0-14.0","null","","<div class=""stimulus-container""><img src=""images/causal_sequence/saving_a_cat_causal/saving_a_cat_causal_6.png"" class=""exp-image""></div>","null","","","","","","","","","","","",""
"","","","","","html-button-response","15","62517","0.0-15.0","1172","","<div class=""stimulus-container""><img src=""images/causal_sequence/saving_a_cat_causal/saving_a_cat_causal_6.png"" class=""exp-image""><div class=""question-area""><b>Is there a person?</b></div></div>","0","person_check","saving_a_cat_causal","6","","","","","","","","",""
"","","","","","html-keyboard-response","16","66519","0.0-16.0","null","","<div class=""stimulus-container""><img src=""images/causal_sequence/saving_a_cat_causal/saving_a_cat_causal_7.png"" class=""exp-image""></div>","null","","","","","","","","","","","",""
"","","","","","html-button-response","17","67790","0.0-17.0","1270","","<div class=""stimulus-container""><img src=""images/causal_sequence/saving_a_cat_causal/saving_a_cat_causal_7.png"" class=""exp-image""><div class=""question-area""><b>Is there a person?</b></div></div>","0","person_check","saving_a_cat_causal","7","","","","","","","","",""
"","","","","","html-keyboard-response","18","71792","0.0-18.0","null","","<div class=""stimulus-container""><img src=""images/causal_sequence/saving_a_cat_causal/saving_a_cat_causal_8.png"" class=""exp-image""></div>","null","","","","","","","","","","","",""
"","","","","","html-button-response","19","72927","0.0-19.0","1135","","<div class=""stimulus-container""><img src=""images/causal_sequence/saving_a_cat_causal/saving_a_cat_causal_8.png"" class=""exp-image""><div class=""question-area""><b>Is there a person?</b></div></div>","0","person_check","saving_a_cat_causal","8","","","","","","","","",""
"","","","","","html-keyboard-response","20","76929","0.0-20.0","null","","<div class=""stimulus-container""><img src=""images/causal_sequence/saving_a_cat_causal/saving_a_cat_causal_9.png"" class=""exp-image""></div>","null","","","","","","","","","","","",""
"","","","","","html-button-response","21","78267","0.0-21.0","1338","","<div class=""stimulus-container""><img src=""images/causal_sequence/saving_a_cat_causal/saving_a_cat_causal_9.png"" class=""exp-image""><div class=""question-area""><b>Is there a person?</b></div></div>","0","person_check","saving_a_cat_causal","9","","","","","","","","",""
"","","","","","html-keyboard-response","22","82269","0.0-22.0","null","","<div class=""stimulus-container""><img src=""images/causal_sequence/saving_a_cat_causal/saving_a_cat_causal_ten.png"" class=""exp-image""></div>","null","","","","","","","","","","","",""
"","","","","","html-button-response","23","82804","0.0-23.0","535","","<div class=""stimulus-container""><img src=""images/causal_sequence/saving_a_cat_causal/saving_a_cat_causal_ten.png"" class=""exp-image""><div class=""question-area""><b>Is there a person?</b></div></div>","0","person_check","saving_a_cat_causal","10","","","","","","","","",""
"","","","","","html-keyboard-response","24","85806","0.0-24.0","null","","<div style=""background-color: white; width: 100vw; height: 100vh;""></div>","null","","","","","","","","","","","",""
"","","","","","html-keyboard-response","25","89808","0.0-25.0","null","","<div class=""stimulus-container""><img src=""images/semantic_sequence/visiting_cities_semantic/visiting_cities_semantic_1.png"" class=""exp-image""></div>","null","","","","","","","","","","","",""
"","","","","","html-button-response","26","94977","0.0-26.0","5169","","<div class=""stimulus-container""><img src=""images/semantic_sequence/visiting_cities_semantic/visiting_cities_semantic_1.png"" class=""exp-image""><div class=""question-area""><b>Is there a person?</b></div></div>","0","person_check","visiting_cities_semantic","1","","","","","","","","",""
"","","","","","html-keyboard-response","27","98978","0.0-27.0","null","","<div class=""stimulus-container""><img src=""images/semantic_sequence/visiting_cities_semantic/visiting_cities_semantic_2.png"" class=""exp-image""></div>","null","","","","","","","","","","","",""
"","","","","","html-button-response","28","99508","0.0-28.0","529","","<div class=""stimulus-container""><img src=""images/semantic_sequence/visiting_cities_semantic/visiting_cities_semantic_2.png"" class=""exp-image""><div class=""question-area""><b>Is there a person?</b></div></div>","1","person_check","visiting_cities_semantic","2","","","","","","","","",""
"","","","","","html-keyboard-response","29","103510","0.0-29.0","null","","<div class=""stimulus-container""><img src=""images/semantic_sequence/visiting_cities_semantic/visiting_cities_semantic_3.png"" class=""exp-image""></div>","null","","","","","","","","","","","",""
"","","","","","html-button-response","30","104143","0.0-30.0","633","","<div class=""stimulus-container""><img src=""images/semantic_sequence/visiting_cities_semantic/visiting_cities_semantic_3.png"" class=""exp-image""><div class=""question-area""><b>Is there a person?</b></div></div>","1","person_check","visiting_cities_semantic","3","","","","","","","","",""
"","","","","","html-keyboard-response","31","108145","0.0-31.0","null","","<div class=""stimulus-container""><img src=""images/semantic_sequence/visiting_cities_semantic/visiting_cities_semantic_4.png"" class=""exp-image""></div>","null","","","","","","","","","","","",""
"","","","","","html-button-response","32","108741","0.0-32.0","595","","<div class=""stimulus-container""><img src=""images/semantic_sequence/visiting_cities_semantic/visiting_cities_semantic_4.png"" class=""exp-image""><div class=""question-area""><b>Is there a person?</b></div></div>","1","person_check","visiting_cities_semantic","4","","","","","","","","",""
"","","","","","html-keyboard-response","33","112743","0.0-33.0","null","","<div class=""stimulus-container""><img src=""images/semantic_sequence/visiting_cities_semantic/visiting_cities_semantic_5.png"" class=""exp-image""></div>","null","","","","","","","","","","","",""
"","","","","","html-button-response","34","113204","0.0-34.0","460","","<div class=""stimulus-container""><img src=""images/semantic_sequence/visiting_cities_semantic/visiting_cities_semantic_5.png"" class=""exp-image""><div class=""question-area""><b>Is there a person?</b></div></div>","1","person_check","visiting_cities_semantic","5","","","","","","","","",""
"","","","","","html-keyboard-response","35","117205","0.0-35.0","null","","<div class=""stimulus-container""><img src=""images/semantic_sequence/visiting_cities_semantic/visiting_cities_semantic_6.png"" class=""exp-image""></div>","null","","","","","","","","","","","",""
"","","","","","html-button-response","36","117695","0.0-36.0","490","","<div class=""stimulus-container""><img src=""images/semantic_sequence/visiting_cities_semantic/visiting_cities_semantic_6.png"" class=""exp-image""><div class=""question-area""><b>Is there a person?</b></div></div>","1","person_check","visiting_cities_semantic","6","","","","","","","","",""
"","","","","","html-keyboard-response","37","121696","0.0-37.0","null","","<div class=""stimulus-container""><img src=""images/semantic_sequence/visiting_cities_semantic/visiting_cities_semantic_7.png"" class=""exp-image""></div>","null","","","","","","","","","","","",""
"","","","","","html-button-response","38","122242","0.0-38.0","545","","<div class=""stimulus-container""><img src=""images/semantic_sequence/visiting_cities_semantic/visiting_cities_semantic_7.png"" class=""exp-image""><div class=""question-area""><b>Is there a person?</b></div></div>","0","person_check","visiting_cities_semantic","7","","","","","","","","",""
"","","","","","html-keyboard-response","39","126244","0.0-39.0","null","","<div class=""stimulus-container""><img src=""images/semantic_sequence/visiting_cities_semantic/visiting_cities_semantic_8.png"" class=""exp-image""></div>","null","","","","","","","","","","","",""
"","","","","","html-button-response","40","126734","0.0-40.0","489","","<div class=""stimulus-container""><img src=""images/semantic_sequence/visiting_cities_semantic/visiting_cities_semantic_8.png"" class=""exp-image""><div class=""question-area""><b>Is there a person?</b></div></div>","0","person_check","visiting_cities_semantic","8","","","","","","","","",""
"","","","","","html-keyboard-response","41","130736","0.0-41.0","null","","<div class=""stimulus-container""><img src=""images/semantic_sequence/visiting_cities_semantic/visiting_cities_semantic_9.png"" class=""exp-image""></div>","null","","","","","","","","","","","",""
"","","","","","html-button-response","42","131129","0.0-42.0","392","","<div class=""stimulus-container""><img src=""images/semantic_sequence/visiting_cities_semantic/visiting_cities_semantic_9.png"" class=""exp-image""><div class=""question-area""><b>Is there a person?</b></div></div>","0","person_check","visiting_cities_semantic","9","","","","","","","","",""
"","","","","","html-keyboard-response","43","135130","0.0-43.0","null","","<div class=""stimulus-container""><img src=""images/semantic_sequence/visiting_cities_semantic/visiting_cities_semantic_ten.png"" class=""exp-image""></div>","null","","","","","","","","","","","",""
"","","","","","html-button-response","44","135516","0.0-44.0","385","","<div class=""stimulus-container""><img src=""images/semantic_sequence/visiting_cities_semantic/visiting_cities_semantic_ten.png"" class=""exp-image""><div class=""question-area""><b>Is there a person?</b></div></div>","0","person_check","visiting_cities_semantic","10","","","","","","","","",""
"","","","","","html-keyboard-response","45","138519","0.0-45.0","null","","<div style=""background-color: white; width: 100vw; height: 100vh;""></div>","null","","","","","","","","","","","",""
"","","","","","html-keyboard-response","46","142521","0.0-46.0","null","","<div class=""stimulus-container""><img src=""images/semantic_sequence/kitchen_operations_semantic/kitchen_operations_semantic_1.png"" class=""exp-image""></div>","null","","","","","","","","","","","",""
"","","","","","html-button-response","47","143399","0.0-47.0","877","","<div class=""stimulus-container""><img src=""images/semantic_sequence/kitchen_operations_semantic/kitchen_operations_semantic_1.png"" class=""exp-image""><div class=""question-area""><b>Is there a person?</b></div></div>","0","person_check","kitchen_operations_semantic","1","","","","","","","","",""
"","","","","","html-keyboard-response","48","147400","0.0-48.0","null","","<div class=""stimulus-container""><img src=""images/semantic_sequence/kitchen_operations_semantic/kitchen_operations_semantic_2.png"" class=""exp-image""></div>","null","","","","","","","","","","","",""
"","","","","","html-button-response","49","147817","0.0-49.0","416","","<div class=""stimulus-container""><img src=""images/semantic_sequence/kitchen_operations_semantic/kitchen_operations_semantic_2.png"" class=""exp-image""><div class=""question-area""><b>Is there a person?</b></div></div>","0","person_check","kitchen_operations_semantic","2","","","","","","","","",""
"","","","","","html-keyboard-response","50","151818","0.0-50.0","null","","<div class=""stimulus-container""><img src=""images/semantic_sequence/kitchen_operations_semantic/kitchen_operations_semantic_3.png"" class=""exp-image""></div>","null","","","","","","","","","","","",""
"","","","","","html-button-response","51","152241","0.0-51.0","422","","<div class=""stimulus-container""><img src=""images/semantic_sequence/kitchen_operations_semantic/kitchen_operations_semantic_3.png"" class=""exp-image""><div class=""question-area""><b>Is there a person?</b></div></div>","0","person_check","kitchen_operations_semantic","3","","","","","","","","",""
"","","","","","html-keyboard-response","52","156243","0.0-52.0","null","","<div class=""stimulus-container""><img src=""images/semantic_sequence/kitchen_operations_semantic/kitchen_operations_semantic_4.png"" class=""exp-image""></div>","null","","","","","","","","","","","",""
"","","","","","html-button-response","53","156839","0.0-53.0","596","","<div class=""stimulus-container""><img src=""images/semantic_sequence/kitchen_operations_semantic/kitchen_operations_semantic_4.png"" class=""exp-image""><div class=""question-area""><b>Is there a person?</b></div></div>","0","person_check","kitchen_operations_semantic","4","","","","","","","","",""
"","","","","","html-keyboard-response","54","160840","0.0-54.0","null","","<div class=""stimulus-container""><img src=""images/semantic_sequence/kitchen_operations_semantic/kitchen_operations_semantic_5.png"" class=""exp-image""></div>","null","","","","","","","","","","","",""
"","","","","","html-button-response","55","161393","0.0-55.0","552","","<div class=""stimulus-container""><img src=""images/semantic_sequence/kitchen_operations_semantic/kitchen_operations_semantic_5.png"" class=""exp-image""><div class=""question-area""><b>Is there a person?</b></div></div>","0","person_check","kitchen_operations_semantic","5","","","","","","","","",""
"","","","","","html-keyboard-response","56","165395","0.0-56.0","null","","<div class=""stimulus-container""><img src=""images/semantic_sequence/kitchen_operations_semantic/kitchen_operations_semantic_6.png"" class=""exp-image""></div>","null","","","","","","","","","","","",""
"","","","","","html-button-response","57","166829","0.0-57.0","1434","","<div class=""stimulus-container""><img src=""images/semantic_sequence/kitchen_operations_semantic/kitchen_operations_semantic_6.png"" class=""exp-image""><div class=""question-area""><b>Is there a person?</b></div></div>","0","person_check","kitchen_operations_semantic","6","","","","","","","","",""
"","","","","","html-keyboard-response","58","170831","0.0-58.0","null","","<div class=""stimulus-container""><img src=""images/semantic_sequence/kitchen_operations_semantic/kitchen_operations_semantic_7.png"" class=""exp-image""></div>","null","","","","","","","","","","","",""
"","","","","","html-button-response","59","171487","0.0-59.0","656","","<div class=""stimulus-container""><img src=""images/semantic_sequence/kitchen_operations_semantic/kitchen_operations_semantic_7.png"" class=""exp-image""><div class=""question-area""><b>Is there a person?</b></div></div>","0","person_check","kitchen_operations_semantic","7","","","","","","","","",""
"","","","","","html-keyboard-response","60","175490","0.0-60.0","null","","<div class=""stimulus-container""><img src=""images/semantic_sequence/kitchen_operations_semantic/kitchen_operations_semantic_8.png"" class=""exp-image""></div>","null","","","","","","","","","","","",""
"","","","","","html-button-response","61","176041","0.0-61.0","550","","<div class=""stimulus-container""><img src=""images/semantic_sequence/kitchen_operations_semantic/kitchen_operations_semantic_8.png"" class=""exp-image""><div class=""question-area""><b>Is there a person?</b></div></div>","0","person_check","kitchen_operations_semantic","8","","","","","","","","",""
"","","","","","html-keyboard-response","62","180042","0.0-62.0","null","","<div class=""stimulus-container""><img src=""images/semantic_sequence/kitchen_operations_semantic/kitchen_operations_semantic_9.png"" class=""exp-image""></div>","null","","","","","","","","","","","",""
"","","","","","html-button-response","63","180443","0.0-63.0","400","","<div class=""stimulus-container""><img src=""images/semantic_sequence/kitchen_operations_semantic/kitchen_operations_semantic_9.png"" class=""exp-image""><div class=""question-area""><b>Is there a person?</b></div></div>","0","person_check","kitchen_operations_semantic","9","","","","","","","","",""
"","","","","","html-keyboard-response","64","184445","0.0-64.0","null","","<div class=""stimulus-container""><img src=""images/semantic_sequence/kitchen_operations_semantic/kitchen_operations_semantic_ten.png"" class=""exp-image""></div>","null","","","","","","","","","","","",""
"","","","","","html-button-response","65","185101","0.0-65.0","655","","<div class=""stimulus-container""><img src=""images/semantic_sequence/kitchen_operations_semantic/kitchen_operations_semantic_ten.png"" class=""exp-image""><div class=""question-area""><b>Is there a person?</b></div></div>","0","person_check","kitchen_operations_semantic","10","","","","","","","","",""
"","","","","","html-keyboard-response","66","188102","0.0-66.0","null","","<div style=""background-color: white; width: 100vw; height: 100vh;""></div>","null","","","","","","","","","","","",""
"","","","","","html-keyboard-response","67","192104","0.0-67.0","null","","<div class=""stimulus-container""><img src=""images/causal_sequence/museum_causal/museum_causal_1.png"" class=""exp-image""></div>","null","","","","","","","","","","","",""
"","","","","","html-button-response","68","193200","0.0-68.0","1095","","<div class=""stimulus-container""><img src=""images/causal_sequence/museum_causal/museum_causal_1.png"" class=""exp-image""><div class=""question-area""><b>Is there a person?</b></div></div>","0","person_check","museum_causal","1","","","","","","","","",""
"","","","","","html-keyboard-response","69","197202","0.0-69.0","null","","<div class=""stimulus-container""><img src=""images/causal_sequence/museum_causal/museum_causal_2.png"" class=""exp-image""></div>","null","","","","","","","","","","","",""
"","","","","","html-button-response","70","198516","0.0-70.0","1314","","<div class=""stimulus-container""><img src=""images/causal_sequence/museum_causal/museum_causal_2.png"" class=""exp-image""><div class=""question-area""><b>Is there a person?</b></div></div>","1","person_check","museum_causal","2","","","","","","","","",""
"","","","","","html-keyboard-response","71","202518","0.0-71.0","null","","<div class=""stimulus-container""><img src=""images/causal_sequence/museum_causal/museum_causal_3.png"" class=""exp-image""></div>","null","","","","","","","","","","","",""
"","","","","","html-button-response","72","203948","0.0-72.0","1429","","<div class=""stimulus-container""><img src=""images/causal_sequence/museum_causal/museum_causal_3.png"" class=""exp-image""><div class=""question-area""><b>Is there a person?</b></div></div>","0","person_check","museum_causal","3","","","","","","","","",""
"","","","","","html-keyboard-response","73","207949","0.0-73.0","null","","<div class=""stimulus-container""><img src=""images/causal_sequence/museum_causal/museum_causal_4.png"" class=""exp-image""></div>","null","","","","","","","","","","","",""
"","","","","","html-button-response","74","208426","0.0-74.0","476","","<div class=""stimulus-container""><img src=""images/causal_sequence/museum_causal/museum_causal_4.png"" class=""exp-image""><div class=""question-area""><b>Is there a person?</b></div></div>","1","person_check","museum_causal","4","","","","","","","","",""
"","","","","","html-keyboard-response","75","212428","0.0-75.0","null","","<div class=""stimulus-container""><img src=""images/causal_sequence/museum_causal/museum_causal_5.png"" class=""exp-image""></div>","null","","","","","","","","","","","",""
"","","","","","html-button-response","76","213165","0.0-76.0","736","","<div class=""stimulus-container""><img src=""images/causal_sequence/museum_causal/museum_causal_5.png"" class=""exp-image""><div class=""question-area""><b>Is there a person?</b></div></div>","0","person_check","museum_causal","5","","","","","","","","",""
"","","","","","html-keyboard-response","77","217167","0.0-77.0","null","","<div class=""stimulus-container""><img src=""images/causal_sequence/museum_causal/museum_causal_6.png"" class=""exp-image""></div>","null","","","","","","","","","","","",""
"","","","","","html-button-response","78","217966","0.0-78.0","798","","<div class=""stimulus-container""><img src=""images/causal_sequence/museum_causal/museum_causal_6.png"" class=""exp-image""><div class=""question-area""><b>Is there a person?</b></div></div>","0","person_check","museum_causal","6","","","","","","","","",""
"","","","","","html-keyboard-response","79","221967","0.0-79.0","null","","<div class=""stimulus-container""><img src=""images/causal_sequence/museum_causal/museum_causal_7.png"" class=""exp-image""></div>","null","","","","","","","","","","","",""
"","","","","","html-button-response","80","222735","0.0-80.0","768","","<div class=""stimulus-container""><img src=""images/causal_sequence/museum_causal/museum_causal_7.png"" class=""exp-image""><div class=""question-area""><b>Is there a person?</b></div></div>","1","person_check","museum_causal","7","","","","","","","","",""
"","","","","","html-keyboard-response","81","226737","0.0-81.0","null","","<div class=""stimulus-container""><img src=""images/causal_sequence/museum_causal/museum_causal_8.png"" class=""exp-image""></div>","null","","","","","","","","","","","",""
"","","","","","html-button-response","82","228264","0.0-82.0","1526","","<div class=""stimulus-container""><img src=""images/causal_sequence/museum_causal/museum_causal_8.png"" class=""exp-image""><div class=""question-area""><b>Is there a person?</b></div></div>","0","person_check","museum_causal","8","","","","","","","","",""
"","","","","","html-keyboard-response","83","232265","0.0-83.0","null","","<div class=""stimulus-container""><img src=""images/causal_sequence/museum_causal/museum_causal_9.png"" class=""exp-image""></div>","null","","","","","","","","","","","",""
"","","","","","html-button-response","84","233790","0.0-84.0","1525","","<div class=""stimulus-container""><img src=""images/causal_sequence/museum_causal/museum_causal_9.png"" class=""exp-image""><div class=""question-area""><b>Is there a person?</b></div></div>","1","person_check","museum_causal","9","","","","","","","","",""
"","","","","","html-keyboard-response","85","237792","0.0-85.0","null","","<div class=""stimulus-container""><img src=""images/causal_sequence/museum_causal/museum_causal_ten.png"" class=""exp-image""></div>","null","","","","","","","","","","","",""
"","","","","","html-button-response","86","238863","0.0-86.0","1070","","<div class=""stimulus-container""><img src=""images/causal_sequence/museum_causal/museum_causal_ten.png"" class=""exp-image""><div class=""question-area""><b>Is there a person?</b></div></div>","0","person_check","museum_causal","10","","","","","","","","",""
"","","","","","html-keyboard-response","87","241864","0.0-87.0","null","","<div style=""background-color: white; width: 100vw; height: 100vh;""></div>","null","","","","","","","","","","","",""
"","","","","","html-keyboard-response","88","245866","0.0-88.0","null","","<div class=""stimulus-container""><img src=""images/schematic_sequence/dinner_party_scheme/dinner_party_scheme_1.png"" class=""exp-image""></div>","null","","","","","","","","","","","",""
"","","","","","html-button-response","89","247127","0.0-89.0","1260","","<div class=""stimulus-container""><img src=""images/schematic_sequence/dinner_party_scheme/dinner_party_scheme_1.png"" class=""exp-image""><div class=""question-area""><b>Is there a person?</b></div></div>","0","person_check","dinner_party_scheme","1","","","","","","","","",""
"","","","","","html-keyboard-response","90","251129","0.0-90.0","null","","<div class=""stimulus-container""><img src=""images/schematic_sequence/dinner_party_scheme/dinner_party_scheme_2.png"" class=""exp-image""></div>","null","","","","","","","","","","","",""
"","","","","","html-button-response","91","251667","0.0-91.0","537","","<div class=""stimulus-container""><img src=""images/schematic_sequence/dinner_party_scheme/dinner_party_scheme_2.png"" class=""exp-image""><div class=""question-area""><b>Is there a person?</b></div></div>","0","person_check","dinner_party_scheme","2","","","","","","","","",""
"","","","","","html-keyboard-response","92","255669","0.0-92.0","null","","<div class=""stimulus-container""><img src=""images/schematic_sequence/dinner_party_scheme/dinner_party_scheme_3.png"" class=""exp-image""></div>","null","","","","","","","","","","","",""
"","","","","","html-button-response","93","260525","0.0-93.0","4855","","<div class=""stimulus-container""><img src=""images/schematic_sequence/dinner_party_scheme/dinner_party_scheme_3.png"" class=""exp-image""><div class=""question-area""><b>Is there a person?</b></div></div>","0","person_check","dinner_party_scheme","3","","","","","","","","",""
"","","","","","html-keyboard-response","94","264527","0.0-94.0","null","","<div class=""stimulus-container""><img src=""images/schematic_sequence/dinner_party_scheme/dinner_party_scheme_4.png"" class=""exp-image""></div>","null","","","","","","","","","","","",""
"","","","","","html-button-response","95","265269","0.0-95.0","742","","<div class=""stimulus-container""><img src=""images/schematic_sequence/dinner_party_scheme/dinner_party_scheme_4.png"" class=""exp-image""><div class=""question-area""><b>Is there a person?</b></div></div>","0","person_check","dinner_party_scheme","4","","","","","","","","",""
"","","","","","html-keyboard-response","96","269271","0.0-96.0","null","","<div class=""stimulus-container""><img src=""images/schematic_sequence/dinner_party_scheme/dinner_party_scheme_5.png"" class=""exp-image""></div>","null","","","","","","","","","","","",""
"","","","","","html-button-response","97","269889","0.0-97.0","617","","<div class=""stimulus-container""><img src=""images/schematic_sequence/dinner_party_scheme/dinner_party_scheme_5.png"" class=""exp-image""><div class=""question-area""><b>Is there a person?</b></div></div>","0","person_check","dinner_party_scheme","5","","","","","","","","",""
"","","","","","html-keyboard-response","98","273891","0.0-98.0","null","","<div class=""stimulus-container""><img src=""images/schematic_sequence/dinner_party_scheme/dinner_party_scheme_6.png"" class=""exp-image""></div>","null","","","","","","","","","","","",""
"","","","","","html-button-response","99","274674","0.0-99.0","783","","<div class=""stimulus-container""><img src=""images/schematic_sequence/dinner_party_scheme/dinner_party_scheme_6.png"" class=""exp-image""><div class=""question-area""><b>Is there a person?</b></div></div>","0","person_check","dinner_party_scheme","6","","","","","","","","",""
"","","","","","html-keyboard-response","100","278676","0.0-100.0","null","","<div class=""stimulus-container""><img src=""images/schematic_sequence/dinner_party_scheme/dinner_party_scheme_7.png"" class=""exp-image""></div>","null","","","","","","","","","","","",""
"","","","","","html-button-response","101","280263","0.0-101.0","1586","","<div class=""stimulus-container""><img src=""images/schematic_sequence/dinner_party_scheme/dinner_party_scheme_7.png"" class=""exp-image""><div class=""question-area""><b>Is there a person?</b></div></div>","0","person_check","dinner_party_scheme","7","","","","","","","","",""
"","","","","","html-keyboard-response","102","284264","0.0-102.0","null","","<div class=""stimulus-container""><img src=""images/schematic_sequence/dinner_party_scheme/dinner_party_scheme_8.png"" class=""exp-image""></div>","null","","","","","","","","","","","",""
"","","","","","html-button-response","103","285684","0.0-103.0","1419","","<div class=""stimulus-container""><img src=""images/schematic_sequence/dinner_party_scheme/dinner_party_scheme_8.png"" class=""exp-image""><div class=""question-area""><b>Is there a person?</b></div></div>","0","person_check","dinner_party_scheme","8","","","","","","","","",""
"","","","","","html-keyboard-response","104","289686","0.0-104.0","null","","<div class=""stimulus-container""><img src=""images/schematic_sequence/dinner_party_scheme/dinner_party_scheme_9.png"" class=""exp-image""></div>","null","","","","","","","","","","","",""
"","","","","","html-button-response","105","291924","0.0-105.0","2237","","<div class=""stimulus-container""><img src=""images/schematic_sequence/dinner_party_scheme/dinner_party_scheme_9.png"" class=""exp-image""><div class=""question-area""><b>Is there a person?</b></div></div>","0","person_check","dinner_party_scheme","9","","","","","","","","",""
"","","","","","html-keyboard-response","106","295926","0.0-106.0","null","","<div class=""stimulus-container""><img src=""images/schematic_sequence/dinner_party_scheme/dinner_party_scheme_ten.png"" class=""exp-image""></div>","null","","","","","","","","","","","",""
"","","","","","html-button-response","107","297939","0.0-107.0","2013","","<div class=""stimulus-container""><img src=""images/schematic_sequence/dinner_party_scheme/dinner_party_scheme_ten.png"" class=""exp-image""><div class=""question-area""><b>Is there a person?</b></div></div>","0","person_check","dinner_party_scheme","10","","","","","","","","",""
"","","","","","html-keyboard-response","108","300941","0.0-108.0","null","","<div style=""background-color: white; width: 100vw; height: 100vh;""></div>","null","","","","","","","","","","","",""
"","","","","","html-keyboard-response","109","304943","0.0-109.0","null","","<div class=""stimulus-container""><img src=""images/causal_sequence/dog_causal/dog_causal_1.png"" class=""exp-image""></div>","null","","","","","","","","","","","",""
"","","","","","html-button-response","110","305433","0.0-110.0","489","","<div class=""stimulus-container""><img src=""images/causal_sequence/dog_causal/dog_causal_1.png"" class=""exp-image""><div class=""question-area""><b>Is there a person?</b></div></div>","0","person_check","dog_causal","1","","","","","","","","",""
"","","","","","html-keyboard-response","111","309434","0.0-111.0","null","","<div class=""stimulus-container""><img src=""images/causal_sequence/dog_causal/dog_causal_2.png"" class=""exp-image""></div>","null","","","","","","","","","","","",""
"","","","","","html-button-response","112","310194","0.0-112.0","759","","<div class=""stimulus-container""><img src=""images/causal_sequence/dog_causal/dog_causal_2.png"" class=""exp-image""><div class=""question-area""><b>Is there a person?</b></div></div>","0","person_check","dog_causal","2","","","","","","","","",""
"","","","","","html-keyboard-response","113","314197","0.0-113.0","null","","<div class=""stimulus-container""><img src=""images/causal_sequence/dog_causal/dog_causal_3.png"" class=""exp-image""></div>","null","","","","","","","","","","","",""
"","","","","","html-button-response","114","314710","0.0-114.0","512","","<div class=""stimulus-container""><img src=""images/causal_sequence/dog_causal/dog_causal_3.png"" class=""exp-image""><div class=""question-area""><b>Is there a person?</b></div></div>","0","person_check","dog_causal","3","","","","","","","","",""
"","","","","","html-keyboard-response","115","318712","0.0-115.0","null","","<div class=""stimulus-container""><img src=""images/causal_sequence/dog_causal/dog_causal_4.png"" class=""exp-image""></div>","null","","","","","","","","","","","",""
"","","","","","html-button-response","116","319316","0.0-116.0","603","","<div class=""stimulus-container""><img src=""images/causal_sequence/dog_causal/dog_causal_4.png"" class=""exp-image""><div class=""question-area""><b>Is there a person?</b></div></div>","0","person_check","dog_causal","4","","","","","","","","",""
"","","","","","html-keyboard-response","117","323317","0.0-117.0","null","","<div class=""stimulus-container""><img src=""images/causal_sequence/dog_causal/dog_causal_5.png"" class=""exp-image""></div>","null","","","","","","","","","","","",""
"","","","","","html-button-response","118","323793","0.0-118.0","475","","<div class=""stimulus-container""><img src=""images/causal_sequence/dog_causal/dog_causal_5.png"" class=""exp-image""><div class=""question-area""><b>Is there a person?</b></div></div>","0","person_check","dog_causal","5","","","","","","","","",""
"","","","","","html-keyboard-response","119","327795","0.0-119.0","null","","<div class=""stimulus-container""><img src=""images/causal_sequence/dog_causal/dog_causal_6.png"" class=""exp-image""></div>","null","","","","","","","","","","","",""
"","","","","","html-button-response","120","328874","0.0-120.0","1079","","<div class=""stimulus-container""><img src=""images/causal_sequence/dog_causal/dog_causal_6.png"" class=""exp-image""><div class=""question-area""><b>Is there a person?</b></div></div>","0","person_check","dog_causal","6","","","","","","","","",""
"","","","","","html-keyboard-response","121","332876","0.0-121.0","null","","<div class=""stimulus-container""><img src=""images/causal_sequence/dog_causal/dog_causal_7.png"" class=""exp-image""></div>","null","","","","","","","","","","","",""
"","","","","","html-button-response","122","333430","0.0-122.0","554","","<div class=""stimulus-container""><img src=""images/causal_sequence/dog_causal/dog_causal_7.png"" class=""exp-image""><div class=""question-area""><b>Is there a person?</b></div></div>","0","person_check","dog_causal","7","","","","","","","","",""
"","","","","","html-keyboard-response","123","337433","0.0-123.0","null","","<div class=""stimulus-container""><img src=""images/causal_sequence/dog_causal/dog_causal_8.png"" class=""exp-image""></div>","null","","","","","","","","","","","",""
"","","","","","html-button-response","124","339716","0.0-124.0","2283","","<div class=""stimulus-container""><img src=""images/causal_sequence/dog_causal/dog_causal_8.png"" class=""exp-image""><div class=""question-area""><b>Is there a person?</b></div></div>","0","person_check","dog_causal","8","","","","","","","","",""
"","","","","","html-keyboard-response","125","343718","0.0-125.0","null","","<div class=""stimulus-container""><img src=""images/causal_sequence/dog_causal/dog_causal_9.png"" class=""exp-image""></div>","null","","","","","","","","","","","",""
"","","","","","html-button-response","126","344366","0.0-126.0","647","","<div class=""stimulus-container""><img src=""images/causal_sequence/dog_causal/dog_causal_9.png"" class=""exp-image""><div class=""question-area""><b>Is there a person?</b></div></div>","0","person_check","dog_causal","9","","","","","","","","",""
"","","","","","html-keyboard-response","127","348368","0.0-127.0","null","","<div class=""stimulus-container""><img src=""images/causal_sequence/dog_causal/dog_causal_ten.png"" class=""exp-image""></div>","null","","","","","","","","","","","",""
"","","","","","html-button-response","128","348896","0.0-128.0","527","","<div class=""stimulus-container""><img src=""images/causal_sequence/dog_causal/dog_causal_ten.png"" class=""exp-image""><div class=""question-area""><b>Is there a person?</b></div></div>","0","person_check","dog_causal","10","","","","","","","","",""
"","","","","","html-keyboard-response","129","351898","0.0-129.0","null","","<div style=""background-color: white; width: 100vw; height: 100vh;""></div>","null","","","","","","","","","","","",""
"","","","","","html-keyboard-response","130","355899","0.0-130.0","null","","<div class=""stimulus-container""><img src=""images/semantic_sequence/maintaining_a_car_semantic/maintaining_a_car_semantic_1.png"" class=""exp-image""></div>","null","","","","","","","","","","","",""
"","","","","","html-button-response","131","356704","0.0-131.0","804","","<div class=""stimulus-container""><img src=""images/semantic_sequence/maintaining_a_car_semantic/maintaining_a_car_semantic_1.png"" class=""exp-image""><div class=""question-area""><b>Is there a person?</b></div></div>","0","person_check","maintaining_a_car_semantic","1","","","","","","","","",""
"","","","","","html-keyboard-response","132","360706","0.0-132.0","null","","<div class=""stimulus-container""><img src=""images/semantic_sequence/maintaining_a_car_semantic/maintaining_a_car_semantic_2.png"" class=""exp-image""></div>","null","","","","","","","","","","","",""
"","","","","","html-button-response","133","361255","0.0-133.0","548","","<div class=""stimulus-container""><img src=""images/semantic_sequence/maintaining_a_car_semantic/maintaining_a_car_semantic_2.png"" class=""exp-image""><div class=""question-area""><b>Is there a person?</b></div></div>","0","person_check","maintaining_a_car_semantic","2","","","","","","","","",""
"","","","","","html-keyboard-response","134","365257","0.0-134.0","null","","<div class=""stimulus-container""><img src=""images/semantic_sequence/maintaining_a_car_semantic/maintaining_a_car_semantic_3.png"" class=""exp-image""></div>","null","","","","","","","","","","","",""
"","","","","","html-button-response","135","365921","0.0-135.0","663","","<div class=""stimulus-container""><img src=""images/semantic_sequence/maintaining_a_car_semantic/maintaining_a_car_semantic_3.png"" class=""exp-image""><div class=""question-area""><b>Is there a person?</b></div></div>","0","person_check","maintaining_a_car_semantic","3","","","","","","","","",""
"","","","","","html-keyboard-response","136","369924","0.0-136.0","null","","<div class=""stimulus-container""><img src=""images/semantic_sequence/maintaining_a_car_semantic/maintaining_a_car_semantic_4.png"" class=""exp-image""></div>","null","","","","","","","","","","","",""
"","","","","","html-button-response","137","370361","0.0-137.0","437","","<div class=""stimulus-container""><img src=""images/semantic_sequence/maintaining_a_car_semantic/maintaining_a_car_semantic_4.png"" class=""exp-image""><div class=""question-area""><b>Is there a person?</b></div></div>","0","person_check","maintaining_a_car_semantic","4","","","","","","","","",""
"","","","","","html-keyboard-response","138","374363","0.0-138.0","null","","<div class=""stimulus-container""><img src=""images/semantic_sequence/maintaining_a_car_semantic/maintaining_a_car_semantic_5.png"" class=""exp-image""></div>","null","","","","","","","","","","","",""
"","","","","","html-button-response","139","375131","0.0-139.0","767","","<div class=""stimulus-container""><img src=""images/semantic_sequence/maintaining_a_car_semantic/maintaining_a_car_semantic_5.png"" class=""exp-image""><div class=""question-area""><b>Is there a person?</b></div></div>","0","person_check","maintaining_a_car_semantic","5","","","","","","","","",""
"","","","","","html-keyboard-response","140","379133","0.0-140.0","null","","<div class=""stimulus-container""><img src=""images/semantic_sequence/maintaining_a_car_semantic/maintaining_a_car_semantic_6.png"" class=""exp-image""></div>","null","","","","","","","","","","","",""
"","","","","","html-button-response","141","379833","0.0-141.0","699","","<div class=""stimulus-container""><img src=""images/semantic_sequence/maintaining_a_car_semantic/maintaining_a_car_semantic_6.png"" class=""exp-image""><div class=""question-area""><b>Is there a person?</b></div></div>","0","person_check","maintaining_a_car_semantic","6","","","","","","","","",""
"","","","","","html-keyboard-response","142","383835","0.0-142.0","null","","<div class=""stimulus-container""><img src=""images/semantic_sequence/maintaining_a_car_semantic/maintaining_a_car_semantic_7.png"" class=""exp-image""></div>","null","","","","","","","","","","","",""
"","","","","","html-button-response","143","384237","0.0-143.0","401","","<div class=""stimulus-container""><img src=""images/semantic_sequence/maintaining_a_car_semantic/maintaining_a_car_semantic_7.png"" class=""exp-image""><div class=""question-area""><b>Is there a person?</b></div></div>","0","person_check","maintaining_a_car_semantic","7","","","","","","","","",""
"","","","","","html-keyboard-response","144","388239","0.0-144.0","null","","<div class=""stimulus-container""><img src=""images/semantic_sequence/maintaining_a_car_semantic/maintaining_a_car_semantic_8.png"" class=""exp-image""></div>","null","","","","","","","","","","","",""
"","","","","","html-button-response","145","389149","0.0-145.0","909","","<div class=""stimulus-container""><img src=""images/semantic_sequence/maintaining_a_car_semantic/maintaining_a_car_semantic_8.png"" class=""exp-image""><div class=""question-area""><b>Is there a person?</b></div></div>","0","person_check","maintaining_a_car_semantic","8","","","","","","","","",""
"","","","","","html-keyboard-response","146","393150","0.0-146.0","null","","<div class=""stimulus-container""><img src=""images/semantic_sequence/maintaining_a_car_semantic/maintaining_a_car_semantic_9.png"" class=""exp-image""></div>","null","","","","","","","","","","","",""
"","","","","","html-button-response","147","393671","0.0-147.0","520","","<div class=""stimulus-container""><img src=""images/semantic_sequence/maintaining_a_car_semantic/maintaining_a_car_semantic_9.png"" class=""exp-image""><div class=""question-area""><b>Is there a person?</b></div></div>","0","person_check","maintaining_a_car_semantic","9","","","","","","","","",""
"","","","","","html-keyboard-response","148","397673","0.0-148.0","null","","<div class=""stimulus-container""><img src=""images/semantic_sequence/maintaining_a_car_semantic/maintaining_a_car_semantic_ten.png"" class=""exp-image""></div>","null","","","","","","","","","","","",""
"","","","","","html-button-response","149","398088","0.0-149.0","414","","<div class=""stimulus-container""><img src=""images/semantic_sequence/maintaining_a_car_semantic/maintaining_a_car_semantic_ten.png"" class=""exp-image""><div class=""question-area""><b>Is there a person?</b></div></div>","0","person_check","maintaining_a_car_semantic","10","","","","","","","","",""
"","","","","","html-keyboard-response","150","401090","0.0-150.0","null","","<div style=""background-color: white; width: 100vw; height: 100vh;""></div>","null","","","","","","","","","","","",""
"","","","","","html-keyboard-response","151","405093","0.0-151.0","null","","<div class=""stimulus-container""><img src=""images/semantic_sequence/physical_activity_semantic/physical_activity_semantic_1.png"" class=""exp-image""></div>","null","","","","","","","","","","","",""
"","","","","","html-button-response","152","407006","0.0-152.0","1913","","<div class=""stimulus-container""><img src=""images/semantic_sequence/physical_activity_semantic/physical_activity_semantic_1.png"" class=""exp-image""><div class=""question-area""><b>Is there a person?</b></div></div>","0","person_check","physical_activity_semantic","1","","","","","","","","",""
"","","","","","html-keyboard-response","153","411009","0.0-153.0","null","","<div class=""stimulus-container""><img src=""images/semantic_sequence/physical_activity_semantic/physical_activity_semantic_2.png"" class=""exp-image""></div>","null","","","","","","","","","","","",""
"","","","","","html-button-response","154","411813","0.0-154.0","804","","<div class=""stimulus-container""><img src=""images/semantic_sequence/physical_activity_semantic/physical_activity_semantic_2.png"" class=""exp-image""><div class=""question-area""><b>Is there a person?</b></div></div>","0","person_check","physical_activity_semantic","2","","","","","","","","",""
"","","","","","html-keyboard-response","155","415814","0.0-155.0","null","","<div class=""stimulus-container""><img src=""images/semantic_sequence/physical_activity_semantic/physical_activity_semantic_3.png"" class=""exp-image""></div>","null","","","","","","","","","","","",""
"","","","","","html-button-response","156","416314","0.0-156.0","499","","<div class=""stimulus-container""><img src=""images/semantic_sequence/physical_activity_semantic/physical_activity_semantic_3.png"" class=""exp-image""><div class=""question-area""><b>Is there a person?</b></div></div>","0","person_check","physical_activity_semantic","3","","","","","","","","",""
"","","","","","html-keyboard-response","157","420316","0.0-157.0","null","","<div class=""stimulus-container""><img src=""images/semantic_sequence/physical_activity_semantic/physical_activity_semantic_4.png"" class=""exp-image""></div>","null","","","","","","","","","","","",""
"","","","","","html-button-response","158","420754","0.0-158.0","438","","<div class=""stimulus-container""><img src=""images/semantic_sequence/physical_activity_semantic/physical_activity_semantic_4.png"" class=""exp-image""><div class=""question-area""><b>Is there a person?</b></div></div>","0","person_check","physical_activity_semantic","4","","","","","","","","",""
"","","","","","html-keyboard-response","159","424757","0.0-159.0","null","","<div class=""stimulus-container""><img src=""images/semantic_sequence/physical_activity_semantic/physical_activity_semantic_5.png"" class=""exp-image""></div>","null","","","","","","","","","","","",""
"","","","","","html-button-response","160","426252","0.0-160.0","1494","","<div class=""stimulus-container""><img src=""images/semantic_sequence/physical_activity_semantic/physical_activity_semantic_5.png"" class=""exp-image""><div class=""question-area""><b>Is there a person?</b></div></div>","0","person_check","physical_activity_semantic","5","","","","","","","","",""
"","","","","","html-keyboard-response","161","430253","0.0-161.0","null","","<div class=""stimulus-container""><img src=""images/semantic_sequence/physical_activity_semantic/physical_activity_semantic_6.png"" class=""exp-image""></div>","null","","","","","","","","","","","",""
"","","","","","html-button-response","162","431390","0.0-162.0","1136","","<div class=""stimulus-container""><img src=""images/semantic_sequence/physical_activity_semantic/physical_activity_semantic_6.png"" class=""exp-image""><div class=""question-area""><b>Is there a person?</b></div></div>","0","person_check","physical_activity_semantic","6","","","","","","","","",""
"","","","","","html-keyboard-response","163","435392","0.0-163.0","null","","<div class=""stimulus-container""><img src=""images/semantic_sequence/physical_activity_semantic/physical_activity_semantic_7.png"" class=""exp-image""></div>","null","","","","","","","","","","","",""
"","","","","","html-button-response","164","436909","0.0-164.0","1517","","<div class=""stimulus-container""><img src=""images/semantic_sequence/physical_activity_semantic/physical_activity_semantic_7.png"" class=""exp-image""><div class=""question-area""><b>Is there a person?</b></div></div>","0","person_check","physical_activity_semantic","7","","","","","","","","",""
"","","","","","html-keyboard-response","165","440911","0.0-165.0","null","","<div class=""stimulus-container""><img src=""images/semantic_sequence/physical_activity_semantic/physical_activity_semantic_8.png"" class=""exp-image""></div>","null","","","","","","","","","","","",""
"","","","","","html-button-response","166","441329","0.0-166.0","417","","<div class=""stimulus-container""><img src=""images/semantic_sequence/physical_activity_semantic/physical_activity_semantic_8.png"" class=""exp-image""><div class=""question-area""><b>Is there a person?</b></div></div>","0","person_check","physical_activity_semantic","8","","","","","","","","",""
"","","","","","html-keyboard-response","167","445331","0.0-167.0","null","","<div class=""stimulus-container""><img src=""images/semantic_sequence/physical_activity_semantic/physical_activity_semantic_9.png"" class=""exp-image""></div>","null","","","","","","","","","","","",""
"","","","","","html-button-response","168","445865","0.0-168.0","533","","<div class=""stimulus-container""><img src=""images/semantic_sequence/physical_activity_semantic/physical_activity_semantic_9.png"" class=""exp-image""><div class=""question-area""><b>Is there a person?</b></div></div>","0","person_check","physical_activity_semantic","9","","","","","","","","",""
"","","","","","html-keyboard-response","169","449866","0.0-169.0","null","","<div class=""stimulus-container""><img src=""images/semantic_sequence/physical_activity_semantic/physical_activity_semantic_ten.png"" class=""exp-image""></div>","null","","","","","","","","","","","",""
"","","","","","html-button-response","170","450920","0.0-170.0","1053","","<div class=""stimulus-container""><img src=""images/semantic_sequence/physical_activity_semantic/physical_activity_semantic_ten.png"" class=""exp-image""><div class=""question-area""><b>Is there a person?</b></div></div>","0","person_check","physical_activity_semantic","10","","","","","","","","",""
"","","","","","html-keyboard-response","171","453922","0.0-171.0","null","","<div style=""background-color: white; width: 100vw; height: 100vh;""></div>","null","","","","","","","","","","","",""
"","","","","","html-keyboard-response","172","457923","0.0-172.0","null","","<div class=""stimulus-container""><img src=""images/schematic_sequence/restaurant_scheme/restaurant_scheme_1.png"" class=""exp-image""></div>","null","","","","","","","","","","","",""
"","","","","","html-button-response","173","458954","0.0-173.0","1030","","<div class=""stimulus-container""><img src=""images/schematic_sequence/restaurant_scheme/restaurant_scheme_1.png"" class=""exp-image""><div class=""question-area""><b>Is there a person?</b></div></div>","0","person_check","restaurant_scheme","1","","","","","","","","",""
"","","","","","html-keyboard-response","174","462956","0.0-174.0","null","","<div class=""stimulus-container""><img src=""images/schematic_sequence/restaurant_scheme/restaurant_scheme_2.png"" class=""exp-image""></div>","null","","","","","","","","","","","",""
"","","","","","html-button-response","175","463737","0.0-175.0","781","","<div class=""stimulus-container""><img src=""images/schematic_sequence/restaurant_scheme/restaurant_scheme_2.png"" class=""exp-image""><div class=""question-area""><b>Is there a person?</b></div></div>","1","person_check","restaurant_scheme","2","","","","","","","","",""
"","","","","","html-keyboard-response","176","467739","0.0-176.0","null","","<div class=""stimulus-container""><img src=""images/schematic_sequence/restaurant_scheme/restaurant_scheme_3.png"" class=""exp-image""></div>","null","","","","","","","","","","","",""
"","","","","","html-button-response","177","468186","0.0-177.0","447","","<div class=""stimulus-container""><img src=""images/schematic_sequence/restaurant_scheme/restaurant_scheme_3.png"" class=""exp-image""><div class=""question-area""><b>Is there a person?</b></div></div>","1","person_check","restaurant_scheme","3","","","","","","","","",""
"","","","","","html-keyboard-response","178","472187","0.0-178.0","null","","<div class=""stimulus-container""><img src=""images/schematic_sequence/restaurant_scheme/restaurant_scheme_4.png"" class=""exp-image""></div>","null","","","","","","","","","","","",""
"","","","","","html-button-response","179","472625","0.0-179.0","437","","<div class=""stimulus-container""><img src=""images/schematic_sequence/restaurant_scheme/restaurant_scheme_4.png"" class=""exp-image""><div class=""question-area""><b>Is there a person?</b></div></div>","0","person_check","restaurant_scheme","4","","","","","","","","",""
"","","","","","html-keyboard-response","180","476626","0.0-180.0","null","","<div class=""stimulus-container""><img src=""images/schematic_sequence/restaurant_scheme/restaurant_scheme_5.png"" class=""exp-image""></div>","null","","","","","","","","","","","",""
"","","","","","html-button-response","181","477238","0.0-181.0","611","","<div class=""stimulus-container""><img src=""images/schematic_sequence/restaurant_scheme/restaurant_scheme_5.png"" class=""exp-image""><div class=""question-area""><b>Is there a person?</b></div></div>","0","person_check","restaurant_scheme","5","","","","","","","","",""
"","","","","","html-keyboard-response","182","481239","0.0-182.0","null","","<div class=""stimulus-container""><img src=""images/schematic_sequence/restaurant_scheme/restaurant_scheme_6.png"" class=""exp-image""></div>","null","","","","","","","","","","","",""
"","","","","","html-button-response","183","483261","0.0-183.0","2021","","<div class=""stimulus-container""><img src=""images/schematic_sequence/restaurant_scheme/restaurant_scheme_6.png"" class=""exp-image""><div class=""question-area""><b>Is there a person?</b></div></div>","1","person_check","restaurant_scheme","6","","","","","","","","",""
"","","","","","html-keyboard-response","184","487263","0.0-184.0","null","","<div class=""stimulus-container""><img src=""images/schematic_sequence/restaurant_scheme/restaurant_scheme_7.png"" class=""exp-image""></div>","null","","","","","","","","","","","",""
"","","","","","html-button-response","185","488899","0.0-185.0","1636","","<div class=""stimulus-container""><img src=""images/schematic_sequence/restaurant_scheme/restaurant_scheme_7.png"" class=""exp-image""><div class=""question-area""><b>Is there a person?</b></div></div>","1","person_check","restaurant_scheme","7","","","","","","","","",""
"","","","","","html-keyboard-response","186","492901","0.0-186.0","null","","<div class=""stimulus-container""><img src=""images/schematic_sequence/restaurant_scheme/restaurant_scheme_8.png"" class=""exp-image""></div>","null","","","","","","","","","","","",""
"","","","","","html-button-response","187","496484","0.0-187.0","3583","","<div class=""stimulus-container""><img src=""images/schematic_sequence/restaurant_scheme/restaurant_scheme_8.png"" class=""exp-image""><div class=""question-area""><b>Is there a person?</b></div></div>","1","person_check","restaurant_scheme","8","","","","","","","","",""
"","","","","","html-keyboard-response","188","500486","0.0-188.0","null","","<div class=""stimulus-container""><img src=""images/schematic_sequence/restaurant_scheme/restaurant_scheme_9.png"" class=""exp-image""></div>","null","","","","","","","","","","","",""
"","","","","","html-button-response","189","502011","0.0-189.0","1524","","<div class=""stimulus-container""><img src=""images/schematic_sequence/restaurant_scheme/restaurant_scheme_9.png"" class=""exp-image""><div class=""question-area""><b>Is there a person?</b></div></div>","0","person_check","restaurant_scheme","9","","","","","","","","",""
"","","","","","html-keyboard-response","190","506012","0.0-190.0","null","","<div class=""stimulus-container""><img src=""images/schematic_sequence/restaurant_scheme/restaurant_scheme_ten.png"" class=""exp-image""></div>","null","","","","","","","","","","","",""
"","","","","","html-button-response","191","506444","0.0-191.0","431","","<div class=""stimulus-container""><img src=""images/schematic_sequence/restaurant_scheme/restaurant_scheme_ten.png"" class=""exp-image""><div class=""question-area""><b>Is there a person?</b></div></div>","0","person_check","restaurant_scheme","10","","","","","","","","",""
"","","","","","html-keyboard-response","192","509446","0.0-192.0","null","","<div style=""background-color: white; width: 100vw; height: 100vh;""></div>","null","","","","","","","","","","","",""
"","","","","","html-keyboard-response","193","513447","0.0-193.0","null","","<div class=""stimulus-container""><img src=""images/semantic_sequence/self_care_activities_semantic/self_care_activities_semantic_1.png"" class=""exp-image""></div>","null","","","","","","","","","","","",""
"","","","","","html-button-response","194","513921","0.0-194.0","473","","<div class=""stimulus-container""><img src=""images/semantic_sequence/self_care_activities_semantic/self_care_activities_semantic_1.png"" class=""exp-image""><div class=""question-area""><b>Is there a person?</b></div></div>","0","person_check","self_care_activities_semantic","1","","","","","","","","",""
"","","","","","html-keyboard-response","195","517922","0.0-195.0","null","","<div class=""stimulus-container""><img src=""images/semantic_sequence/self_care_activities_semantic/self_care_activities_semantic_2.png"" class=""exp-image""></div>","null","","","","","","","","","","","",""
"","","","","","html-button-response","196","519127","0.0-196.0","1204","","<div class=""stimulus-container""><img src=""images/semantic_sequence/self_care_activities_semantic/self_care_activities_semantic_2.png"" class=""exp-image""><div class=""question-area""><b>Is there a person?</b></div></div>","0","person_check","self_care_activities_semantic","2","","","","","","","","",""
"","","","","","html-keyboard-response","197","523129","0.0-197.0","null","","<div class=""stimulus-container""><img src=""images/semantic_sequence/self_care_activities_semantic/self_care_activities_semantic_3.png"" class=""exp-image""></div>","null","","","","","","","","","","","",""
"","","","","","html-button-response","198","523836","0.0-198.0","707","","<div class=""stimulus-container""><img src=""images/semantic_sequence/self_care_activities_semantic/self_care_activities_semantic_3.png"" class=""exp-image""><div class=""question-area""><b>Is there a person?</b></div></div>","0","person_check","self_care_activities_semantic","3","","","","","","","","",""
"","","","","","html-keyboard-response","199","527838","0.0-199.0","null","","<div class=""stimulus-container""><img src=""images/semantic_sequence/self_care_activities_semantic/self_care_activities_semantic_4.png"" class=""exp-image""></div>","null","","","","","","","","","","","",""
"","","","","","html-button-response","200","528779","0.0-200.0","940","","<div class=""stimulus-container""><img src=""images/semantic_sequence/self_care_activities_semantic/self_care_activities_semantic_4.png"" class=""exp-image""><div class=""question-area""><b>Is there a person?</b></div></div>","0","person_check","self_care_activities_semantic","4","","","","","","","","",""
"","","","","","html-keyboard-response","201","532780","0.0-201.0","null","","<div class=""stimulus-container""><img src=""images/semantic_sequence/self_care_activities_semantic/self_care_activities_semantic_5.png"" class=""exp-image""></div>","null","","","","","","","","","","","",""
"","","","","","html-button-response","202","533309","0.0-202.0","528","","<div class=""stimulus-container""><img src=""images/semantic_sequence/self_care_activities_semantic/self_care_activities_semantic_5.png"" class=""exp-image""><div class=""question-area""><b>Is there a person?</b></div></div>","0","person_check","self_care_activities_semantic","5","","","","","","","","",""
"","","","","","html-keyboard-response","203","537310","0.0-203.0","null","","<div class=""stimulus-container""><img src=""images/semantic_sequence/self_care_activities_semantic/self_care_activities_semantic_6.png"" class=""exp-image""></div>","null","","","","","","","","","","","",""
"","","","","","html-button-response","204","538394","0.0-204.0","1083","","<div class=""stimulus-container""><img src=""images/semantic_sequence/self_care_activities_semantic/self_care_activities_semantic_6.png"" class=""exp-image""><div class=""question-area""><b>Is there a person?</b></div></div>","1","person_check","self_care_activities_semantic","6","","","","","","","","",""
"","","","","","html-keyboard-response","205","542396","0.0-205.0","null","","<div class=""stimulus-container""><img src=""images/semantic_sequence/self_care_activities_semantic/self_care_activities_semantic_7.png"" class=""exp-image""></div>","null","","","","","","","","","","","",""
"","","","","","html-button-response","206","542834","0.0-206.0","437","","<div class=""stimulus-container""><img src=""images/semantic_sequence/self_care_activities_semantic/self_care_activities_semantic_7.png"" class=""exp-image""><div class=""question-area""><b>Is there a person?</b></div></div>","0","person_check","self_care_activities_semantic","7","","","","","","","","",""
"","","","","","html-keyboard-response","207","546836","0.0-207.0","null","","<div class=""stimulus-container""><img src=""images/semantic_sequence/self_care_activities_semantic/self_care_activities_semantic_8.png"" class=""exp-image""></div>","null","","","","","","","","","","","",""
"","","","","","html-button-response","208","548460","0.0-208.0","1623","","<div class=""stimulus-container""><img src=""images/semantic_sequence/self_care_activities_semantic/self_care_activities_semantic_8.png"" class=""exp-image""><div class=""question-area""><b>Is there a person?</b></div></div>","0","person_check","self_care_activities_semantic","8","","","","","","","","",""
"","","","","","html-keyboard-response","209","552461","0.0-209.0","null","","<div class=""stimulus-container""><img src=""images/semantic_sequence/self_care_activities_semantic/self_care_activities_semantic_9.png"" class=""exp-image""></div>","null","","","","","","","","","","","",""
"","","","","","html-button-response","210","554692","0.0-210.0","2230","","<div class=""stimulus-container""><img src=""images/semantic_sequence/self_care_activities_semantic/self_care_activities_semantic_9.png"" class=""exp-image""><div class=""question-area""><b>Is there a person?</b></div></div>","0","person_check","self_care_activities_semantic","9","","","","","","","","",""
"","","","","","html-keyboard-response","211","558694","0.0-211.0","null","","<div class=""stimulus-container""><img src=""images/semantic_sequence/self_care_activities_semantic/self_care_activities_semantic_ten.png"" class=""exp-image""></div>","null","","","","","","","","","","","",""
"","","","","","html-button-response","212","559441","0.0-212.0","747","","<div class=""stimulus-container""><img src=""images/semantic_sequence/self_care_activities_semantic/self_care_activities_semantic_ten.png"" class=""exp-image""><div class=""question-area""><b>Is there a person?</b></div></div>","0","person_check","self_care_activities_semantic","10","","","","","","","","",""
"","","","","","html-keyboard-response","213","562442","0.0-213.0","null","","<div style=""background-color: white; width: 100vw; height: 100vh;""></div>","null","","","","","","","","","","","",""
"","","","","","html-keyboard-response","214","566444","0.0-214.0","null","","<div class=""stimulus-container""><img src=""images/causal_sequence/package_causal/package_causal_1.png"" class=""exp-image""></div>","null","","","","","","","","","","","",""
"","","","","","html-button-response","215","567341","0.0-215.0","897","","<div class=""stimulus-container""><img src=""images/causal_sequence/package_causal/package_causal_1.png"" class=""exp-image""><div class=""question-area""><b>Is there a person?</b></div></div>","0","person_check","package_causal","1","","","","","","","","",""
"","","","","","html-keyboard-response","216","571343","0.0-216.0","null","","<div class=""stimulus-container""><img src=""images/causal_sequence/package_causal/package_causal_2.png"" class=""exp-image""></div>","null","","","","","","","","","","","",""
"","","","","","html-button-response","217","572002","0.0-217.0","658","","<div class=""stimulus-container""><img src=""images/causal_sequence/package_causal/package_causal_2.png"" class=""exp-image""><div class=""question-area""><b>Is there a person?</b></div></div>","0","person_check","package_causal","2","","","","","","","","",""
"","","","","","html-keyboard-response","218","576004","0.0-218.0","null","","<div class=""stimulus-container""><img src=""images/causal_sequence/package_causal/package_causal_3.png"" class=""exp-image""></div>","null","","","","","","","","","","","",""
"","","","","","html-button-response","219","576509","0.0-219.0","505","","<div class=""stimulus-container""><img src=""images/causal_sequence/package_causal/package_causal_3.png"" class=""exp-image""><div class=""question-area""><b>Is there a person?</b></div></div>","0","person_check","package_causal","3","","","","","","","","",""
"","","","","","html-keyboard-response","220","580511","0.0-220.0","null","","<div class=""stimulus-container""><img src=""images/causal_sequence/package_causal/package_causal_4.png"" class=""exp-image""></div>","null","","","","","","","","","","","",""
"","","","","","html-button-response","221","581867","0.0-221.0","1355","","<div class=""stimulus-container""><img src=""images/causal_sequence/package_causal/package_causal_4.png"" class=""exp-image""><div class=""question-area""><b>Is there a person?</b></div></div>","1","person_check","package_causal","4","","","","","","","","",""
"","","","","","html-keyboard-response","222","585868","0.0-222.0","null","","<div class=""stimulus-container""><img src=""images/causal_sequence/package_causal/package_causal_5.png"" class=""exp-image""></div>","null","","","","","","","","","","","",""
"","","","","","html-button-response","223","586846","0.0-223.0","977","","<div class=""stimulus-container""><img src=""images/causal_sequence/package_causal/package_causal_5.png"" class=""exp-image""><div class=""question-area""><b>Is there a person?</b></div></div>","0","person_check","package_causal","5","","","","","","","","",""
"","","","","","html-keyboard-response","224","590848","0.0-224.0","null","","<div class=""stimulus-container""><img src=""images/causal_sequence/package_causal/package_causal_6.png"" class=""exp-image""></div>","null","","","","","","","","","","","",""
"","","","","","html-button-response","225","591428","0.0-225.0","580","","<div class=""stimulus-container""><img src=""images/causal_sequence/package_causal/package_causal_6.png"" class=""exp-image""><div class=""question-area""><b>Is there a person?</b></div></div>","0","person_check","package_causal","6","","","","","","","","",""
"","","","","","html-keyboard-response","226","595430","0.0-226.0","null","","<div class=""stimulus-container""><img src=""images/causal_sequence/package_causal/package_causal_7.png"" class=""exp-image""></div>","null","","","","","","","","","","","",""
"","","","","","html-button-response","227","596476","0.0-227.0","1045","","<div class=""stimulus-container""><img src=""images/causal_sequence/package_causal/package_causal_7.png"" class=""exp-image""><div class=""question-area""><b>Is there a person?</b></div></div>","0","person_check","package_causal","7","","","","","","","","",""
"","","","","","html-keyboard-response","228","600478","0.0-228.0","null","","<div class=""stimulus-container""><img src=""images/causal_sequence/package_causal/package_causal_8.png"" class=""exp-image""></div>","null","","","","","","","","","","","",""
"","","","","","html-button-response","229","601074","0.0-229.0","595","","<div class=""stimulus-container""><img src=""images/causal_sequence/package_causal/package_causal_8.png"" class=""exp-image""><div class=""question-area""><b>Is there a person?</b></div></div>","0","person_check","package_causal","8","","","","","","","","",""
"","","","","","html-keyboard-response","230","605076","0.0-230.0","null","","<div class=""stimulus-container""><img src=""images/causal_sequence/package_causal/package_causal_9.png"" class=""exp-image""></div>","null","","","","","","","","","","","",""
"","","","","","html-button-response","231","605626","0.0-231.0","550","","<div class=""stimulus-container""><img src=""images/causal_sequence/package_causal/package_causal_9.png"" class=""exp-image""><div class=""question-area""><b>Is there a person?</b></div></div>","0","person_check","package_causal","9","","","","","","","","",""
"","","","","","html-keyboard-response","232","609628","0.0-232.0","null","","<div class=""stimulus-container""><img src=""images/causal_sequence/package_causal/package_causal_ten.png"" class=""exp-image""></div>","null","","","","","","","","","","","",""
"","","","","","html-button-response","233","610366","0.0-233.0","738","","<div class=""stimulus-container""><img src=""images/causal_sequence/package_causal/package_causal_ten.png"" class=""exp-image""><div class=""question-area""><b>Is there a person?</b></div></div>","0","person_check","package_causal","10","","","","","","","","",""
"","","","","","html-keyboard-response","234","613368","0.0-234.0","null","","<div style=""background-color: white; width: 100vw; height: 100vh;""></div>","null","","","","","","","","","","","",""
"","","","","","html-keyboard-response","235","617369","0.0-235.0","null","","<div class=""stimulus-container""><img src=""images/schematic_sequence/hotel_scheme/hotel_scheme_1.png"" class=""exp-image""></div>","null","","","","","","","","","","","",""
"","","","","","html-button-response","236","617978","0.0-236.0","608","","<div class=""stimulus-container""><img src=""images/schematic_sequence/hotel_scheme/hotel_scheme_1.png"" class=""exp-image""><div class=""question-area""><b>Is there a person?</b></div></div>","1","person_check","hotel_scheme","1","","","","","","","","",""
"","","","","","html-keyboard-response","237","621980","0.0-237.0","null","","<div class=""stimulus-container""><img src=""images/schematic_sequence/hotel_scheme/hotel_scheme_2.png"" class=""exp-image""></div>","null","","","","","","","","","","","",""
"","","","","","html-button-response","238","622508","0.0-238.0","528","","<div class=""stimulus-container""><img src=""images/schematic_sequence/hotel_scheme/hotel_scheme_2.png"" class=""exp-image""><div class=""question-area""><b>Is there a person?</b></div></div>","0","person_check","hotel_scheme","2","","","","","","","","",""
"","","","","","html-keyboard-response","239","626509","0.0-239.0","null","","<div class=""stimulus-container""><img src=""images/schematic_sequence/hotel_scheme/hotel_scheme_3.png"" class=""exp-image""></div>","null","","","","","","","","","","","",""
"","","","","","html-button-response","240","627137","0.0-240.0","627","","<div class=""stimulus-container""><img src=""images/schematic_sequence/hotel_scheme/hotel_scheme_3.png"" class=""exp-image""><div class=""question-area""><b>Is there a person?</b></div></div>","0","person_check","hotel_scheme","3","","","","","","","","",""
"","","","","","html-keyboard-response","241","631139","0.0-241.0","null","","<div class=""stimulus-container""><img src=""images/schematic_sequence/hotel_scheme/hotel_scheme_4.png"" class=""exp-image""></div>","null","","","","","","","","","","","",""
"","","","","","html-button-response","242","631765","0.0-242.0","625","","<div class=""stimulus-container""><img src=""images/schematic_sequence/hotel_scheme/hotel_scheme_4.png"" class=""exp-image""><div class=""question-area""><b>Is there a person?</b></div></div>","1","person_check","hotel_scheme","4","","","","","","","","",""
"","","","","","html-keyboard-response","243","635767","0.0-243.0","null","","<div class=""stimulus-container""><img src=""images/schematic_sequence/hotel_scheme/hotel_scheme_5.png"" class=""exp-image""></div>","null","","","","","","","","","","","",""
"","","","","","html-button-response","244","636279","0.0-244.0","511","","<div class=""stimulus-container""><img src=""images/schematic_sequence/hotel_scheme/hotel_scheme_5.png"" class=""exp-image""><div class=""question-area""><b>Is there a person?</b></div></div>","0","person_check","hotel_scheme","5","","","","","","","","",""
"","","","","","html-keyboard-response","245","640281","0.0-245.0","null","","<div class=""stimulus-container""><img src=""images/schematic_sequence/hotel_scheme/hotel_scheme_6.png"" class=""exp-image""></div>","null","","","","","","","","","","","",""
"","","","","","html-button-response","246","640817","0.0-246.0","536","","<div class=""stimulus-container""><img src=""images/schematic_sequence/hotel_scheme/hotel_scheme_6.png"" class=""exp-image""><div class=""question-area""><b>Is there a person?</b></div></div>","0","person_check","hotel_scheme","6","","","","","","","","",""
"","","","","","html-keyboard-response","247","644818","0.0-247.0","null","","<div class=""stimulus-container""><img src=""images/schematic_sequence/hotel_scheme/hotel_scheme_7.png"" class=""exp-image""></div>","null","","","","","","","","","","","",""
"","","","","","html-button-response","248","645280","0.0-248.0","461","","<div class=""stimulus-container""><img src=""images/schematic_sequence/hotel_scheme/hotel_scheme_7.png"" class=""exp-image""><div class=""question-area""><b>Is there a person?</b></div></div>","0","person_check","hotel_scheme","7","","","","","","","","",""
"","","","","","html-keyboard-response","249","649282","0.0-249.0","null","","<div class=""stimulus-container""><img src=""images/schematic_sequence/hotel_scheme/hotel_scheme_8.png"" class=""exp-image""></div>","null","","","","","","","","","","","",""
"","","","","","html-button-response","250","649697","0.0-250.0","415","","<div class=""stimulus-container""><img src=""images/schematic_sequence/hotel_scheme/hotel_scheme_8.png"" class=""exp-image""><div class=""question-area""><b>Is there a person?</b></div></div>","0","person_check","hotel_scheme","8","","","","","","","","",""
"","","","","","html-keyboard-response","251","653699","0.0-251.0","null","","<div class=""stimulus-container""><img src=""images/schematic_sequence/hotel_scheme/hotel_scheme_9.png"" class=""exp-image""></div>","null","","","","","","","","","","","",""
"","","","","","html-button-response","252","654087","0.0-252.0","387","","<div class=""stimulus-container""><img src=""images/schematic_sequence/hotel_scheme/hotel_scheme_9.png"" class=""exp-image""><div class=""question-area""><b>Is there a person?</b></div></div>","0","person_check","hotel_scheme","9","","","","","","","","",""
"","","","","","html-keyboard-response","253","658088","0.0-253.0","null","","<div class=""stimulus-container""><img src=""images/schematic_sequence/hotel_scheme/hotel_scheme_ten.png"" class=""exp-image""></div>","null","","","","","","","","","","","",""
"","","","","","html-button-response","254","658525","0.0-254.0","436","","<div class=""stimulus-container""><img src=""images/schematic_sequence/hotel_scheme/hotel_scheme_ten.png"" class=""exp-image""><div class=""question-area""><b>Is there a person?</b></div></div>","0","person_check","hotel_scheme","10","","","","","","","","",""
"","","","","","html-keyboard-response","255","661527","0.0-255.0","null","","<div style=""background-color: white; width: 100vw; height: 100vh;""></div>","null","","","","","","","","","","","",""
"","","","","","html-keyboard-response","256","665529","0.0-256.0","null","","<div class=""stimulus-container""><img src=""images/causal_sequence/coin_causal/coin_causal_1.png"" class=""exp-image""></div>","null","","","","","","","","","","","",""
"","","","","","html-button-response","257","665937","0.0-257.0","407","","<div class=""stimulus-container""><img src=""images/causal_sequence/coin_causal/coin_causal_1.png"" class=""exp-image""><div class=""question-area""><b>Is there a person?</b></div></div>","0","person_check","coin_causal","1","","","","","","","","",""
"","","","","","html-keyboard-response","258","669939","0.0-258.0","null","","<div class=""stimulus-container""><img src=""images/causal_sequence/coin_causal/coin_causal_2.png"" class=""exp-image""></div>","null","","","","","","","","","","","",""
"","","","","","html-button-response","259","670474","0.0-259.0","535","","<div class=""stimulus-container""><img src=""images/causal_sequence/coin_causal/coin_causal_2.png"" class=""exp-image""><div class=""question-area""><b>Is there a person?</b></div></div>","0","person_check","coin_causal","2","","","","","","","","",""
"","","","","","html-keyboard-response","260","674475","0.0-260.0","null","","<div class=""stimulus-container""><img src=""images/causal_sequence/coin_causal/coin_causal_3.png"" class=""exp-image""></div>","null","","","","","","","","","","","",""
"","","","","","html-button-response","261","675251","0.0-261.0","774","","<div class=""stimulus-container""><img src=""images/causal_sequence/coin_causal/coin_causal_3.png"" class=""exp-image""><div class=""question-area""><b>Is there a person?</b></div></div>","0","person_check","coin_causal","3","","","","","","","","",""
"","","","","","html-keyboard-response","262","679252","0.0-262.0","null","","<div class=""stimulus-container""><img src=""images/causal_sequence/coin_causal/coin_causal_4.png"" class=""exp-image""></div>","null","","","","","","","","","","","",""
"","","","","","html-button-response","263","679668","0.0-263.0","416","","<div class=""stimulus-container""><img src=""images/causal_sequence/coin_causal/coin_causal_4.png"" class=""exp-image""><div class=""question-area""><b>Is there a person?</b></div></div>","0","person_check","coin_causal","4","","","","","","","","",""
"","","","","","html-keyboard-response","264","683670","0.0-264.0","null","","<div class=""stimulus-container""><img src=""images/causal_sequence/coin_causal/coin_causal_5.png"" class=""exp-image""></div>","null","","","","","","","","","","","",""
"","","","","","html-button-response","265","684079","0.0-265.0","408","","<div class=""stimulus-container""><img src=""images/causal_sequence/coin_causal/coin_causal_5.png"" class=""exp-image""><div class=""question-area""><b>Is there a person?</b></div></div>","0","person_check","coin_causal","5","","","","","","","","",""
"","","","","","html-keyboard-response","266","688081","0.0-266.0","null","","<div class=""stimulus-container""><img src=""images/causal_sequence/coin_causal/coin_causal_6.png"" class=""exp-image""></div>","null","","","","","","","","","","","",""
"","","","","","html-button-response","267","688586","0.0-267.0","505","","<div class=""stimulus-container""><img src=""images/causal_sequence/coin_causal/coin_causal_6.png"" class=""exp-image""><div class=""question-area""><b>Is there a person?</b></div></div>","0","person_check","coin_causal","6","","","","","","","","",""
"","","","","","html-keyboard-response","268","692587","0.0-268.0","null","","<div class=""stimulus-container""><img src=""images/causal_sequence/coin_causal/coin_causal_7.png"" class=""exp-image""></div>","null","","","","","","","","","","","",""
"","","","","","html-button-response","269","693371","0.0-269.0","783","","<div class=""stimulus-container""><img src=""images/causal_sequence/coin_causal/coin_causal_7.png"" class=""exp-image""><div class=""question-area""><b>Is there a person?</b></div></div>","1","person_check","coin_causal","7","","","","","","","","",""
"","","","","","html-keyboard-response","270","697373","0.0-270.0","null","","<div class=""stimulus-container""><img src=""images/causal_sequence/coin_causal/coin_causal_8.png"" class=""exp-image""></div>","null","","","","","","","","","","","",""
"","","","","","html-button-response","271","698420","0.0-271.0","1047","","<div class=""stimulus-container""><img src=""images/causal_sequence/coin_causal/coin_causal_8.png"" class=""exp-image""><div class=""question-area""><b>Is there a person?</b></div></div>","0","person_check","coin_causal","8","","","","","","","","",""
"","","","","","html-keyboard-response","272","702422","0.0-272.0","null","","<div class=""stimulus-container""><img src=""images/causal_sequence/coin_causal/coin_causal_9.png"" class=""exp-image""></div>","null","","","","","","","","","","","",""
"","","","","","html-button-response","273","703368","0.0-273.0","946","","<div class=""stimulus-container""><img src=""images/causal_sequence/coin_causal/coin_causal_9.png"" class=""exp-image""><div class=""question-area""><b>Is there a person?</b></div></div>","0","person_check","coin_causal","9","","","","","","","","",""
"","","","","","html-keyboard-response","274","707369","0.0-274.0","null","","<div class=""stimulus-container""><img src=""images/causal_sequence/coin_causal/coin_causal_ten.png"" class=""exp-image""></div>","null","","","","","","","","","","","",""
"","","","","","html-button-response","275","707787","0.0-275.0","417","","<div class=""stimulus-container""><img src=""images/causal_sequence/coin_causal/coin_causal_ten.png"" class=""exp-image""><div class=""question-area""><b>Is there a person?</b></div></div>","0","person_check","coin_causal","10","","","","","","","","",""
"","","","","","html-keyboard-response","276","710789","0.0-276.0","null","","<div style=""background-color: white; width: 100vw; height: 100vh;""></div>","null","","","","","","","","","","","",""
"","","","","","html-keyboard-response","277","714791","0.0-277.0","null","","<div class=""stimulus-container""><img src=""images/schematic_sequence/supermarket_scheme/supermarket_scheme_1.png"" class=""exp-image""></div>","null","","","","","","","","","","","",""
"","","","","","html-button-response","278","715295","0.0-278.0","504","","<div class=""stimulus-container""><img src=""images/schematic_sequence/supermarket_scheme/supermarket_scheme_1.png"" class=""exp-image""><div class=""question-area""><b>Is there a person?</b></div></div>","1","person_check","supermarket_scheme","1","","","","","","","","",""
"","","","","","html-keyboard-response","279","719296","0.0-279.0","null","","<div class=""stimulus-container""><img src=""images/schematic_sequence/supermarket_scheme/supermarket_scheme_2.png"" class=""exp-image""></div>","null","","","","","","","","","","","",""
"","","","","","html-button-response","280","719928","0.0-280.0","631","","<div class=""stimulus-container""><img src=""images/schematic_sequence/supermarket_scheme/supermarket_scheme_2.png"" class=""exp-image""><div class=""question-area""><b>Is there a person?</b></div></div>","1","person_check","supermarket_scheme","2","","","","","","","","",""
"","","","","","html-keyboard-response","281","723930","0.0-281.0","null","","<div class=""stimulus-container""><img src=""images/schematic_sequence/supermarket_scheme/supermarket_scheme_3.png"" class=""exp-image""></div>","null","","","","","","","","","","","",""
"","","","","","html-button-response","282","724678","0.0-282.0","747","","<div class=""stimulus-container""><img src=""images/schematic_sequence/supermarket_scheme/supermarket_scheme_3.png"" class=""exp-image""><div class=""question-area""><b>Is there a person?</b></div></div>","1","person_check","supermarket_scheme","3","","","","","","","","",""
"","","","","","html-keyboard-response","283","728680","0.0-283.0","null","","<div class=""stimulus-container""><img src=""images/schematic_sequence/supermarket_scheme/supermarket_scheme_4.png"" class=""exp-image""></div>","null","","","","","","","","","","","",""
"","","","","","html-button-response","284","729109","0.0-284.0","429","","<div class=""stimulus-container""><img src=""images/schematic_sequence/supermarket_scheme/supermarket_scheme_4.png"" class=""exp-image""><div class=""question-area""><b>Is there a person?</b></div></div>","0","person_check","supermarket_scheme","4","","","","","","","","",""
"","","","","","html-keyboard-response","285","733110","0.0-285.0","null","","<div class=""stimulus-container""><img src=""images/schematic_sequence/supermarket_scheme/supermarket_scheme_5.png"" class=""exp-image""></div>","null","","","","","","","","","","","",""
"","","","","","html-button-response","286","733579","0.0-286.0","468","","<div class=""stimulus-container""><img src=""images/schematic_sequence/supermarket_scheme/supermarket_scheme_5.png"" class=""exp-image""><div class=""question-area""><b>Is there a person?</b></div></div>","1","person_check","supermarket_scheme","5","","","","","","","","",""
"","","","","","html-keyboard-response","287","737581","0.0-287.0","null","","<div class=""stimulus-container""><img src=""images/schematic_sequence/supermarket_scheme/supermarket_scheme_6.png"" class=""exp-image""></div>","null","","","","","","","","","","","",""
"","","","","","html-button-response","288","738304","0.0-288.0","722","","<div class=""stimulus-container""><img src=""images/schematic_sequence/supermarket_scheme/supermarket_scheme_6.png"" class=""exp-image""><div class=""question-area""><b>Is there a person?</b></div></div>","0","person_check","supermarket_scheme","6","","","","","","","","",""
"","","","","","html-keyboard-response","289","742305","0.0-289.0","null","","<div class=""stimulus-container""><img src=""images/schematic_sequence/supermarket_scheme/supermarket_scheme_7.png"" class=""exp-image""></div>","null","","","","","","","","","","","",""
"","","","","","html-button-response","290","743434","0.0-290.0","1129","","<div class=""stimulus-container""><img src=""images/schematic_sequence/supermarket_scheme/supermarket_scheme_7.png"" class=""exp-image""><div class=""question-area""><b>Is there a person?</b></div></div>","0","person_check","supermarket_scheme","7","","","","","","","","",""
"","","","","","html-keyboard-response","291","747435","0.0-291.0","null","","<div class=""stimulus-container""><img src=""images/schematic_sequence/supermarket_scheme/supermarket_scheme_8.png"" class=""exp-image""></div>","null","","","","","","","","","","","",""
"","","","","","html-button-response","292","748149","0.0-292.0","713","","<div class=""stimulus-container""><img src=""images/schematic_sequence/supermarket_scheme/supermarket_scheme_8.png"" class=""exp-image""><div class=""question-area""><b>Is there a person?</b></div></div>","0","person_check","supermarket_scheme","8","","","","","","","","",""
"","","","","","html-keyboard-response","293","752150","0.0-293.0","null","","<div class=""stimulus-container""><img src=""images/schematic_sequence/supermarket_scheme/supermarket_scheme_9.png"" class=""exp-image""></div>","null","","","","","","","","","","","",""
"","","","","","html-button-response","294","752525","0.0-294.0","375","","<div class=""stimulus-container""><img src=""images/schematic_sequence/supermarket_scheme/supermarket_scheme_9.png"" class=""exp-image""><div class=""question-area""><b>Is there a person?</b></div></div>","0","person_check","supermarket_scheme","9","","","","","","","","",""
"","","","","","html-keyboard-response","295","756527","0.0-295.0","null","","<div class=""stimulus-container""><img src=""images/schematic_sequence/supermarket_scheme/supermarket_scheme_ten.png"" class=""exp-image""></div>","null","","","","","","","","","","","",""
"","","","","","html-button-response","296","756964","0.0-296.0","437","","<div class=""stimulus-container""><img src=""images/schematic_sequence/supermarket_scheme/supermarket_scheme_ten.png"" class=""exp-image""><div class=""question-area""><b>Is there a person?</b></div></div>","1","person_check","supermarket_scheme","10","","","","","","","","",""
"","","","","","html-keyboard-response","297","759965","0.0-297.0","null","","<div style=""background-color: white; width: 100vw; height: 100vh;""></div>","null","","","","","","","","","","","",""
"","","","","","html-keyboard-response","298","763967","0.0-298.0","null","","<div class=""stimulus-container""><img src=""images/schematic_sequence/interview_scheme/interview_scheme_1.png"" class=""exp-image""></div>","null","","","","","","","","","","","",""
"","","","","","html-button-response","299","764345","0.0-299.0","378","","<div class=""stimulus-container""><img src=""images/schematic_sequence/interview_scheme/interview_scheme_1.png"" class=""exp-image""><div class=""question-area""><b>Is there a person?</b></div></div>","1","person_check","interview_scheme","1","","","","","","","","",""
"","","","","","html-keyboard-response","300","768348","0.0-300.0","null","","<div class=""stimulus-container""><img src=""images/schematic_sequence/interview_scheme/interview_scheme_2.png"" class=""exp-image""></div>","null","","","","","","","","","","","",""
"","","","","","html-button-response","301","768740","0.0-301.0","391","","<div class=""stimulus-container""><img src=""images/schematic_sequence/interview_scheme/interview_scheme_2.png"" class=""exp-image""><div class=""question-area""><b>Is there a person?</b></div></div>","1","person_check","interview_scheme","2","","","","","","","","",""
"","","","","","html-keyboard-response","302","772742","0.0-302.0","null","","<div class=""stimulus-container""><img src=""images/schematic_sequence/interview_scheme/interview_scheme_3.png"" class=""exp-image""></div>","null","","","","","","","","","","","",""
"","","","","","html-button-response","303","773370","0.0-303.0","627","","<div class=""stimulus-container""><img src=""images/schematic_sequence/interview_scheme/interview_scheme_3.png"" class=""exp-image""><div class=""question-area""><b>Is there a person?</b></div></div>","1","person_check","interview_scheme","3","","","","","","","","",""
"","","","","","html-keyboard-response","304","777372","0.0-304.0","null","","<div class=""stimulus-container""><img src=""images/schematic_sequence/interview_scheme/interview_scheme_4.png"" class=""exp-image""></div>","null","","","","","","","","","","","",""
"","","","","","html-button-response","305","777628","0.0-305.0","256","","<div class=""stimulus-container""><img src=""images/schematic_sequence/interview_scheme/interview_scheme_4.png"" class=""exp-image""><div class=""question-area""><b>Is there a person?</b></div></div>","1","person_check","interview_scheme","4","","","","","","","","",""
"","","","","","html-keyboard-response","306","781631","0.0-306.0","null","","<div class=""stimulus-container""><img src=""images/schematic_sequence/interview_scheme/interview_scheme_5.png"" class=""exp-image""></div>","null","","","","","","","","","","","",""
"","","","","","html-button-response","307","782078","0.0-307.0","447","","<div class=""stimulus-container""><img src=""images/schematic_sequence/interview_scheme/interview_scheme_5.png"" class=""exp-image""><div class=""question-area""><b>Is there a person?</b></div></div>","0","person_check","interview_scheme","5","","","","","","","","",""
"","","","","","html-keyboard-response","308","786080","0.0-308.0","null","","<div class=""stimulus-container""><img src=""images/schematic_sequence/interview_scheme/interview_scheme_6.png"" class=""exp-image""></div>","null","","","","","","","","","","","",""
"","","","","","html-button-response","309","786478","0.0-309.0","398","","<div class=""stimulus-container""><img src=""images/schematic_sequence/interview_scheme/interview_scheme_6.png"" class=""exp-image""><div class=""question-area""><b>Is there a person?</b></div></div>","0","person_check","interview_scheme","6","","","","","","","","",""
"","","","","","html-keyboard-response","310","790480","0.0-310.0","null","","<div class=""stimulus-container""><img src=""images/schematic_sequence/interview_scheme/interview_scheme_7.png"" class=""exp-image""></div>","null","","","","","","","","","","","",""
"","","","","","html-button-response","311","790934","0.0-311.0","453","","<div class=""stimulus-container""><img src=""images/schematic_sequence/interview_scheme/interview_scheme_7.png"" class=""exp-image""><div class=""question-area""><b>Is there a person?</b></div></div>","0","person_check","interview_scheme","7","","","","","","","","",""
"","","","","","html-keyboard-response","312","794935","0.0-312.0","null","","<div class=""stimulus-container""><img src=""images/schematic_sequence/interview_scheme/interview_scheme_8.png"" class=""exp-image""></div>","null","","","","","","","","","","","",""
"","","","","","html-button-response","313","795531","0.0-313.0","594","","<div class=""stimulus-container""><img src=""images/schematic_sequence/interview_scheme/interview_scheme_8.png"" class=""exp-image""><div class=""question-area""><b>Is there a person?</b></div></div>","0","person_check","interview_scheme","8","","","","","","","","",""
"","","","","","html-keyboard-response","314","799532","0.0-314.0","null","","<div class=""stimulus-container""><img src=""images/schematic_sequence/interview_scheme/interview_scheme_9.png"" class=""exp-image""></div>","null","","","","","","","","","","","",""
"","","","","","html-button-response","315","800009","0.0-315.0","477","","<div class=""stimulus-container""><img src=""images/schematic_sequence/interview_scheme/interview_scheme_9.png"" class=""exp-image""><div class=""question-area""><b>Is there a person?</b></div></div>","0","person_check","interview_scheme","9","","","","","","","","",""
"","","","","","html-keyboard-response","316","804011","0.0-316.0","null","","<div class=""stimulus-container""><img src=""images/schematic_sequence/interview_scheme/interview_scheme_ten.png"" class=""exp-image""></div>","null","","","","","","","","","","","",""
"","","","","","html-button-response","317","804464","0.0-317.0","452","","<div class=""stimulus-container""><img src=""images/schematic_sequence/interview_scheme/interview_scheme_ten.png"" class=""exp-image""><div class=""question-area""><b>Is there a person?</b></div></div>","0","person_check","interview_scheme","10","","","","","","","","",""
"","","","","","html-keyboard-response","318","807466","0.0-318.0","null","","<div style=""background-color: white; width: 100vw; height: 100vh;""></div>","null","","","","","","","","","","","",""
"","","","","","html-keyboard-response","319","811468","0.0-319.0","null","","<div class=""stimulus-container""><img src=""images/schematic_sequence/flight_scheme/flight_scheme_1.png"" class=""exp-image""></div>","null","","","","","","","","","","","",""
"","","","","","html-button-response","320","811897","0.0-320.0","428","","<div class=""stimulus-container""><img src=""images/schematic_sequence/flight_scheme/flight_scheme_1.png"" class=""exp-image""><div class=""question-area""><b>Is there a person?</b></div></div>","1","person_check","flight_scheme","1","","","","","","","","",""
"","","","","","html-keyboard-response","321","815900","0.0-321.0","null","","<div class=""stimulus-container""><img src=""images/schematic_sequence/flight_scheme/flight_scheme_2.png"" class=""exp-image""></div>","null","","","","","","","","","","","",""
"","","","","","html-button-response","322","816463","0.0-322.0","563","","<div class=""stimulus-container""><img src=""images/schematic_sequence/flight_scheme/flight_scheme_2.png"" class=""exp-image""><div class=""question-area""><b>Is there a person?</b></div></div>","1","person_check","flight_scheme","2","","","","","","","","",""
"","","","","","html-keyboard-response","323","820465","0.0-323.0","null","","<div class=""stimulus-container""><img src=""images/schematic_sequence/flight_scheme/flight_scheme_3.png"" class=""exp-image""></div>","null","","","","","","","","","","","",""
"","","","","","html-button-response","324","820941","0.0-324.0","475","","<div class=""stimulus-container""><img src=""images/schematic_sequence/flight_scheme/flight_scheme_3.png"" class=""exp-image""><div class=""question-area""><b>Is there a person?</b></div></div>","0","person_check","flight_scheme","3","","","","","","","","",""
"","","","","","html-keyboard-response","325","824942","0.0-325.0","null","","<div class=""stimulus-container""><img src=""images/schematic_sequence/flight_scheme/flight_scheme_4.png"" class=""exp-image""></div>","null","","","","","","","","","","","",""
"","","","","","html-button-response","326","825695","0.0-326.0","752","","<div class=""stimulus-container""><img src=""images/schematic_sequence/flight_scheme/flight_scheme_4.png"" class=""exp-image""><div class=""question-area""><b>Is there a person?</b></div></div>","0","person_check","flight_scheme","4","","","","","","","","",""
"","","","","","html-keyboard-response","327","829697","0.0-327.0","null","","<div class=""stimulus-container""><img src=""images/schematic_sequence/flight_scheme/flight_scheme_5.png"" class=""exp-image""></div>","null","","","","","","","","","","","",""
"","","","","","html-button-response","328","830459","0.0-328.0","762","","<div class=""stimulus-container""><img src=""images/schematic_sequence/flight_scheme/flight_scheme_5.png"" class=""exp-image""><div class=""question-area""><b>Is there a person?</b></div></div>","0","person_check","flight_scheme","5","","","","","","","","",""
"","","","","","html-keyboard-response","329","834461","0.0-329.0","null","","<div class=""stimulus-container""><img src=""images/schematic_sequence/flight_scheme/flight_scheme_6.png"" class=""exp-image""></div>","null","","","","","","","","","","","",""
